img,num,basicLoop.thisRepN,basicLoop.thisTrialN,basicLoop.thisN,basicLoop.thisIndex,trials.thisRepN,trials.thisTrialN,trials.thisN,trials.thisIndex,trials2.thisRepN,trials2.thisTrialN,trials2.thisN,trials2.thisIndex,key_resp_2.keys,key_resp_2.rt,basicRating1.response,basicRating1.rt,basicRating2.response,basicRating2.rt,basicRating3.response,basicRating3.rt,basicRating4.response,basicRating4.rt,key_resp_3.keys,key_resp_3.rt,key_resp_4.keys,key_resp_4.rt,mouseResp.x,mouseResp.y,mouseResp.leftButton,mouseResp.midButton,mouseResp.rightButton,mouseResp.time,key_resp_5.keys,key_resp_5.rt,key_resp_7.keys,key_resp_7.rt,date,group,expName,participant,frameRate,
,,,,,,,,,,,,,,return,96.3628351688,,,,,,,,,,,,,,,,,,,,,,,2015_Sep_27_1225,G,facesParametric,10,59.3997295058,
./basicStim/21M_FE_O.jpg,,0,0,0,44,,,,,,,,,,,None,None,FEA,8.012,None,None,None,None,,,,,,,,,,,,,,,2015_Sep_27_1225,G,facesParametric,10,59.3997295058,
./basicStim/28M_DI_O.jpg,,0,1,1,64,,,,,,,,,,,None,None,None,None,DIS,2.564,None,None,,,,,,,,,,,,,,,2015_Sep_27_1225,G,facesParametric,10,59.3997295058,
./basicStim/03F_HA_O.jpg,,0,2,2,17,,,,,,,,,,,HAP,1.706,None,None,None,None,None,None,,,,,,,,,,,,,,,2015_Sep_27_1225,G,facesParametric,10,59.3997295058,
./basicStim/02F_AN_O.jpg,,0,3,3,7,,,,,,,,,,,None,None,ANG,4.695,None,None,None,None,,,,,,,,,,,,,,,2015_Sep_27_1225,G,facesParametric,10,59.3997295058,
./basicStim/09F_SA_C.jpg,,0,4,4,39,,,,,,,,,,,None,None,None,None,DIS,47.058,None,None,,,,,,,,,,,,,,,2015_Sep_27_1225,G,facesParametric,10,59.3997295058,
./basicStim/06F_NE_C.jpg,,0,5,5,27,,,,,,,,,,,SAD,4.012,None,None,None,None,None,None,,,,,,,,,,,,,,,2015_Sep_27_1225,G,facesParametric,10,59.3997295058,
./basicStim/23M_NE_C.jpg,,0,6,6,55,,,,,,,,,,,None,None,None,None,None,None,NTR,1.24,,,,,,,,,,,,,,,2015_Sep_27_1225,G,facesParametric,10,59.3997295058,
./basicStim/01F_HA_O.jpg,,0,7,7,3,,,,,,,,,,,HAP,1.147,None,None,None,None,None,None,,,,,,,,,,,,,,,2015_Sep_27_1225,G,facesParametric,10,59.3997295058,
./basicStim/28M_NE_C.jpg,,0,8,8,69,,,,,,,,,,,None,None,FEA,1.765,None,None,None,None,,,,,,,,,,,,,,,2015_Sep_27_1225,G,facesParametric,10,59.3997295058,
./basicStim/01F_SA_C.jpg,,0,9,9,4,,,,,,,,,,,SAD,4.952,None,None,None,None,None,None,,,,,,,,,,,,,,,2015_Sep_27_1225,G,facesParametric,10,59.3997295058,
./basicStim/23M_HA_O.jpg,,0,10,10,52,,,,,,,,,,,HAP,1.748,None,None,None,None,None,None,,,,,,,,,,,,,,,2015_Sep_27_1225,G,facesParametric,10,59.3997295058,
./basicStim/09F_HA_O.jpg,,0,11,11,38,,,,,,,,,,,HAP,0.726,None,None,None,None,None,None,,,,,,,,,,,,,,,2015_Sep_27_1225,G,facesParametric,10,59.3997295058,
./basicStim/24M_HA_O.jpg,,0,12,12,59,,,,,,,,,,,HAP,1.454,None,None,None,None,None,None,,,,,,,,,,,,,,,2015_Sep_27_1225,G,facesParametric,10,59.3997295058,
./basicStim/21M_SA_C.jpg,,0,13,13,46,,,,,,,,,,,None,None,ANG,4.006,None,None,None,None,,,,,,,,,,,,,,,2015_Sep_27_1225,G,facesParametric,10,59.3997295058,
./basicStim/34M_SA_C.jpg,,0,14,14,74,,,,,,,,,,,None,None,ANG,5.351,None,None,None,None,,,,,,,,,,,,,,,2015_Sep_27_1225,G,facesParametric,10,59.3997295058,
./basicStim/23M_SP_O.jpg,,0,15,15,54,,,,,,,,,,,None,None,None,None,SUP,0.86,None,None,,,,,,,,,,,,,,,2015_Sep_27_1225,G,facesParametric,10,59.3997295058,
./basicStim/06F_HA_O.jpg,,0,16,16,24,,,,,,,,,,,HAP,5.123,None,None,None,None,None,None,,,,,,,,,,,,,,,2015_Sep_27_1225,G,facesParametric,10,59.3997295058,
./basicStim/34M_FE_O.jpg,,0,17,17,72,,,,,,,,,,,None,None,None,None,SUP,2.101,None,None,,,,,,,,,,,,,,,2015_Sep_27_1225,G,facesParametric,10,59.3997295058,
./basicStim/01F_AN_O.jpg,,0,18,18,0,,,,,,,,,,,None,None,ANG,2.067,None,None,None,None,,,,,,,,,,,,,,,2015_Sep_27_1225,G,facesParametric,10,59.3997295058,
./basicStim/03F_NE_C.jpg,,0,19,19,20,,,,,,,,,,,None,None,None,None,None,None,NTR,0.875,,,,,,,,,,,,,,,2015_Sep_27_1225,G,facesParametric,10,59.3997295058,
./basicStim/07F_NE_C.jpg,,0,20,20,34,,,,,,,,,,,None,None,None,None,None,None,NTR,0.47,,,,,,,,,,,,,,,2015_Sep_27_1225,G,facesParametric,10,59.3997295058,
./basicStim/23M_FE_O.jpg,,0,21,21,51,,,,,,,,,,,None,None,None,None,DIS,3.875,None,None,,,,,,,,,,,,,,,2015_Sep_27_1225,G,facesParametric,10,59.3997295058,
./basicStim/21M_SP_O.jpg,,0,22,22,47,,,,,,,,,,,None,None,None,None,SUP,1.099,None,None,,,,,,,,,,,,,,,2015_Sep_27_1225,G,facesParametric,10,59.3997295058,
./basicStim/03F_DI_O.jpg,,0,23,23,15,,,,,,,,,,,None,None,None,None,DIS,3.041,None,None,,,,,,,,,,,,,,,2015_Sep_27_1225,G,facesParametric,10,59.3997295058,
./basicStim/02F_SP_O.jpg,,0,24,24,12,,,,,,,,,,,None,None,None,None,SUP,1.078,None,None,,,,,,,,,,,,,,,2015_Sep_27_1225,G,facesParametric,10,59.3997295058,
./basicStim/36M_DI_O.jpg,,0,25,25,78,,,,,,,,,,,None,None,None,None,DIS,2.296,None,None,,,,,,,,,,,,,,,2015_Sep_27_1225,G,facesParametric,10,59.3997295058,
./basicStim/24M_NE_C.jpg,,0,26,26,62,,,,,,,,,,,None,None,None,None,None,None,NTR,1.143,,,,,,,,,,,,,,,2015_Sep_27_1225,G,facesParametric,10,59.3997295058,
./basicStim/07F_FE_O.jpg,,0,27,27,30,,,,,,,,,,,None,None,FEA,3.022,None,None,None,None,,,,,,,,,,,,,,,2015_Sep_27_1225,G,facesParametric,10,59.3997295058,
./basicStim/03F_FE_O.jpg,,0,28,28,16,,,,,,,,,,,None,None,FEA,5.806,None,None,None,None,,,,,,,,,,,,,,,2015_Sep_27_1225,G,facesParametric,10,59.3997295058,
./basicStim/34M_AN_O.jpg,,0,29,29,70,,,,,,,,,,,None,None,ANG,1.514,None,None,None,None,,,,,,,,,,,,,,,2015_Sep_27_1225,G,facesParametric,10,59.3997295058,
./basicStim/02F_DI_O.jpg,,0,30,30,8,,,,,,,,,,,None,None,None,None,DIS,1.497,None,None,,,,,,,,,,,,,,,2015_Sep_27_1225,G,facesParametric,10,59.3997295058,
./basicStim/24M_DI_O.jpg,,0,31,31,57,,,,,,,,,,,None,None,ANG,10.062,None,None,None,None,,,,,,,,,,,,,,,2015_Sep_27_1225,G,facesParametric,10,59.3997295058,
./basicStim/24M_FE_O.jpg,,0,32,32,58,,,,,,,,,,,None,None,FEA,1.583,None,None,None,None,,,,,,,,,,,,,,,2015_Sep_27_1225,G,facesParametric,10,59.3997295058,
./basicStim/06F_FE_O.jpg,,0,33,33,23,,,,,,,,,,,None,None,FEA,2.417,None,None,None,None,,,,,,,,,,,,,,,2015_Sep_27_1225,G,facesParametric,10,59.3997295058,
./basicStim/36M_SA_C.jpg,,0,34,34,81,,,,,,,,,,,SAD,1.732,None,None,None,None,None,None,,,,,,,,,,,,,,,2015_Sep_27_1225,G,facesParametric,10,59.3997295058,
./basicStim/23M_SA_C.jpg,,0,35,35,53,,,,,,,,,,,SAD,1.23,None,None,None,None,None,None,,,,,,,,,,,,,,,2015_Sep_27_1225,G,facesParametric,10,59.3997295058,
./basicStim/24M_AN_O.jpg,,0,36,36,56,,,,,,,,,,,None,None,ANG,1.329,None,None,None,None,,,,,,,,,,,,,,,2015_Sep_27_1225,G,facesParametric,10,59.3997295058,
./basicStim/06F_AN_O.jpg,,0,37,37,21,,,,,,,,,,,None,None,ANG,1.603,None,None,None,None,,,,,,,,,,,,,,,2015_Sep_27_1225,G,facesParametric,10,59.3997295058,
./basicStim/01F_FE_O.jpg,,0,38,38,2,,,,,,,,,,,None,None,None,None,SUP,1.19,None,None,,,,,,,,,,,,,,,2015_Sep_27_1225,G,facesParametric,10,59.3997295058,
./basicStim/03F_AN_O.jpg,,0,39,39,14,,,,,,,,,,,None,None,ANG,2.12,None,None,None,None,,,,,,,,,,,,,,,2015_Sep_27_1225,G,facesParametric,10,59.3997295058,
./basicStim/09F_AN_O.jpg,,0,40,40,35,,,,,,,,,,,None,None,ANG,0.976,None,None,None,None,,,,,,,,,,,,,,,2015_Sep_27_1225,G,facesParametric,10,59.3997295058,
./basicStim/09F_FE_O.jpg,,0,41,41,37,,,,,,,,,,,None,None,FEA,3.575,None,None,None,None,,,,,,,,,,,,,,,2015_Sep_27_1225,G,facesParametric,10,59.3997295058,
./basicStim/34M_HA_O.jpg,,0,42,42,73,,,,,,,,,,,HAP,2.333,None,None,None,None,None,None,,,,,,,,,,,,,,,2015_Sep_27_1225,G,facesParametric,10,59.3997295058,
./basicStim/07F_SA_C.jpg,,0,43,43,32,,,,,,,,,,,SAD,2.137,None,None,None,None,None,None,,,,,,,,,,,,,,,2015_Sep_27_1225,G,facesParametric,10,59.3997295058,
./basicStim/07F_AN_O.jpg,,0,44,44,28,,,,,,,,,,,None,None,ANG,10.614,None,None,None,None,,,,,,,,,,,,,,,2015_Sep_27_1225,G,facesParametric,10,59.3997295058,
./basicStim/23M_DI_O.jpg,,0,45,45,50,,,,,,,,,,,None,None,None,None,DIS,4.61,None,None,,,,,,,,,,,,,,,2015_Sep_27_1225,G,facesParametric,10,59.3997295058,
./basicStim/28M_SP_O.jpg,,0,46,46,68,,,,,,,,,,,None,None,None,None,SUP,1.381,None,None,,,,,,,,,,,,,,,2015_Sep_27_1225,G,facesParametric,10,59.3997295058,
./basicStim/03F_SP_O.jpg,,0,47,47,19,,,,,,,,,,,HAP,1.582,None,None,None,None,None,None,,,,,,,,,,,,,,,2015_Sep_27_1225,G,facesParametric,10,59.3997295058,
./basicStim/34M_DI_O.jpg,,0,48,48,71,,,,,,,,,,,None,None,None,None,DIS,4.766,None,None,,,,,,,,,,,,,,,2015_Sep_27_1225,G,facesParametric,10,59.3997295058,
./basicStim/01F_NE_C.jpg,,0,49,49,6,,,,,,,,,,,None,None,None,None,None,None,NTR,1.46,,,,,,,,,,,,,,,2015_Sep_27_1225,G,facesParametric,10,59.3997295058,
./basicStim/07F_DI_O.jpg,,0,50,50,29,,,,,,,,,,,None,None,None,None,DIS,1.699,None,None,,,,,,,,,,,,,,,2015_Sep_27_1225,G,facesParametric,10,59.3997295058,
./basicStim/34M_SP_O.jpg,,0,51,51,75,,,,,,,,,,,None,None,None,None,SUP,0.675,None,None,,,,,,,,,,,,,,,2015_Sep_27_1225,G,facesParametric,10,59.3997295058,
./basicStim/34M_NE_C.jpg,,0,52,52,76,,,,,,,,,,,None,None,None,None,None,None,NTR,0.723,,,,,,,,,,,,,,,2015_Sep_27_1225,G,facesParametric,10,59.3997295058,
./basicStim/21M_AN_O.jpg,,0,53,53,42,,,,,,,,,,,None,None,ANG,1.729,None,None,None,None,,,,,,,,,,,,,,,2015_Sep_27_1225,G,facesParametric,10,59.3997295058,
./basicStim/36M_NE_C.jpg,,0,54,54,83,,,,,,,,,,,None,None,None,None,None,None,NTR,0.696,,,,,,,,,,,,,,,2015_Sep_27_1225,G,facesParametric,10,59.3997295058,
./basicStim/24M_SP_O.jpg,,0,55,55,61,,,,,,,,,,,None,None,None,None,SUP,1.378,None,None,,,,,,,,,,,,,,,2015_Sep_27_1225,G,facesParametric,10,59.3997295058,
./basicStim/28M_AN_O.jpg,,0,56,56,63,,,,,,,,,,,None,None,ANG,2.325,None,None,None,None,,,,,,,,,,,,,,,2015_Sep_27_1225,G,facesParametric,10,59.3997295058,
./basicStim/21M_HA_O.jpg,,0,57,57,45,,,,,,,,,,,HAP,1.269,None,None,None,None,None,None,,,,,,,,,,,,,,,2015_Sep_27_1225,G,facesParametric,10,59.3997295058,
./basicStim/36M_HA_O.jpg,,0,58,58,80,,,,,,,,,,,HAP,0.459,None,None,None,None,None,None,,,,,,,,,,,,,,,2015_Sep_27_1225,G,facesParametric,10,59.3997295058,
./basicStim/02F_NE_C.jpg,,0,59,59,13,,,,,,,,,,,None,None,None,None,None,None,NTR,1.848,,,,,,,,,,,,,,,2015_Sep_27_1225,G,facesParametric,10,59.3997295058,
./basicStim/36M_SP_O.jpg,,0,60,60,82,,,,,,,,,,,None,None,None,None,SUP,0.89,None,None,,,,,,,,,,,,,,,2015_Sep_27_1225,G,facesParametric,10,59.3997295058,
./basicStim/24M_SA_C.jpg,,0,61,61,60,,,,,,,,,,,SAD,3.625,None,None,None,None,None,None,,,,,,,,,,,,,,,2015_Sep_27_1225,G,facesParametric,10,59.3997295058,
./basicStim/21M_NE_C.jpg,,0,62,62,48,,,,,,,,,,,None,None,None,None,None,None,NTR,1.441,,,,,,,,,,,,,,,2015_Sep_27_1225,G,facesParametric,10,59.3997295058,
./basicStim/06F_SP_O.jpg,,0,63,63,26,,,,,,,,,,,None,None,None,None,SUP,0.635,None,None,,,,,,,,,,,,,,,2015_Sep_27_1225,G,facesParametric,10,59.3997295058,
./basicStim/06F_DI_O.jpg,,0,64,64,22,,,,,,,,,,,None,None,None,None,DIS,1.744,None,None,,,,,,,,,,,,,,,2015_Sep_27_1225,G,facesParametric,10,59.3997295058,
./basicStim/28M_HA_O.jpg,,0,65,65,66,,,,,,,,,,,HAP,1.617,None,None,None,None,None,None,,,,,,,,,,,,,,,2015_Sep_27_1225,G,facesParametric,10,59.3997295058,
./basicStim/06F_SA_C.jpg,,0,66,66,25,,,,,,,,,,,None,None,ANG,2.557,None,None,None,None,,,,,,,,,,,,,,,2015_Sep_27_1225,G,facesParametric,10,59.3997295058,
./basicStim/09F_SP_O.jpg,,0,67,67,40,,,,,,,,,,,None,None,None,None,SUP,0.904,None,None,,,,,,,,,,,,,,,2015_Sep_27_1225,G,facesParametric,10,59.3997295058,
./basicStim/36M_AN_O.jpg,,0,68,68,77,,,,,,,,,,,None,None,ANG,1.596,None,None,None,None,,,,,,,,,,,,,,,2015_Sep_27_1225,G,facesParametric,10,59.3997295058,
./basicStim/07F_HA_O.jpg,,0,69,69,31,,,,,,,,,,,HAP,2.738,None,None,None,None,None,None,,,,,,,,,,,,,,,2015_Sep_27_1225,G,facesParametric,10,59.3997295058,
./basicStim/01F_DI_O.jpg,,0,70,70,1,,,,,,,,,,,None,None,ANG,1.692,None,None,None,None,,,,,,,,,,,,,,,2015_Sep_27_1225,G,facesParametric,10,59.3997295058,
./basicStim/09F_DI_O.jpg,,0,71,71,36,,,,,,,,,,,None,None,None,None,DIS,1.692,None,None,,,,,,,,,,,,,,,2015_Sep_27_1225,G,facesParametric,10,59.3997295058,
./basicStim/23M_AN_O.jpg,,0,72,72,49,,,,,,,,,,,None,None,ANG,1.263,None,None,None,None,,,,,,,,,,,,,,,2015_Sep_27_1225,G,facesParametric,10,59.3997295058,
./basicStim/01F_SP_O.jpg,,0,73,73,5,,,,,,,,,,,None,None,None,None,SUP,7.261,None,None,,,,,,,,,,,,,,,2015_Sep_27_1225,G,facesParametric,10,59.3997295058,
./basicStim/02F_FE_O.jpg,,0,74,74,9,,,,,,,,,,,None,None,None,None,SUP,3.173,None,None,,,,,,,,,,,,,,,2015_Sep_27_1225,G,facesParametric,10,59.3997295058,
./basicStim/07F_SP_O.jpg,,0,75,75,33,,,,,,,,,,,None,None,None,None,SUP,0.862,None,None,,,,,,,,,,,,,,,2015_Sep_27_1225,G,facesParametric,10,59.3997295058,
./basicStim/36M_FE_O.jpg,,0,76,76,79,,,,,,,,,,,None,None,FEA,5.532,None,None,None,None,,,,,,,,,,,,,,,2015_Sep_27_1225,G,facesParametric,10,59.3997295058,
./basicStim/21M_DI_O.jpg,,0,77,77,43,,,,,,,,,,,None,None,None,None,DIS,3.256,None,None,,,,,,,,,,,,,,,2015_Sep_27_1225,G,facesParametric,10,59.3997295058,
./basicStim/02F_SA_C.jpg,,0,78,78,11,,,,,,,,,,,SAD,1.295,None,None,None,None,None,None,,,,,,,,,,,,,,,2015_Sep_27_1225,G,facesParametric,10,59.3997295058,
./basicStim/02F_HA_O.jpg,,0,79,79,10,,,,,,,,,,,HAP,1.448,None,None,None,None,None,None,,,,,,,,,,,,,,,2015_Sep_27_1225,G,facesParametric,10,59.3997295058,
./basicStim/28M_SA_C.jpg,,0,80,80,67,,,,,,,,,,,None,None,FEA,2.304,None,None,None,None,,,,,,,,,,,,,,,2015_Sep_27_1225,G,facesParametric,10,59.3997295058,
./basicStim/28M_FE_O.jpg,,0,81,81,65,,,,,,,,,,,None,None,FEA,2.335,None,None,None,None,,,,,,,,,,,,,,,2015_Sep_27_1225,G,facesParametric,10,59.3997295058,
./basicStim/03F_SA_C.jpg,,0,82,82,18,,,,,,,,,,,SAD,1.498,None,None,None,None,None,None,,,,,,,,,,,,,,,2015_Sep_27_1225,G,facesParametric,10,59.3997295058,
./basicStim/09F_NE_C.jpg,,0,83,83,41,,,,,,,,,,,None,None,None,None,None,None,NTR,0.908,,,,,,,,,,,,,,,2015_Sep_27_1225,G,facesParametric,10,59.3997295058,
,,,,,,,,,,,,,,,,,,,,,,,,return,3.67143011093,,,,,,,,,,,,,2015_Sep_27_1225,G,facesParametric,10,59.3997295058,
,,,,,,,,,,,,,,return,9.75370693207,,,,,,,,,,,,,,,,,,,,,,,2015_Sep_27_1225,G,facesParametric,10,59.3997295058,
,,,,,,,,,,,,,,,,,,,,,,,,return,10.4077980518,,,,,,,,,,,,,2015_Sep_27_1225,G,facesParametric,10,59.3997295058,
,,,,,,,,,,,,,,,,,,,,,,,,,,return,4.7930290699,,,,,,,,,,,2015_Sep_27_1225,G,facesParametric,10,59.3997295058,
./stim/MorphM7_05_orig.jpg,0,,,,,0,0,0,0,,,,,,,,,,,,,,,,,,,0.966796875,-5.244140625,1,0,0,1.00524902344,,,,,2015_Sep_27_1225,G,facesParametric,10,59.3997295058,
./stim/MorphF7_10_orig.jpg,1,,,,,0,1,1,1,,,,,,,,,,,,,,,,,,,0.966796875,-5.244140625,1,0,0,1.22129011154,,,,,2015_Sep_27_1225,G,facesParametric,10,59.3997295058,
./stim/MorphM3_03_orig.jpg,2,,,,,0,2,2,2,,,,,,,,,,,,,,,,,,,0.76171875,-5.2734375,0,0,1,0.919480085373,,,,,2015_Sep_27_1225,G,facesParametric,10,59.3997295058,
./stim/MorphF5_09_orig.jpg,3,,,,,0,3,3,3,,,,,,,,,,,,,,,,,,,0.703125,-5.33203125,1,0,0,0.818770885468,,,,,2015_Sep_27_1225,G,facesParametric,10,59.3997295058,
./stim/MorphF2_04_orig.jpg,4,,,,,0,4,4,4,,,,,,,,,,,,,,,,,,,0.46875,-5.15625,0,0,1,2.39504408836,,,,,2015_Sep_27_1225,G,facesParametric,10,59.3997295058,
./stim/MorphF10_05_orig.jpg,5,,,,,0,5,5,5,,,,,,,,,,,,,,,,,,,0.380859375,-5.2734375,1,0,0,1.82401108742,,,,,2015_Sep_27_1225,G,facesParametric,10,59.3997295058,
./stim/MorphM8_00_orig.jpg,6,,,,,0,6,6,6,,,,,,,,,,,,,,,,,,,0.380859375,-5.859375,0,0,1,2.14377403259,,,,,2015_Sep_27_1225,G,facesParametric,10,59.3997295058,
./stim/MorphM10_06_orig.jpg,7,,,,,0,7,7,7,,,,,,,,,,,,,,,,,,,0.380859375,-5.859375,1,0,0,0.902409076691,,,,,2015_Sep_27_1225,G,facesParametric,10,59.3997295058,
./stim/MorphF1_03_orig.jpg,8,,,,,0,8,8,8,,,,,,,,,,,,,,,,,,,0.3515625,-5.888671875,0,0,1,1.35691809654,,,,,2015_Sep_27_1225,G,facesParametric,10,59.3997295058,
./stim/MorphM9_03_orig.jpg,9,,,,,0,9,9,9,,,,,,,,,,,,,,,,,,,2.28515625,-8.5546875,0,0,1,4.92568087578,,,,,2015_Sep_27_1225,G,facesParametric,10,59.3997295058,
./stim/MorphM2_10_orig.jpg,10,,,,,0,10,10,10,,,,,,,,,,,,,,,,,,,6.884765625,-13.125,1,0,0,5.44573307037,,,,,2015_Sep_27_1225,G,facesParametric,10,59.3997295058,
./stim/MorphM1_09_orig.jpg,11,,,,,0,11,11,11,,,,,,,,,,,,,,,,,,,8.37890625,-13.154296875,1,0,0,15.2331910133,,,,,2015_Sep_27_1225,G,facesParametric,10,59.3997295058,
./stim/MorphM7_02_orig.jpg,12,,,,,0,12,12,12,,,,,,,,,,,,,,,,,,,8.26171875,-13.06640625,1,0,0,1.30565309525,,,,,2015_Sep_27_1225,G,facesParametric,10,59.3997295058,
./stim/MorphM3_02_orig.jpg,13,,,,,0,13,13,13,,,,,,,,,,,,,,,,,,,8.3203125,-13.0078125,0,0,1,1.22222399712,,,,,2015_Sep_27_1225,G,facesParametric,10,59.3997295058,
./stim/MorphM2_03_orig.jpg,14,,,,,0,14,14,14,,,,,,,,,,,,,,,,,,,8.3203125,-13.0078125,0,0,1,1.47383904457,,,,,2015_Sep_27_1225,G,facesParametric,10,59.3997295058,
./stim/MorphM5_07_orig.jpg,15,,,,,0,15,15,15,,,,,,,,,,,,,,,,,,,8.26171875,-13.125,1,0,0,2.74823093414,,,,,2015_Sep_27_1225,G,facesParametric,10,59.3997295058,
./stim/MorphF10_04_orig.jpg,16,,,,,0,16,16,16,,,,,,,,,,,,,,,,,,,8.26171875,-12.94921875,0,0,1,0.953221082687,,,,,2015_Sep_27_1225,G,facesParametric,10,59.3997295058,
./stim/MorphF4_04_orig.jpg,17,,,,,0,17,17,17,,,,,,,,,,,,,,,,,,,8.26171875,-12.94921875,0,0,1,1.54074406624,,,,,2015_Sep_27_1225,G,facesParametric,10,59.3997295058,
./stim/MorphF7_09_orig.jpg,18,,,,,0,18,18,18,,,,,,,,,,,,,,,,,,,8.26171875,-12.94921875,1,0,0,0.886500120163,,,,,2015_Sep_27_1225,G,facesParametric,10,59.3997295058,
./stim/MorphF9_01_orig.jpg,19,,,,,0,19,19,19,,,,,,,,,,,,,,,,,,,8.26171875,-12.94921875,0,0,1,1.10490989685,,,,,2015_Sep_27_1225,G,facesParametric,10,59.3997295058,
./stim/MorphM8_06_orig.jpg,20,,,,,0,20,20,20,,,,,,,,,,,,,,,,,,,8.26171875,-12.94921875,1,0,0,0.936896800995,,,,,2015_Sep_27_1225,G,facesParametric,10,59.3997295058,
./stim/MorphF4_03_orig.jpg,21,,,,,0,21,21,21,,,,,,,,,,,,,,,,,,,8.26171875,-12.94921875,0,0,1,1.07066297531,,,,,2015_Sep_27_1225,G,facesParametric,10,59.3997295058,
./stim/MorphF5_05_orig.jpg,22,,,,,0,22,22,22,,,,,,,,,,,,,,,,,,,8.26171875,-12.94921875,1,0,0,1.45544600487,,,,,2015_Sep_27_1225,G,facesParametric,10,59.3997295058,
./stim/MorphF3_03_orig.jpg,23,,,,,0,23,23,23,,,,,,,,,,,,,,,,,,,8.232421875,-12.919921875,0,0,1,1.5233309269,,,,,2015_Sep_27_1225,G,facesParametric,10,59.3997295058,
./stim/MorphF4_06_orig.jpg,24,,,,,0,24,24,24,,,,,,,,,,,,,,,,,,,8.26171875,-13.154296875,1,0,0,1.6741797924,,,,,2015_Sep_27_1225,G,facesParametric,10,59.3997295058,
./stim/MorphF6_01_orig.jpg,25,,,,,0,25,25,25,,,,,,,,,,,,,,,,,,,8.26171875,-13.095703125,0,0,1,1.69056606293,,,,,2015_Sep_27_1225,G,facesParametric,10,59.3997295058,
./stim/MorphF9_00_orig.jpg,26,,,,,0,26,26,26,,,,,,,,,,,,,,,,,,,8.3203125,-13.154296875,0,0,1,1.55603098869,,,,,2015_Sep_27_1225,G,facesParametric,10,59.3997295058,
./stim/MorphM6_09_orig.jpg,27,,,,,0,27,27,27,,,,,,,,,,,,,,,,,,,8.525390625,-13.154296875,1,0,0,0.870296955109,,,,,2015_Sep_27_1225,G,facesParametric,10,59.3997295058,
./stim/MorphF7_01_orig.jpg,28,,,,,0,28,28,28,,,,,,,,,,,,,,,,,,,20.80078125,-10.48828125,1,0,0,3.93766498566,,,,,2015_Sep_27_1225,G,facesParametric,10,59.3997295058,
./stim/MorphM10_04_orig.jpg,29,,,,,0,29,29,29,,,,,,,,,,,,,,,,,,,20.830078125,-10.341796875,1,0,0,0.752730131149,,,,,2015_Sep_27_1225,G,facesParametric,10,59.3997295058,
./stim/MorphM8_01_orig.jpg,30,,,,,0,30,30,30,,,,,,,,,,,,,,,,,,,20.7421875,-10.25390625,0,0,1,1.89286112785,,,,,2015_Sep_27_1225,G,facesParametric,10,59.3997295058,
./stim/MorphM5_06_orig.jpg,31,,,,,0,31,31,31,,,,,,,,,,,,,,,,,,,21.03515625,-11.396484375,1,0,0,2.210739851,,,,,2015_Sep_27_1225,G,facesParametric,10,59.3997295058,
./stim/MorphF8_01_orig.jpg,32,,,,,0,32,32,32,,,,,,,,,,,,,,,,,,,20.9765625,-11.484375,0,0,1,1.23880887032,,,,,2015_Sep_27_1225,G,facesParametric,10,59.3997295058,
./stim/MorphM5_03_orig.jpg,33,,,,,0,33,33,33,,,,,,,,,,,,,,,,,,,21.2109375,-11.982421875,1,0,0,0.954334020615,,,,,2015_Sep_27_1225,G,facesParametric,10,59.3997295058,
./stim/MorphF1_01_orig.jpg,34,,,,,0,34,34,34,,,,,,,,,,,,,,,,,,,21.005859375,-11.748046875,0,0,1,1.3394639492,,,,,2015_Sep_27_1225,G,facesParametric,10,59.3997295058,
./stim/MorphM2_00_orig.jpg,35,,,,,0,35,35,35,,,,,,,,,,,,,,,,,,,21.73828125,-12.919921875,0,0,1,2.52969098091,,,,,2015_Sep_27_1225,G,facesParametric,10,59.3997295058,
./stim/MorphF9_05_orig.jpg,36,,,,,0,36,36,36,,,,,,,,,,,,,,,,,,,22.1484375,-13.154296875,1,0,0,1.06929206848,,,,,2015_Sep_27_1225,G,facesParametric,10,59.3997295058,
./stim/MorphF6_07_orig.jpg,37,,,,,0,37,37,37,,,,,,,,,,,,,,,,,,,22.1484375,-13.037109375,1,0,0,0.685428857803,,,,,2015_Sep_27_1225,G,facesParametric,10,59.3997295058,
./stim/MorphF1_07_orig.jpg,38,,,,,0,38,38,38,,,,,,,,,,,,,,,,,,,22.1484375,-12.978515625,1,0,0,0.886487960815,,,,,2015_Sep_27_1225,G,facesParametric,10,59.3997295058,
./stim/MorphM2_01_orig.jpg,39,,,,,0,39,39,39,,,,,,,,,,,,,,,,,,,22.1484375,-12.919921875,0,0,1,1.07068586349,,,,,2015_Sep_27_1225,G,facesParametric,10,59.3997295058,
./stim/MorphM1_00_orig.jpg,40,,,,,0,40,40,40,,,,,,,,,,,,,,,,,,,22.20703125,-13.06640625,0,0,1,1.44030714035,,,,,2015_Sep_27_1225,G,facesParametric,10,59.3997295058,
./stim/MorphF1_06_orig.jpg,41,,,,,0,41,41,41,,,,,,,,,,,,,,,,,,,22.08984375,-12.978515625,1,0,0,1.25517106056,,,,,2015_Sep_27_1225,G,facesParametric,10,59.3997295058,
./stim/MorphM7_03_orig.jpg,42,,,,,0,42,42,42,,,,,,,,,,,,,,,,,,,22.001953125,-12.83203125,1,0,0,1.02099895477,,,,,2015_Sep_27_1225,G,facesParametric,10,59.3997295058,
./stim/MorphM2_08_orig.jpg,43,,,,,0,43,43,43,,,,,,,,,,,,,,,,,,,21.97265625,-12.861328125,1,0,0,1.2058570385,,,,,2015_Sep_27_1225,G,facesParametric,10,59.3997295058,
./stim/MorphF6_00_orig.jpg,44,,,,,0,44,44,44,,,,,,,,,,,,,,,,,,,21.9140625,-12.626953125,0,0,1,1.35405802727,,,,,2015_Sep_27_1225,G,facesParametric,10,59.3997295058,
./stim/MorphM8_02_orig.jpg,45,,,,,0,45,45,45,,,,,,,,,,,,,,,,,,,22.20703125,-13.125,1,0,0,1.10487294197,,,,,2015_Sep_27_1225,G,facesParametric,10,59.3997295058,
./stim/MorphM6_10_orig.jpg,46,,,,,0,46,46,46,,,,,,,,,,,,,,,,,,,22.060546875,-12.919921875,1,0,0,1.58971786499,,,,,2015_Sep_27_1225,G,facesParametric,10,59.3997295058,
./stim/MorphF1_09_orig.jpg,47,,,,,0,47,47,47,,,,,,,,,,,,,,,,,,,21.85546875,-12.919921875,1,0,0,1.99227905273,,,,,2015_Sep_27_1225,G,facesParametric,10,59.3997295058,
./stim/MorphM9_02_orig.jpg,48,,,,,0,48,48,48,,,,,,,,,,,,,,,,,,,21.826171875,-12.94921875,0,0,1,1.27177906036,,,,,2015_Sep_27_1225,G,facesParametric,10,59.3997295058,
./stim/MorphM2_02_orig.jpg,49,,,,,0,49,49,49,,,,,,,,,,,,,,,,,,,22.03125,-12.861328125,0,0,1,1.32141494751,,,,,2015_Sep_27_1225,G,facesParametric,10,59.3997295058,
./stim/MorphM6_07_orig.jpg,50,,,,,0,50,50,50,,,,,,,,,,,,,,,,,,,21.97265625,-12.83203125,0,0,1,1.90750908852,,,,,2015_Sep_27_1225,G,facesParametric,10,59.3997295058,
./stim/MorphF6_06_orig.jpg,51,,,,,0,51,51,51,,,,,,,,,,,,,,,,,,,21.884765625,-12.83203125,1,0,0,1.12174201012,,,,,2015_Sep_27_1225,G,facesParametric,10,59.3997295058,
./stim/MorphM10_02_orig.jpg,52,,,,,0,52,52,52,,,,,,,,,,,,,,,,,,,21.650390625,-12.568359375,0,0,1,2.14381217957,,,,,2015_Sep_27_1225,G,facesParametric,10,59.3997295058,
./stim/MorphF5_07_orig.jpg,53,,,,,0,53,53,53,,,,,,,,,,,,,,,,,,,21.533203125,-12.275390625,1,0,0,1.50734305382,,,,,2015_Sep_27_1225,G,facesParametric,10,59.3997295058,
./stim/MorphF10_02_orig.jpg,54,,,,,0,54,54,54,,,,,,,,,,,,,,,,,,,21.4453125,-12.158203125,0,0,1,1.10420584679,,,,,2015_Sep_27_1225,G,facesParametric,10,59.3997295058,
./stim/MorphM4_03_orig.jpg,55,,,,,0,55,55,55,,,,,,,,,,,,,,,,,,,20.56640625,-13.154296875,0,0,1,2.61337184906,,,,,2015_Sep_27_1225,G,facesParametric,10,59.3997295058,
./stim/MorphF1_10_orig.jpg,56,,,,,0,56,56,56,,,,,,,,,,,,,,,,,,,20.361328125,-13.154296875,1,0,0,1.07090401649,,,,,2015_Sep_27_1225,G,facesParametric,10,59.3997295058,
./stim/MorphF3_10_orig.jpg,57,,,,,0,57,57,57,,,,,,,,,,,,,,,,,,,20.33203125,-13.154296875,1,0,0,1.35612010956,,,,,2015_Sep_27_1225,G,facesParametric,10,59.3997295058,
./stim/MorphM6_02_orig.jpg,58,,,,,0,58,58,58,,,,,,,,,,,,,,,,,,,20.185546875,-13.154296875,0,0,1,1.27206492424,,,,,2015_Sep_27_1225,G,facesParametric,10,59.3997295058,
./stim/MorphM1_07_orig.jpg,59,,,,,0,59,59,59,,,,,,,,,,,,,,,,,,,20.09765625,-13.154296875,0,0,1,1.405616045,,,,,2015_Sep_27_1225,G,facesParametric,10,59.3997295058,
./stim/MorphF2_08_orig.jpg,60,,,,,0,60,60,60,,,,,,,,,,,,,,,,,,,20.15625,-13.154296875,1,0,0,0.802448034286,,,,,2015_Sep_27_1225,G,facesParametric,10,59.3997295058,
./stim/MorphM4_04_orig.jpg,61,,,,,0,61,61,61,,,,,,,,,,,,,,,,,,,20.009765625,-13.154296875,1,0,0,4.18799901009,,,,,2015_Sep_27_1225,G,facesParametric,10,59.3997295058,
./stim/MorphF8_10_orig.jpg,62,,,,,0,62,62,62,,,,,,,,,,,,,,,,,,,19.98046875,-13.154296875,1,0,0,1.85848712921,,,,,2015_Sep_27_1225,G,facesParametric,10,59.3997295058,
./stim/MorphM7_07_orig.jpg,63,,,,,0,63,63,63,,,,,,,,,,,,,,,,,,,19.86328125,-13.154296875,1,0,0,0.85360789299,,,,,2015_Sep_27_1225,G,facesParametric,10,59.3997295058,
./stim/MorphM8_05_orig.jpg,64,,,,,0,64,64,64,,,,,,,,,,,,,,,,,,,19.833984375,-13.154296875,0,0,1,1.03786110878,,,,,2015_Sep_27_1225,G,facesParametric,10,59.3997295058,
./stim/MorphF6_02_orig.jpg,65,,,,,0,65,65,65,,,,,,,,,,,,,,,,,,,19.775390625,-13.037109375,0,0,1,1.97531700134,,,,,2015_Sep_27_1225,G,facesParametric,10,59.3997295058,
./stim/MorphF2_10_orig.jpg,66,,,,,0,66,66,66,,,,,,,,,,,,,,,,,,,19.74609375,-13.154296875,1,0,0,0.819926977158,,,,,2015_Sep_27_1225,G,facesParametric,10,59.3997295058,
./stim/MorphM5_09_orig.jpg,67,,,,,0,67,67,67,,,,,,,,,,,,,,,,,,,19.74609375,-13.154296875,1,0,0,1.05473303795,,,,,2015_Sep_27_1225,G,facesParametric,10,59.3997295058,
./stim/MorphF8_09_orig.jpg,68,,,,,0,68,68,68,,,,,,,,,,,,,,,,,,,19.658203125,-13.154296875,1,0,0,0.920361042023,,,,,2015_Sep_27_1225,G,facesParametric,10,59.3997295058,
./stim/MorphM6_08_orig.jpg,69,,,,,0,69,69,69,,,,,,,,,,,,,,,,,,,19.833984375,-13.095703125,1,0,0,4.59108090401,,,,,2015_Sep_27_1225,G,facesParametric,10,59.3997295058,
./stim/MorphF2_00_orig.jpg,70,,,,,0,70,70,70,,,,,,,,,,,,,,,,,,,21.005859375,-12.744140625,0,0,1,1.38945293427,,,,,2015_Sep_27_1225,G,facesParametric,10,59.3997295058,
./stim/MorphF7_03_orig.jpg,71,,,,,0,71,71,71,,,,,,,,,,,,,,,,,,,-1.0546875,-4.482421875,0,0,1,2.37810707092,,,,,2015_Sep_27_1225,G,facesParametric,10,59.3997295058,
./stim/MorphM9_10_orig.jpg,72,,,,,0,72,72,72,,,,,,,,,,,,,,,,,,,6.5625,-8.994140625,1,0,0,1.08712506294,,,,,2015_Sep_27_1225,G,facesParametric,10,59.3997295058,
./stim/MorphF3_05_orig.jpg,73,,,,,0,73,73,73,,,,,,,,,,,,,,,,,,,6.38671875,-10.13671875,0,0,1,1.08848190308,,,,,2015_Sep_27_1225,G,facesParametric,10,59.3997295058,
./stim/MorphM10_08_orig.jpg,74,,,,,0,74,74,74,,,,,,,,,,,,,,,,,,,5.44921875,-12.392578125,1,0,0,1.03758597374,,,,,2015_Sep_27_1225,G,facesParametric,10,59.3997295058,
./stim/MorphF4_01_orig.jpg,75,,,,,0,75,75,75,,,,,,,,,,,,,,,,,,,4.775390625,-13.0078125,0,0,1,2.1440718174,,,,,2015_Sep_27_1225,G,facesParametric,10,59.3997295058,
./stim/MorphM5_04_orig.jpg,76,,,,,0,76,76,76,,,,,,,,,,,,,,,,,,,4.51171875,-13.154296875,1,0,0,1.00478219986,,,,,2015_Sep_27_1225,G,facesParametric,10,59.3997295058,
./stim/MorphM7_09_orig.jpg,77,,,,,0,77,77,77,,,,,,,,,,,,,,,,,,,4.39453125,-13.154296875,1,0,0,0.784157037735,,,,,2015_Sep_27_1225,G,facesParametric,10,59.3997295058,
./stim/MorphM1_04_orig.jpg,78,,,,,0,78,78,78,,,,,,,,,,,,,,,,,,,3.75,-13.037109375,0,0,1,1.05243706703,,,,,2015_Sep_27_1225,G,facesParametric,10,59.3997295058,
./stim/MorphF8_07_orig.jpg,79,,,,,0,79,79,79,,,,,,,,,,,,,,,,,,,4.51171875,-13.154296875,1,0,0,1.23763489723,,,,,2015_Sep_27_1225,G,facesParametric,10,59.3997295058,
./stim/MorphM9_06_orig.jpg,80,,,,,0,80,80,80,,,,,,,,,,,,,,,,,,,3.837890625,-12.94921875,0,0,1,1.65631699562,,,,,2015_Sep_27_1225,G,facesParametric,10,59.3997295058,
./stim/MorphF8_03_orig.jpg,81,,,,,0,81,81,81,,,,,,,,,,,,,,,,,,,3.28125,-13.154296875,0,0,1,1.80919384956,,,,,2015_Sep_27_1225,G,facesParametric,10,59.3997295058,
./stim/MorphM8_07_orig.jpg,82,,,,,0,82,82,82,,,,,,,,,,,,,,,,,,,3.076171875,-13.125,1,0,0,1.18868899345,,,,,2015_Sep_27_1225,G,facesParametric,10,59.3997295058,
./stim/MorphF2_05_orig.jpg,83,,,,,0,83,83,83,,,,,,,,,,,,,,,,,,,3.076171875,-13.095703125,1,0,0,1.13677215576,,,,,2015_Sep_27_1225,G,facesParametric,10,59.3997295058,
./stim/MorphM9_05_orig.jpg,84,,,,,0,84,84,84,,,,,,,,,,,,,,,,,,,22.8515625,-12.275390625,0,0,1,18.6860461235,,,,,2015_Sep_27_1225,G,facesParametric,10,59.3997295058,
./stim/MorphM5_01_orig.jpg,85,,,,,0,85,85,85,,,,,,,,,,,,,,,,,,,22.470703125,-12.099609375,0,0,1,1.33889293671,,,,,2015_Sep_27_1225,G,facesParametric,10,59.3997295058,
./stim/MorphF10_01_orig.jpg,86,,,,,0,86,86,86,,,,,,,,,,,,,,,,,,,22.265625,-12.0703125,0,0,1,1.49064493179,,,,,2015_Sep_27_1225,G,facesParametric,10,59.3997295058,
./stim/MorphM5_08_orig.jpg,87,,,,,0,87,87,87,,,,,,,,,,,,,,,,,,,21.533203125,-12.568359375,1,0,0,1.54072713852,,,,,2015_Sep_27_1225,G,facesParametric,10,59.3997295058,
./stim/MorphF7_02_orig.jpg,88,,,,,0,88,88,88,,,,,,,,,,,,,,,,,,,21.650390625,-12.333984375,0,0,1,1.4734480381,,,,,2015_Sep_27_1225,G,facesParametric,10,59.3997295058,
./stim/MorphF2_03_orig.jpg,89,,,,,0,89,89,89,,,,,,,,,,,,,,,,,,,21.38671875,-12.099609375,0,0,1,3.36666703224,,,,,2015_Sep_27_1225,G,facesParametric,10,59.3997295058,
./stim/MorphF5_08_orig.jpg,90,,,,,0,90,90,90,,,,,,,,,,,,,,,,,,,21.50390625,-13.095703125,1,0,0,0.886121988297,,,,,2015_Sep_27_1225,G,facesParametric,10,59.3997295058,
./stim/MorphM1_03_orig.jpg,91,,,,,0,91,91,91,,,,,,,,,,,,,,,,,,,21.4453125,-12.861328125,0,0,1,1.30607295036,,,,,2015_Sep_27_1225,G,facesParametric,10,59.3997295058,
./stim/MorphF8_05_orig.jpg,92,,,,,0,92,92,92,,,,,,,,,,,,,,,,,,,21.328125,-12.861328125,0,0,1,2.02678203583,,,,,2015_Sep_27_1225,G,facesParametric,10,59.3997295058,
./stim/MorphM7_01_orig.jpg,93,,,,,0,93,93,93,,,,,,,,,,,,,,,,,,,21.15234375,-12.890625,0,0,1,1.89204096794,,,,,2015_Sep_27_1225,G,facesParametric,10,59.3997295058,
./stim/MorphF7_06_orig.jpg,94,,,,,0,94,94,94,,,,,,,,,,,,,,,,,,,18.28125,-13.154296875,0,0,1,5.74725294113,,,,,2015_Sep_27_1225,G,facesParametric,10,59.3997295058,
./stim/MorphF10_00_orig.jpg,95,,,,,0,95,95,95,,,,,,,,,,,,,,,,,,,18.076171875,-13.154296875,0,0,1,0.786684989929,,,,,2015_Sep_27_1225,G,facesParametric,10,59.3997295058,
./stim/MorphM5_05_orig.jpg,96,,,,,0,96,96,96,,,,,,,,,,,,,,,,,,,18.046875,-13.06640625,1,0,0,1.07144999504,,,,,2015_Sep_27_1225,G,facesParametric,10,59.3997295058,
./stim/MorphF2_09_orig.jpg,97,,,,,0,97,97,97,,,,,,,,,,,,,,,,,,,18.22265625,-12.978515625,1,0,0,1.17182207108,,,,,2015_Sep_27_1225,G,facesParametric,10,59.3997295058,
./stim/MorphM1_05_orig.jpg,98,,,,,0,98,98,98,,,,,,,,,,,,,,,,,,,18.251953125,-12.7734375,0,0,1,1.07162690163,,,,,2015_Sep_27_1225,G,facesParametric,10,59.3997295058,
./stim/MorphM4_05_orig.jpg,99,,,,,0,99,99,99,,,,,,,,,,,,,,,,,,,18.1640625,-12.71484375,1,0,0,2.22745394707,,,,,2015_Sep_27_1225,G,facesParametric,10,59.3997295058,
./stim/MorphF7_00_orig.jpg,100,,,,,0,100,100,100,,,,,,,,,,,,,,,,,,,18.22265625,-12.59765625,0,0,1,0.954288005829,,,,,2015_Sep_27_1225,G,facesParametric,10,59.3997295058,
./stim/MorphF6_04_orig.jpg,101,,,,,0,101,101,101,,,,,,,,,,,,,,,,,,,18.134765625,-12.744140625,0,0,1,1.43799185753,,,,,2015_Sep_27_1225,G,facesParametric,10,59.3997295058,
./stim/MorphF3_06_orig.jpg,102,,,,,0,102,102,102,,,,,,,,,,,,,,,,,,,18.22265625,-12.744140625,0,0,1,4.3399810791,,,,,2015_Sep_27_1225,G,facesParametric,10,59.3997295058,
./stim/MorphM3_09_orig.jpg,103,,,,,0,103,103,103,,,,,,,,,,,,,,,,,,,18.193359375,-12.744140625,1,0,0,1.5573861599,,,,,2015_Sep_27_1225,G,facesParametric,10,59.3997295058,
./stim/MorphM6_05_orig.jpg,104,,,,,0,104,104,104,,,,,,,,,,,,,,,,,,,18.22265625,-12.71484375,0,0,1,2.0934920311,,,,,2015_Sep_27_1225,G,facesParametric,10,59.3997295058,
./stim/MorphM2_04_orig.jpg,105,,,,,0,105,105,105,,,,,,,,,,,,,,,,,,,18.10546875,-12.626953125,0,0,1,1.2375600338,,,,,2015_Sep_27_1225,G,facesParametric,10,59.3997295058,
./stim/MorphM1_02_orig.jpg,106,,,,,0,106,106,106,,,,,,,,,,,,,,,,,,,18.193359375,-12.65625,0,0,1,1.18715310097,,,,,2015_Sep_27_1225,G,facesParametric,10,59.3997295058,
./stim/MorphM8_09_orig.jpg,107,,,,,0,107,107,107,,,,,,,,,,,,,,,,,,,18.1640625,-12.685546875,1,0,0,0.970644950867,,,,,2015_Sep_27_1225,G,facesParametric,10,59.3997295058,
./stim/MorphM7_00_orig.jpg,108,,,,,0,108,108,108,,,,,,,,,,,,,,,,,,,18.134765625,-12.65625,0,0,1,1.2559568882,,,,,2015_Sep_27_1225,G,facesParametric,10,59.3997295058,
./stim/MorphF4_10_orig.jpg,109,,,,,0,109,109,109,,,,,,,,,,,,,,,,,,,17.98828125,-12.568359375,1,0,0,0.869627952576,,,,,2015_Sep_27_1225,G,facesParametric,10,59.3997295058,
./stim/MorphM10_00_orig.jpg,110,,,,,0,110,110,110,,,,,,,,,,,,,,,,,,,18.134765625,-12.48046875,0,0,1,1.69166493416,,,,,2015_Sep_27_1225,G,facesParametric,10,59.3997295058,
./stim/MorphF1_00_orig.jpg,111,,,,,0,111,111,111,,,,,,,,,,,,,,,,,,,18.3984375,-12.626953125,0,0,1,1.65721988678,,,,,2015_Sep_27_1225,G,facesParametric,10,59.3997295058,
./stim/MorphM6_06_orig.jpg,112,,,,,0,112,112,112,,,,,,,,,,,,,,,,,,,18.076171875,-13.037109375,0,0,1,7.4731938839,,,,,2015_Sep_27_1225,G,facesParametric,10,59.3997295058,
./stim/MorphF3_02_orig.jpg,113,,,,,0,113,113,113,,,,,,,,,,,,,,,,,,,18.046875,-13.06640625,0,0,1,1.15504813194,,,,,2015_Sep_27_1225,G,facesParametric,10,59.3997295058,
./stim/MorphM8_08_orig.jpg,114,,,,,0,114,114,114,,,,,,,,,,,,,,,,,,,17.958984375,-13.095703125,1,0,0,1.65821194649,,,,,2015_Sep_27_1225,G,facesParametric,10,59.3997295058,
./stim/MorphF1_04_orig.jpg,115,,,,,0,115,115,115,,,,,,,,,,,,,,,,,,,17.98828125,-12.978515625,0,0,1,1.2892229557,,,,,2015_Sep_27_1225,G,facesParametric,10,59.3997295058,
./stim/MorphF2_06_orig.jpg,116,,,,,0,116,116,116,,,,,,,,,,,,,,,,,,,17.9296875,-12.890625,1,0,0,0.802157878876,,,,,2015_Sep_27_1225,G,facesParametric,10,59.3997295058,
./stim/MorphF6_10_orig.jpg,117,,,,,0,117,117,117,,,,,,,,,,,,,,,,,,,17.9296875,-12.890625,1,0,0,0.818295001984,,,,,2015_Sep_27_1225,G,facesParametric,10,59.3997295058,
./stim/MorphM7_06_orig.jpg,118,,,,,0,118,118,118,,,,,,,,,,,,,,,,,,,17.9296875,-12.890625,1,0,0,1.43989300728,,,,,2015_Sep_27_1225,G,facesParametric,10,59.3997295058,
./stim/MorphF1_08_orig.jpg,119,,,,,0,119,119,119,,,,,,,,,,,,,,,,,,,17.8125,-12.71484375,0,0,1,3.66929292679,,,,,2015_Sep_27_1225,G,facesParametric,10,59.3997295058,
./stim/MorphM3_05_orig.jpg,120,,,,,0,120,120,120,,,,,,,,,,,,,,,,,,,17.724609375,-12.802734375,1,0,0,0.853589057922,,,,,2015_Sep_27_1225,G,facesParametric,10,59.3997295058,
./stim/MorphM5_00_orig.jpg,121,,,,,0,121,121,121,,,,,,,,,,,,,,,,,,,15.703125,-13.154296875,0,0,1,3.14821004868,,,,,2015_Sep_27_1225,G,facesParametric,10,59.3997295058,
./stim/MorphF6_08_orig.jpg,122,,,,,0,122,122,122,,,,,,,,,,,,,,,,,,,16.11328125,-13.154296875,1,0,0,1.90957188606,,,,,2015_Sep_27_1225,G,facesParametric,10,59.3997295058,
./stim/MorphF2_07_orig.jpg,123,,,,,0,123,123,123,,,,,,,,,,,,,,,,,,,16.142578125,-13.154296875,1,0,0,1.05454111099,,,,,2015_Sep_27_1225,G,facesParametric,10,59.3997295058,
./stim/MorphF10_07_orig.jpg,124,,,,,0,124,124,124,,,,,,,,,,,,,,,,,,,16.34765625,-13.154296875,1,0,0,0.700976133347,,,,,2015_Sep_27_1225,G,facesParametric,10,59.3997295058,
./stim/MorphF9_04_orig.jpg,125,,,,,0,125,125,125,,,,,,,,,,,,,,,,,,,16.376953125,-13.154296875,0,0,1,1.03786993027,,,,,2015_Sep_27_1225,G,facesParametric,10,59.3997295058,
./stim/MorphM4_02_orig.jpg,126,,,,,0,126,126,126,,,,,,,,,,,,,,,,,,,16.376953125,-13.154296875,0,0,1,1.33743882179,,,,,2015_Sep_27_1225,G,facesParametric,10,59.3997295058,
./stim/MorphF9_08_orig.jpg,127,,,,,0,127,127,127,,,,,,,,,,,,,,,,,,,16.318359375,-13.154296875,1,0,0,1.65810704231,,,,,2015_Sep_27_1225,G,facesParametric,10,59.3997295058,
./stim/MorphM10_01_orig.jpg,128,,,,,0,128,128,128,,,,,,,,,,,,,,,,,,,16.318359375,-13.154296875,0,0,1,0.817823886871,,,,,2015_Sep_27_1225,G,facesParametric,10,59.3997295058,
./stim/MorphF10_06_orig.jpg,129,,,,,0,129,129,129,,,,,,,,,,,,,,,,,,,16.2890625,-13.154296875,1,0,0,1.10475587845,,,,,2015_Sep_27_1225,G,facesParametric,10,59.3997295058,
./stim/MorphM6_01_orig.jpg,130,,,,,0,130,130,130,,,,,,,,,,,,,,,,,,,16.34765625,-13.154296875,0,0,1,6.01513695717,,,,,2015_Sep_27_1225,G,facesParametric,10,59.3997295058,
./stim/MorphF9_09_orig.jpg,131,,,,,0,131,131,131,,,,,,,,,,,,,,,,,,,16.34765625,-13.154296875,1,0,0,1.97394990921,,,,,2015_Sep_27_1225,G,facesParametric,10,59.3997295058,
./stim/MorphM1_10_orig.jpg,132,,,,,0,132,132,132,,,,,,,,,,,,,,,,,,,16.34765625,-13.154296875,1,0,0,2.44647789001,,,,,2015_Sep_27_1225,G,facesParametric,10,59.3997295058,
./stim/MorphF8_08_orig.jpg,133,,,,,0,133,133,133,,,,,,,,,,,,,,,,,,,16.318359375,-13.095703125,1,0,0,0.987322092056,,,,,2015_Sep_27_1225,G,facesParametric,10,59.3997295058,
./stim/MorphM4_01_orig.jpg,134,,,,,0,134,134,134,,,,,,,,,,,,,,,,,,,16.318359375,-13.095703125,0,0,1,1.50722312927,,,,,2015_Sep_27_1225,G,facesParametric,10,59.3997295058,
./stim/MorphF8_06_orig.jpg,135,,,,,0,135,135,135,,,,,,,,,,,,,,,,,,,16.318359375,-13.095703125,0,0,1,2.49583792686,,,,,2015_Sep_27_1225,G,facesParametric,10,59.3997295058,
./stim/MorphF6_05_orig.jpg,136,,,,,0,136,136,136,,,,,,,,,,,,,,,,,,,16.318359375,-13.095703125,1,0,0,0.71951508522,,,,,2015_Sep_27_1225,G,facesParametric,10,59.3997295058,
./stim/MorphM3_00_orig.jpg,137,,,,,0,137,137,137,,,,,,,,,,,,,,,,,,,16.640625,-12.802734375,0,0,1,1.94167494774,,,,,2015_Sep_27_1225,G,facesParametric,10,59.3997295058,
./stim/MorphF9_10_orig.jpg,138,,,,,0,138,138,138,,,,,,,,,,,,,,,,,,,17.197265625,-13.154296875,1,0,0,1.63996005058,,,,,2015_Sep_27_1225,G,facesParametric,10,59.3997295058,
./stim/MorphF10_08_orig.jpg,139,,,,,0,139,139,139,,,,,,,,,,,,,,,,,,,17.138671875,-13.06640625,1,0,0,1.20545506477,,,,,2015_Sep_27_1225,G,facesParametric,10,59.3997295058,
./stim/MorphM7_10_orig.jpg,140,,,,,0,140,140,140,,,,,,,,,,,,,,,,,,,10.1953125,-12.94921875,1,0,0,23.8476150036,,,,,2015_Sep_27_1225,G,facesParametric,10,59.3997295058,
./stim/MorphM10_10_orig.jpg,141,,,,,0,141,141,141,,,,,,,,,,,,,,,,,,,10.1953125,-12.48046875,1,0,0,0.568448066711,,,,,2015_Sep_27_1225,G,facesParametric,10,59.3997295058,
./stim/MorphM3_01_orig.jpg,142,,,,,0,142,142,142,,,,,,,,,,,,,,,,,,,9.873046875,-12.59765625,0,0,1,1.45581912994,,,,,2015_Sep_27_1225,G,facesParametric,10,59.3997295058,
./stim/MorphM8_04_orig.jpg,143,,,,,0,143,143,143,,,,,,,,,,,,,,,,,,,8.5546875,-12.919921875,0,0,1,1.4906308651,,,,,2015_Sep_27_1225,G,facesParametric,10,59.3997295058,
./stim/MorphF7_08_orig.jpg,144,,,,,0,144,144,144,,,,,,,,,,,,,,,,,,,8.37890625,-12.978515625,0,0,1,0.987740039825,,,,,2015_Sep_27_1225,G,facesParametric,10,59.3997295058,
./stim/MorphM2_09_orig.jpg,145,,,,,0,145,145,145,,,,,,,,,,,,,,,,,,,8.14453125,-13.154296875,1,0,0,2.29431390762,,,,,2015_Sep_27_1225,G,facesParametric,10,59.3997295058,
./stim/MorphM4_06_orig.jpg,146,,,,,0,146,146,146,,,,,,,,,,,,,,,,,,,8.0859375,-13.154296875,1,0,0,1.03767299652,,,,,2015_Sep_27_1225,G,facesParametric,10,59.3997295058,
./stim/MorphF8_02_orig.jpg,147,,,,,0,147,147,147,,,,,,,,,,,,,,,,,,,8.0859375,-13.154296875,0,0,1,0.887192964554,,,,,2015_Sep_27_1225,G,facesParametric,10,59.3997295058,
./stim/MorphF1_02_orig.jpg,148,,,,,0,148,148,148,,,,,,,,,,,,,,,,,,,8.056640625,-13.154296875,0,0,1,1.1383960247,,,,,2015_Sep_27_1225,G,facesParametric,10,59.3997295058,
./stim/MorphM7_04_orig.jpg,149,,,,,0,149,149,149,,,,,,,,,,,,,,,,,,,7.79296875,-13.095703125,1,0,0,3.95348596573,,,,,2015_Sep_27_1225,G,facesParametric,10,59.3997295058,
./stim/MorphF3_04_orig.jpg,150,,,,,0,150,150,150,,,,,,,,,,,,,,,,,,,9.66796875,-7.265625,0,0,1,65.9150300026,,,,,2015_Sep_27_1225,G,facesParametric,10,59.3997295058,
./stim/MorphF5_02_orig.jpg,151,,,,,0,151,151,151,,,,,,,,,,,,,,,,,,,10.01953125,-6.591796875,0,0,1,3.51803803444,,,,,2015_Sep_27_1225,G,facesParametric,10,59.3997295058,
./stim/MorphM10_03_orig.jpg,152,,,,,0,152,152,152,,,,,,,,,,,,,,,,,,,13.037109375,-10.078125,0,0,1,15.2318167686,,,,,2015_Sep_27_1225,G,facesParametric,10,59.3997295058,
./stim/MorphM6_00_orig.jpg,153,,,,,0,153,153,153,,,,,,,,,,,,,,,,,,,13.037109375,-9.43359375,0,0,1,5.79777503014,,,,,2015_Sep_27_1225,G,facesParametric,10,59.3997295058,
./stim/MorphF7_04_orig.jpg,154,,,,,0,154,154,154,,,,,,,,,,,,,,,,,,,10.25390625,-6.97265625,1,0,0,2.49584102631,,,,,2015_Sep_27_1225,G,facesParametric,10,59.3997295058,
./stim/MorphM3_10_orig.jpg,155,,,,,0,155,155,155,,,,,,,,,,,,,,,,,,,-21.357421875,-13.154296875,1,0,0,8.47936201096,,,,,2015_Sep_27_1225,G,facesParametric,10,59.3997295058,
./stim/MorphM4_08_orig.jpg,156,,,,,0,156,156,156,,,,,,,,,,,,,,,,,,,-21.357421875,-12.744140625,1,0,0,1.00296711922,,,,,2015_Sep_27_1225,G,facesParametric,10,59.3997295058,
./stim/MorphF5_03_orig.jpg,157,,,,,0,157,157,157,,,,,,,,,,,,,,,,,,,-21.884765625,-12.626953125,0,0,1,1.65788292885,,,,,2015_Sep_27_1225,G,facesParametric,10,59.3997295058,
./stim/MorphF8_00_orig.jpg,158,,,,,0,158,158,158,,,,,,,,,,,,,,,,,,,-21.97265625,-12.685546875,0,0,1,7.43904399872,,,,,2015_Sep_27_1225,G,facesParametric,10,59.3997295058,
./stim/MorphM9_04_orig.jpg,159,,,,,0,159,159,159,,,,,,,,,,,,,,,,,,,-22.001953125,-12.685546875,0,0,1,0.970895051956,,,,,2015_Sep_27_1225,G,facesParametric,10,59.3997295058,
./stim/MorphM5_02_orig.jpg,160,,,,,0,160,160,160,,,,,,,,,,,,,,,,,,,-21.85546875,-12.861328125,0,0,1,6.93682718277,,,,,2015_Sep_27_1225,G,facesParametric,10,59.3997295058,
./stim/MorphF9_03_orig.jpg,161,,,,,0,161,161,161,,,,,,,,,,,,,,,,,,,22.646484375,8.26171875,0,0,1,106.170166016,,,,,2015_Sep_27_1225,G,facesParametric,10,59.3997295058,
./stim/MorphF5_00_orig.jpg,162,,,,,0,162,162,162,,,,,,,,,,,,,,,,,,,22.001953125,8.14453125,0,0,1,2.0770008564,,,,,2015_Sep_27_1225,G,facesParametric,10,59.3997295058,
./stim/MorphM4_09_orig.jpg,163,,,,,0,163,163,163,,,,,,,,,,,,,,,,,,,21.533203125,7.08984375,1,0,0,1.18842220306,,,,,2015_Sep_27_1225,G,facesParametric,10,59.3997295058,
./stim/MorphF3_01_orig.jpg,164,,,,,0,164,164,164,,,,,,,,,,,,,,,,,,,21.474609375,7.412109375,0,0,1,1.12167310715,,,,,2015_Sep_27_1225,G,facesParametric,10,59.3997295058,
./stim/MorphF6_03_orig.jpg,165,,,,,0,165,165,165,,,,,,,,,,,,,,,,,,,21.474609375,6.85546875,0,0,1,1.95829486847,,,,,2015_Sep_27_1225,G,facesParametric,10,59.3997295058,
./stim/MorphF5_04_orig.jpg,166,,,,,0,166,166,166,,,,,,,,,,,,,,,,,,,21.50390625,5.888671875,0,0,1,6.03313708305,,,,,2015_Sep_27_1225,G,facesParametric,10,59.3997295058,
./stim/MorphM6_03_orig.jpg,167,,,,,0,167,167,167,,,,,,,,,,,,,,,,,,,19.6875,7.08984375,0,0,1,12.0476028919,,,,,2015_Sep_27_1225,G,facesParametric,10,59.3997295058,
./stim/MorphF4_05_orig.jpg,168,,,,,0,168,168,168,,,,,,,,,,,,,,,,,,,20.2734375,8.408203125,0,0,1,2.00817513466,,,,,2015_Sep_27_1225,G,facesParametric,10,59.3997295058,
./stim/MorphM10_05_orig.jpg,169,,,,,0,169,169,169,,,,,,,,,,,,,,,,,,,20.2734375,8.4375,1,0,0,0.735000133514,,,,,2015_Sep_27_1225,G,facesParametric,10,59.3997295058,
./stim/MorphF2_01_orig.jpg,170,,,,,0,170,170,170,,,,,,,,,,,,,,,,,,,20.21484375,8.291015625,0,0,1,1.57419800758,,,,,2015_Sep_27_1225,G,facesParametric,10,59.3997295058,
./stim/MorphM9_07_orig.jpg,171,,,,,0,171,171,171,,,,,,,,,,,,,,,,,,,20.126953125,8.291015625,1,0,0,0.85169506073,,,,,2015_Sep_27_1225,G,facesParametric,10,59.3997295058,
./stim/MorphM2_06_orig.jpg,172,,,,,0,172,172,172,,,,,,,,,,,,,,,,,,,20.126953125,8.26171875,1,0,0,1.18886804581,,,,,2015_Sep_27_1225,G,facesParametric,10,59.3997295058,
./stim/MorphF4_00_orig.jpg,173,,,,,0,173,173,173,,,,,,,,,,,,,,,,,,,20.09765625,8.173828125,0,0,1,0.887429952621,,,,,2015_Sep_27_1225,G,facesParametric,10,59.3997295058,
./stim/MorphM5_10_orig.jpg,174,,,,,0,174,174,174,,,,,,,,,,,,,,,,,,,20.068359375,8.056640625,1,0,0,0.903724908829,,,,,2015_Sep_27_1225,G,facesParametric,10,59.3997295058,
./stim/MorphM3_07_orig.jpg,175,,,,,0,175,175,175,,,,,,,,,,,,,,,,,,,20.068359375,8.056640625,1,0,0,1.59098315239,,,,,2015_Sep_27_1225,G,facesParametric,10,59.3997295058,
./stim/MorphM9_01_orig.jpg,176,,,,,0,176,176,176,,,,,,,,,,,,,,,,,,,20.068359375,8.056640625,0,0,1,1.07116699219,,,,,2015_Sep_27_1225,G,facesParametric,10,59.3997295058,
./stim/MorphF2_02_orig.jpg,177,,,,,0,177,177,177,,,,,,,,,,,,,,,,,,,19.98046875,8.02734375,0,0,1,1.35639691353,,,,,2015_Sep_27_1225,G,facesParametric,10,59.3997295058,
./stim/MorphF5_10_orig.jpg,178,,,,,0,178,178,178,,,,,,,,,,,,,,,,,,,19.921875,7.91015625,1,0,0,1.65784978867,,,,,2015_Sep_27_1225,G,facesParametric,10,59.3997295058,
./stim/MorphF10_03_orig.jpg,179,,,,,0,179,179,179,,,,,,,,,,,,,,,,,,,19.86328125,7.91015625,0,0,1,1.95815896988,,,,,2015_Sep_27_1225,G,facesParametric,10,59.3997295058,
./stim/MorphM4_00_orig.jpg,180,,,,,0,180,180,180,,,,,,,,,,,,,,,,,,,19.62890625,7.79296875,0,0,1,1.27210998535,,,,,2015_Sep_27_1225,G,facesParametric,10,59.3997295058,
./stim/MorphM8_10_orig.jpg,181,,,,,0,181,181,181,,,,,,,,,,,,,,,,,,,19.62890625,7.79296875,1,0,0,0.853292942047,,,,,2015_Sep_27_1225,G,facesParametric,10,59.3997295058,
./stim/MorphF1_05_orig.jpg,182,,,,,0,182,182,182,,,,,,,,,,,,,,,,,,,19.658203125,7.763671875,0,0,1,1.23892211914,,,,,2015_Sep_27_1225,G,facesParametric,10,59.3997295058,
./stim/MorphM2_07_orig.jpg,183,,,,,0,183,183,183,,,,,,,,,,,,,,,,,,,19.599609375,7.734375,1,0,0,1.23906183243,,,,,2015_Sep_27_1225,G,facesParametric,10,59.3997295058,
./stim/MorphM3_06_orig.jpg,184,,,,,0,184,184,184,,,,,,,,,,,,,,,,,,,19.599609375,7.734375,1,0,0,0.752794027328,,,,,2015_Sep_27_1225,G,facesParametric,10,59.3997295058,
./stim/MorphM10_09_orig.jpg,185,,,,,0,185,185,185,,,,,,,,,,,,,,,,,,,19.599609375,7.734375,1,0,0,1.15446400642,,,,,2015_Sep_27_1225,G,facesParametric,10,59.3997295058,
./stim/MorphF10_09_orig.jpg,186,,,,,0,186,186,186,,,,,,,,,,,,,,,,,,,19.599609375,7.734375,1,0,0,0.850821018219,,,,,2015_Sep_27_1225,G,facesParametric,10,59.3997295058,
./stim/MorphF7_05_orig.jpg,187,,,,,0,187,187,187,,,,,,,,,,,,,,,,,,,19.599609375,7.734375,0,0,1,0.870239973068,,,,,2015_Sep_27_1225,G,facesParametric,10,59.3997295058,
./stim/MorphF4_09_orig.jpg,188,,,,,0,188,188,188,,,,,,,,,,,,,,,,,,,19.51171875,7.587890625,1,0,0,0.736757040024,,,,,2015_Sep_27_1225,G,facesParametric,10,59.3997295058,
./stim/MorphM3_08_orig.jpg,189,,,,,0,189,189,189,,,,,,,,,,,,,,,,,,,19.16015625,7.119140625,1,0,0,4.03552699089,,,,,2015_Sep_27_1225,G,facesParametric,10,59.3997295058,
./stim/MorphM4_10_orig.jpg,190,,,,,0,190,190,190,,,,,,,,,,,,,,,,,,,19.16015625,7.119140625,1,0,0,0.819863080978,,,,,2015_Sep_27_1225,G,facesParametric,10,59.3997295058,
./stim/MorphF5_06_orig.jpg,191,,,,,0,191,191,191,,,,,,,,,,,,,,,,,,,19.248046875,7.44140625,1,0,0,1.16972589493,,,,,2015_Sep_27_1225,G,facesParametric,10,59.3997295058,
./stim/MorphM1_06_orig.jpg,192,,,,,0,192,192,192,,,,,,,,,,,,,,,,,,,19.248046875,7.44140625,1,0,0,2.27798700333,,,,,2015_Sep_27_1225,G,facesParametric,10,59.3997295058,
./stim/MorphF4_02_orig.jpg,193,,,,,0,193,193,193,,,,,,,,,,,,,,,,,,,19.248046875,7.44140625,0,0,1,1.45718002319,,,,,2015_Sep_27_1225,G,facesParametric,10,59.3997295058,
./stim/MorphF8_04_orig.jpg,194,,,,,0,194,194,194,,,,,,,,,,,,,,,,,,,19.248046875,7.44140625,0,0,1,0.853539943695,,,,,2015_Sep_27_1225,G,facesParametric,10,59.3997295058,
./stim/MorphM9_09_orig.jpg,195,,,,,0,195,195,195,,,,,,,,,,,,,,,,,,,19.16015625,7.5,1,0,0,0.752794027328,,,,,2015_Sep_27_1225,G,facesParametric,10,59.3997295058,
./stim/MorphM1_08_orig.jpg,196,,,,,0,196,196,196,,,,,,,,,,,,,,,,,,,19.189453125,7.470703125,1,0,0,1.47264909744,,,,,2015_Sep_27_1225,G,facesParametric,10,59.3997295058,
./stim/MorphF3_07_orig.jpg,197,,,,,0,197,197,197,,,,,,,,,,,,,,,,,,,19.189453125,7.470703125,1,0,0,3.08244895935,,,,,2015_Sep_27_1225,G,facesParametric,10,59.3997295058,
./stim/MorphM3_04_orig.jpg,198,,,,,0,198,198,198,,,,,,,,,,,,,,,,,,,19.189453125,7.470703125,1,0,0,0.652627944946,,,,,2015_Sep_27_1225,G,facesParametric,10,59.3997295058,
./stim/MorphF10_10_orig.jpg,199,,,,,0,199,199,199,,,,,,,,,,,,,,,,,,,19.189453125,7.5,1,0,0,0.717965841293,,,,,2015_Sep_27_1225,G,facesParametric,10,59.3997295058,
./stim/MorphF6_09_orig.jpg,200,,,,,0,200,200,200,,,,,,,,,,,,,,,,,,,19.21875,7.470703125,1,0,0,0.685446023941,,,,,2015_Sep_27_1225,G,facesParametric,10,59.3997295058,
./stim/MorphM6_04_orig.jpg,201,,,,,0,201,201,201,,,,,,,,,,,,,,,,,,,19.21875,7.470703125,0,0,1,2.22642397881,,,,,2015_Sep_27_1225,G,facesParametric,10,59.3997295058,
./stim/MorphM7_08_orig.jpg,202,,,,,0,202,202,202,,,,,,,,,,,,,,,,,,,20.7421875,3.69140625,1,0,0,2.36212611198,,,,,2015_Sep_27_1225,G,facesParametric,10,59.3997295058,
./stim/MorphM1_01_orig.jpg,203,,,,,0,203,203,203,,,,,,,,,,,,,,,,,,,18.662109375,-1.259765625,0,0,1,0.935527801514,,,,,2015_Sep_27_1225,G,facesParametric,10,59.3997295058,
./stim/MorphM9_00_orig.jpg,204,,,,,0,204,204,204,,,,,,,,,,,,,,,,,,,18.603515625,-1.640625,0,0,1,0.869801044464,,,,,2015_Sep_27_1225,G,facesParametric,10,59.3997295058,
./stim/MorphF5_01_orig.jpg,205,,,,,0,205,205,205,,,,,,,,,,,,,,,,,,,18.6328125,-2.109375,0,0,1,1.80858111382,,,,,2015_Sep_27_1225,G,facesParametric,10,59.3997295058,
./stim/MorphF7_07_orig.jpg,206,,,,,0,206,206,206,,,,,,,,,,,,,,,,,,,18.57421875,-2.16796875,1,0,0,0.751910924911,,,,,2015_Sep_27_1225,G,facesParametric,10,59.3997295058,
./stim/MorphF3_09_orig.jpg,207,,,,,0,207,207,207,,,,,,,,,,,,,,,,,,,18.720703125,-2.16796875,1,0,0,0.78618979454,,,,,2015_Sep_27_1225,G,facesParametric,10,59.3997295058,
./stim/MorphF9_06_orig.jpg,208,,,,,0,208,208,208,,,,,,,,,,,,,,,,,,,18.720703125,-2.255859375,0,0,1,2.36229085922,,,,,2015_Sep_27_1225,G,facesParametric,10,59.3997295058,
./stim/MorphF4_07_orig.jpg,209,,,,,0,209,209,209,,,,,,,,,,,,,,,,,,,18.662109375,-2.578125,1,0,0,0.903707027435,,,,,2015_Sep_27_1225,G,facesParametric,10,59.3997295058,
./stim/MorphM4_07_orig.jpg,210,,,,,0,210,210,210,,,,,,,,,,,,,,,,,,,18.662109375,-2.607421875,1,0,0,0.85355591774,,,,,2015_Sep_27_1225,G,facesParametric,10,59.3997295058,
./stim/MorphM8_03_orig.jpg,211,,,,,0,211,211,211,,,,,,,,,,,,,,,,,,,19.365234375,-2.8125,1,0,0,2.89816212654,,,,,2015_Sep_27_1225,G,facesParametric,10,59.3997295058,
./stim/MorphM2_05_orig.jpg,212,,,,,0,212,212,212,,,,,,,,,,,,,,,,,,,19.365234375,-2.8125,0,0,1,1.11952900887,,,,,2015_Sep_27_1225,G,facesParametric,10,59.3997295058,
./stim/MorphF9_07_orig.jpg,213,,,,,0,213,213,213,,,,,,,,,,,,,,,,,,,19.423828125,-2.87109375,1,0,0,1.2056081295,,,,,2015_Sep_27_1225,G,facesParametric,10,59.3997295058,
./stim/MorphM9_08_orig.jpg,214,,,,,0,214,214,214,,,,,,,,,,,,,,,,,,,19.51171875,-2.9296875,1,0,0,1.12057709694,,,,,2015_Sep_27_1225,G,facesParametric,10,59.3997295058,
./stim/MorphF9_02_orig.jpg,215,,,,,0,215,215,215,,,,,,,,,,,,,,,,,,,19.62890625,-2.98828125,0,0,1,0.88683795929,,,,,2015_Sep_27_1225,G,facesParametric,10,59.3997295058,
./stim/MorphF4_08_orig.jpg,216,,,,,0,216,216,216,,,,,,,,,,,,,,,,,,,19.658203125,-3.017578125,1,0,0,0.78641295433,,,,,2015_Sep_27_1225,G,facesParametric,10,59.3997295058,
./stim/MorphF3_08_orig.jpg,217,,,,,0,217,217,217,,,,,,,,,,,,,,,,,,,19.658203125,-3.017578125,1,0,0,1.97625613213,,,,,2015_Sep_27_1225,G,facesParametric,10,59.3997295058,
./stim/MorphM10_07_orig.jpg,218,,,,,0,218,218,218,,,,,,,,,,,,,,,,,,,19.658203125,-3.017578125,1,0,0,0.719466924667,,,,,2015_Sep_27_1225,G,facesParametric,10,59.3997295058,
./stim/MorphF3_00_orig.jpg,219,,,,,0,219,219,219,,,,,,,,,,,,,,,,,,,19.716796875,-3.017578125,0,0,1,0.886549949646,,,,,2015_Sep_27_1225,G,facesParametric,10,59.3997295058,
,,,,,,,,,,,,,,,,,,,,,,,,,,,,,,,,,,return,235.306191921,,,2015_Sep_27_1225,G,facesParametric,10,59.3997295058,
./stim/MorphM3_01_orig.jpg,0,,,,,,,,,0,0,0,0,,,,,,,,,,,,,,,21.38671875,11.30859375,0,0,1,1.09305405617,,,,,2015_Sep_27_1225,G,facesParametric,10,59.3997295058,
./stim/MorphM6_06_orig.jpg,1,,,,,,,,,0,1,1,1,,,,,,,,,,,,,,,21.09375,10.283203125,0,0,1,5.15983605385,,,,,2015_Sep_27_1225,G,facesParametric,10,59.3997295058,
./stim/MorphF9_08_orig.jpg,2,,,,,,,,,0,2,2,2,,,,,,,,,,,,,,,21.62109375,10.48828125,1,0,0,1.38943219185,,,,,2015_Sep_27_1225,G,facesParametric,10,59.3997295058,
./stim/MorphF1_00_orig.jpg,3,,,,,,,,,0,3,3,3,,,,,,,,,,,,,,,20.888671875,9.169921875,0,0,1,1.92616987228,,,,,2015_Sep_27_1225,G,facesParametric,10,59.3997295058,
./stim/MorphM6_07_orig.jpg,4,,,,,,,,,0,4,4,4,,,,,,,,,,,,,,,20.80078125,8.466796875,1,0,0,1.6076169014,,,,,2015_Sep_27_1225,G,facesParametric,10,59.3997295058,
./stim/MorphF8_01_orig.jpg,5,,,,,,,,,0,5,5,5,,,,,,,,,,,,,,,20.888671875,8.349609375,0,0,1,1.2387239933,,,,,2015_Sep_27_1225,G,facesParametric,10,59.3997295058,
./stim/MorphF3_08_orig.jpg,6,,,,,,,,,0,6,6,6,,,,,,,,,,,,,,,20.771484375,8.02734375,1,0,0,2.52979111671,,,,,2015_Sep_27_1225,G,facesParametric,10,59.3997295058,
./stim/MorphF5_05_orig.jpg,7,,,,,,,,,0,7,7,7,,,,,,,,,,,,,,,20.771484375,8.02734375,1,0,0,0.971049070358,,,,,2015_Sep_27_1225,G,facesParametric,10,59.3997295058,
./stim/MorphF9_03_orig.jpg,8,,,,,,,,,0,8,8,8,,,,,,,,,,,,,,,20.771484375,8.02734375,0,0,1,0.853178977966,,,,,2015_Sep_27_1225,G,facesParametric,10,59.3997295058,
./stim/MorphM3_04_orig.jpg,9,,,,,,,,,0,9,9,9,,,,,,,,,,,,,,,20.771484375,8.02734375,1,0,0,0.786004066467,,,,,2015_Sep_27_1225,G,facesParametric,10,59.3997295058,
./stim/MorphF9_06_orig.jpg,10,,,,,,,,,0,10,10,10,,,,,,,,,,,,,,,20.7421875,7.96875,0,0,1,2.84735417366,,,,,2015_Sep_27_1225,G,facesParametric,10,59.3997295058,
./stim/MorphM9_06_orig.jpg,11,,,,,,,,,0,11,11,11,,,,,,,,,,,,,,,20.712890625,7.91015625,0,0,1,1.58888483047,,,,,2015_Sep_27_1225,G,facesParametric,10,59.3997295058,
./stim/MorphM1_00_orig.jpg,12,,,,,,,,,0,12,12,12,,,,,,,,,,,,,,,20.712890625,7.91015625,0,0,1,0.81959104538,,,,,2015_Sep_27_1225,G,facesParametric,10,59.3997295058,
./stim/MorphM6_10_orig.jpg,13,,,,,,,,,0,13,13,13,,,,,,,,,,,,,,,20.654296875,7.880859375,1,0,0,0.770023107529,,,,,2015_Sep_27_1225,G,facesParametric,10,59.3997295058,
./stim/MorphM1_05_orig.jpg,14,,,,,,,,,0,14,14,14,,,,,,,,,,,,,,,20.654296875,7.880859375,0,0,1,1.25574398041,,,,,2015_Sep_27_1225,G,facesParametric,10,59.3997295058,
./stim/MorphF6_09_orig.jpg,15,,,,,,,,,0,15,15,15,,,,,,,,,,,,,,,20.654296875,7.880859375,1,0,0,0.5688560009,,,,,2015_Sep_27_1225,G,facesParametric,10,59.3997295058,
./stim/MorphM8_02_orig.jpg,16,,,,,,,,,0,16,16,16,,,,,,,,,,,,,,,20.625,7.8515625,1,0,0,1.85761785507,,,,,2015_Sep_27_1225,G,facesParametric,10,59.3997295058,
./stim/MorphM2_07_orig.jpg,17,,,,,,,,,0,17,17,17,,,,,,,,,,,,,,,20.625,7.8515625,1,0,0,1.9415538311,,,,,2015_Sep_27_1225,G,facesParametric,10,59.3997295058,
./stim/MorphM8_07_orig.jpg,18,,,,,,,,,0,18,18,18,,,,,,,,,,,,,,,20.625,7.8515625,1,0,0,0.583989858627,,,,,2015_Sep_27_1225,G,facesParametric,10,59.3997295058,
./stim/MorphF7_03_orig.jpg,19,,,,,,,,,0,19,19,19,,,,,,,,,,,,,,,20.625,7.8515625,0,0,1,1.37342596054,,,,,2015_Sep_27_1225,G,facesParametric,10,59.3997295058,
./stim/MorphF1_07_orig.jpg,20,,,,,,,,,0,20,20,20,,,,,,,,,,,,,,,20.625,7.8515625,0,0,1,1.07094907761,,,,,2015_Sep_27_1225,G,facesParametric,10,59.3997295058,
./stim/MorphF4_10_orig.jpg,21,,,,,,,,,0,21,21,21,,,,,,,,,,,,,,,20.595703125,7.822265625,1,0,0,0.652631998062,,,,,2015_Sep_27_1225,G,facesParametric,10,59.3997295058,
./stim/MorphM1_10_orig.jpg,22,,,,,,,,,0,22,22,22,,,,,,,,,,,,,,,20.595703125,7.8515625,0,0,1,1.03704786301,,,,,2015_Sep_27_1225,G,facesParametric,10,59.3997295058,
./stim/MorphM4_10_orig.jpg,23,,,,,,,,,0,23,23,23,,,,,,,,,,,,,,,20.5078125,7.67578125,1,0,0,0.803458213806,,,,,2015_Sep_27_1225,G,facesParametric,10,59.3997295058,
./stim/MorphM1_09_orig.jpg,24,,,,,,,,,0,24,24,24,,,,,,,,,,,,,,,20.44921875,7.79296875,1,0,0,0.836601018906,,,,,2015_Sep_27_1225,G,facesParametric,10,59.3997295058,
./stim/MorphM2_03_orig.jpg,25,,,,,,,,,0,25,25,25,,,,,,,,,,,,,,,20.244140625,7.734375,0,0,1,1.08777284622,,,,,2015_Sep_27_1225,G,facesParametric,10,59.3997295058,
./stim/MorphF4_02_orig.jpg,26,,,,,,,,,0,26,26,26,,,,,,,,,,,,,,,19.248046875,5.09765625,0,0,1,1.97753286362,,,,,2015_Sep_27_1225,G,facesParametric,10,59.3997295058,
./stim/MorphF10_10_orig.jpg,27,,,,,,,,,0,27,27,27,,,,,,,,,,,,,,,19.541015625,5.0390625,1,0,0,0.698250055313,,,,,2015_Sep_27_1225,G,facesParametric,10,59.3997295058,
./stim/MorphF3_02_orig.jpg,28,,,,,,,,,0,28,28,28,,,,,,,,,,,,,,,19.51171875,5.15625,0,0,1,1.68963503838,,,,,2015_Sep_27_1225,G,facesParametric,10,59.3997295058,
./stim/MorphM2_02_orig.jpg,29,,,,,,,,,0,29,29,29,,,,,,,,,,,,,,,19.482421875,4.658203125,0,0,1,1.08655905724,,,,,2015_Sep_27_1225,G,facesParametric,10,59.3997295058,
./stim/MorphF7_10_orig.jpg,30,,,,,,,,,0,30,30,30,,,,,,,,,,,,,,,19.365234375,4.3359375,1,0,0,0.836720943451,,,,,2015_Sep_27_1225,G,facesParametric,10,59.3997295058,
./stim/MorphM5_04_orig.jpg,31,,,,,,,,,0,31,31,31,,,,,,,,,,,,,,,19.39453125,4.04296875,0,0,1,1.52298402786,,,,,2015_Sep_27_1225,G,facesParametric,10,59.3997295058,
./stim/MorphF10_09_orig.jpg,32,,,,,,,,,0,32,32,32,,,,,,,,,,,,,,,19.189453125,3.92578125,1,0,0,0.803297996521,,,,,2015_Sep_27_1225,G,facesParametric,10,59.3997295058,
./stim/MorphM1_08_orig.jpg,33,,,,,,,,,0,33,33,33,,,,,,,,,,,,,,,19.27734375,3.837890625,1,0,0,2.52913689613,,,,,2015_Sep_27_1225,G,facesParametric,10,59.3997295058,
./stim/MorphM8_09_orig.jpg,34,,,,,,,,,0,34,34,34,,,,,,,,,,,,,,,19.365234375,3.75,1,0,0,0.752106904984,,,,,2015_Sep_27_1225,G,facesParametric,10,59.3997295058,
./stim/MorphM10_00_orig.jpg,35,,,,,,,,,0,35,35,35,,,,,,,,,,,,,,,19.306640625,3.80859375,0,0,1,0.786597967148,,,,,2015_Sep_27_1225,G,facesParametric,10,59.3997295058,
./stim/MorphM3_06_orig.jpg,36,,,,,,,,,0,36,36,36,,,,,,,,,,,,,,,19.248046875,3.662109375,1,0,0,0.753401041031,,,,,2015_Sep_27_1225,G,facesParametric,10,59.3997295058,
./stim/MorphM7_08_orig.jpg,37,,,,,,,,,0,37,37,37,,,,,,,,,,,,,,,19.27734375,3.603515625,1,0,0,0.568075180054,,,,,2015_Sep_27_1225,G,facesParametric,10,59.3997295058,
./stim/MorphM5_09_orig.jpg,38,,,,,,,,,0,38,38,38,,,,,,,,,,,,,,,19.248046875,3.57421875,1,0,0,0.786427974701,,,,,2015_Sep_27_1225,G,facesParametric,10,59.3997295058,
./stim/MorphF4_08_orig.jpg,39,,,,,,,,,0,39,39,39,,,,,,,,,,,,,,,19.248046875,3.57421875,1,0,0,0.719238996506,,,,,2015_Sep_27_1225,G,facesParametric,10,59.3997295058,
./stim/MorphF3_03_orig.jpg,40,,,,,,,,,0,40,40,40,,,,,,,,,,,,,,,19.27734375,3.544921875,0,0,1,0.886914014816,,,,,2015_Sep_27_1225,G,facesParametric,10,59.3997295058,
./stim/MorphF7_00_orig.jpg,41,,,,,,,,,0,41,41,41,,,,,,,,,,,,,,,19.27734375,3.486328125,0,0,1,1.32268285751,,,,,2015_Sep_27_1225,G,facesParametric,10,59.3997295058,
./stim/MorphM3_10_orig.jpg,42,,,,,,,,,0,42,42,42,,,,,,,,,,,,,,,19.27734375,3.369140625,1,0,0,0.652167081833,,,,,2015_Sep_27_1225,G,facesParametric,10,59.3997295058,
./stim/MorphF9_04_orig.jpg,43,,,,,,,,,0,43,43,43,,,,,,,,,,,,,,,19.248046875,3.33984375,0,0,1,1.45559501648,,,,,2015_Sep_27_1225,G,facesParametric,10,59.3997295058,
./stim/MorphF6_05_orig.jpg,44,,,,,,,,,0,44,44,44,,,,,,,,,,,,,,,19.248046875,3.33984375,1,0,0,0.669239997864,,,,,2015_Sep_27_1225,G,facesParametric,10,59.3997295058,
./stim/MorphM5_10_orig.jpg,45,,,,,,,,,0,45,45,45,,,,,,,,,,,,,,,19.21875,3.369140625,1,0,0,0.868051052094,,,,,2015_Sep_27_1225,G,facesParametric,10,59.3997295058,
./stim/MorphF5_09_orig.jpg,46,,,,,,,,,0,46,46,46,,,,,,,,,,,,,,,19.21875,3.310546875,1,0,0,0.969824075699,,,,,2015_Sep_27_1225,G,facesParametric,10,59.3997295058,
./stim/MorphF6_06_orig.jpg,47,,,,,,,,,0,47,47,47,,,,,,,,,,,,,,,19.248046875,3.28125,1,0,0,0.700224876404,,,,,2015_Sep_27_1225,G,facesParametric,10,59.3997295058,
./stim/MorphM9_02_orig.jpg,48,,,,,,,,,0,48,48,48,,,,,,,,,,,,,,,19.248046875,3.28125,0,0,1,1.37193083763,,,,,2015_Sep_27_1225,G,facesParametric,10,59.3997295058,
./stim/MorphF3_01_orig.jpg,49,,,,,,,,,0,49,49,49,,,,,,,,,,,,,,,19.189453125,3.1640625,0,0,1,1.94263410568,,,,,2015_Sep_27_1225,G,facesParametric,10,59.3997295058,
./stim/MorphF1_08_orig.jpg,50,,,,,,,,,0,50,50,50,,,,,,,,,,,,,,,19.16015625,3.22265625,1,0,0,2.16090011597,,,,,2015_Sep_27_1225,G,facesParametric,10,59.3997295058,
./stim/MorphM4_03_orig.jpg,51,,,,,,,,,0,51,51,51,,,,,,,,,,,,,,,19.189453125,3.22265625,0,0,1,0.885226964951,,,,,2015_Sep_27_1225,G,facesParametric,10,59.3997295058,
./stim/MorphF3_05_orig.jpg,52,,,,,,,,,0,52,52,52,,,,,,,,,,,,,,,19.130859375,3.193359375,0,0,1,1.10469102859,,,,,2015_Sep_27_1225,G,facesParametric,10,59.3997295058,
./stim/MorphM4_08_orig.jpg,53,,,,,,,,,0,53,53,53,,,,,,,,,,,,,,,19.072265625,3.134765625,1,0,0,0.635722160339,,,,,2015_Sep_27_1225,G,facesParametric,10,59.3997295058,
./stim/MorphM10_06_orig.jpg,54,,,,,,,,,0,54,54,54,,,,,,,,,,,,,,,19.072265625,3.28125,1,0,0,1.13729786873,,,,,2015_Sep_27_1225,G,facesParametric,10,59.3997295058,
./stim/MorphF10_03_orig.jpg,55,,,,,,,,,0,55,55,55,,,,,,,,,,,,,,,19.306640625,3.28125,0,0,1,2.62920093536,,,,,2015_Sep_27_1225,G,facesParametric,10,59.3997295058,
./stim/MorphM6_09_orig.jpg,56,,,,,,,,,0,56,56,56,,,,,,,,,,,,,,,19.306640625,3.33984375,1,0,0,0.635207176208,,,,,2015_Sep_27_1225,G,facesParametric,10,59.3997295058,
./stim/MorphM4_04_orig.jpg,57,,,,,,,,,0,57,57,57,,,,,,,,,,,,,,,19.16015625,3.251953125,0,0,1,1.25540590286,,,,,2015_Sep_27_1225,G,facesParametric,10,59.3997295058,
./stim/MorphF9_01_orig.jpg,58,,,,,,,,,0,58,58,58,,,,,,,,,,,,,,,18.92578125,2.666015625,0,0,1,0.918491125107,,,,,2015_Sep_27_1225,G,facesParametric,10,59.3997295058,
./stim/MorphM7_07_orig.jpg,59,,,,,,,,,0,59,59,59,,,,,,,,,,,,,,,19.3359375,2.05078125,1,0,0,0.803134918213,,,,,2015_Sep_27_1225,G,facesParametric,10,59.3997295058,
./stim/MorphF9_07_orig.jpg,60,,,,,,,,,0,60,60,60,,,,,,,,,,,,,,,19.39453125,2.138671875,1,0,0,0.936996221542,,,,,2015_Sep_27_1225,G,facesParametric,10,59.3997295058,
./stim/MorphF3_06_orig.jpg,61,,,,,,,,,0,61,61,61,,,,,,,,,,,,,,,19.658203125,2.2265625,1,0,0,2.16088485718,,,,,2015_Sep_27_1225,G,facesParametric,10,59.3997295058,
./stim/MorphF7_08_orig.jpg,62,,,,,,,,,0,62,62,62,,,,,,,,,,,,,,,19.775390625,2.255859375,1,0,0,0.853197813034,,,,,2015_Sep_27_1225,G,facesParametric,10,59.3997295058,
./stim/MorphF9_00_orig.jpg,63,,,,,,,,,0,63,63,63,,,,,,,,,,,,,,,19.892578125,2.2265625,0,0,1,1.42330288887,,,,,2015_Sep_27_1225,G,facesParametric,10,59.3997295058,
./stim/MorphM10_08_orig.jpg,64,,,,,,,,,0,64,64,64,,,,,,,,,,,,,,,19.775390625,1.611328125,1,0,0,0.685993909836,,,,,2015_Sep_27_1225,G,facesParametric,10,59.3997295058,
./stim/MorphF2_07_orig.jpg,65,,,,,,,,,0,65,65,65,,,,,,,,,,,,,,,19.775390625,1.640625,1,0,0,0.619375944138,,,,,2015_Sep_27_1225,G,facesParametric,10,59.3997295058,
./stim/MorphM9_01_orig.jpg,66,,,,,,,,,0,66,66,66,,,,,,,,,,,,,,,19.775390625,1.7578125,0,0,1,0.786664009094,,,,,2015_Sep_27_1225,G,facesParametric,10,59.3997295058,
./stim/MorphM2_01_orig.jpg,67,,,,,,,,,0,67,67,67,,,,,,,,,,,,,,,19.658203125,1.787109375,0,0,1,1.00428986549,,,,,2015_Sep_27_1225,G,facesParametric,10,59.3997295058,
./stim/MorphF4_00_orig.jpg,68,,,,,,,,,0,68,68,68,,,,,,,,,,,,,,,19.5703125,1.7578125,0,0,1,1.05408596992,,,,,2015_Sep_27_1225,G,facesParametric,10,59.3997295058,
./stim/MorphF5_03_orig.jpg,69,,,,,,,,,0,69,69,69,,,,,,,,,,,,,,,19.423828125,1.787109375,0,0,1,2.61328411102,,,,,2015_Sep_27_1225,G,facesParametric,10,59.3997295058,
./stim/MorphF8_00_orig.jpg,70,,,,,,,,,0,70,70,70,,,,,,,,,,,,,,,19.306640625,1.81640625,0,0,1,1.15548706055,,,,,2015_Sep_27_1225,G,facesParametric,10,59.3997295058,
./stim/MorphM3_05_orig.jpg,71,,,,,,,,,0,71,71,71,,,,,,,,,,,,,,,19.21875,1.787109375,1,0,0,1.00409793854,,,,,2015_Sep_27_1225,G,facesParametric,10,59.3997295058,
./stim/MorphM7_01_orig.jpg,72,,,,,,,,,0,72,72,72,,,,,,,,,,,,,,,19.21875,1.787109375,0,0,1,1.08794999123,,,,,2015_Sep_27_1225,G,facesParametric,10,59.3997295058,
./stim/MorphM5_05_orig.jpg,73,,,,,,,,,0,73,73,73,,,,,,,,,,,,,,,19.130859375,1.787109375,1,0,0,1.89261388779,,,,,2015_Sep_27_1225,G,facesParametric,10,59.3997295058,
./stim/MorphF2_04_orig.jpg,74,,,,,,,,,0,74,74,74,,,,,,,,,,,,,,,19.130859375,1.787109375,1,0,0,0.870059013367,,,,,2015_Sep_27_1225,G,facesParametric,10,59.3997295058,
./stim/MorphF8_09_orig.jpg,75,,,,,,,,,0,75,75,75,,,,,,,,,,,,,,,19.130859375,1.81640625,1,0,0,0.702743053436,,,,,2015_Sep_27_1225,G,facesParametric,10,59.3997295058,
./stim/MorphF6_07_orig.jpg,76,,,,,,,,,0,76,76,76,,,,,,,,,,,,,,,19.1015625,1.845703125,1,0,0,0.635627985001,,,,,2015_Sep_27_1225,G,facesParametric,10,59.3997295058,
./stim/MorphM6_02_orig.jpg,77,,,,,,,,,0,77,77,77,,,,,,,,,,,,,,,19.04296875,1.81640625,0,0,1,0.88770198822,,,,,2015_Sep_27_1225,G,facesParametric,10,59.3997295058,
./stim/MorphF10_06_orig.jpg,78,,,,,,,,,0,78,78,78,,,,,,,,,,,,,,,18.955078125,1.81640625,1,0,0,0.649291038513,,,,,2015_Sep_27_1225,G,facesParametric,10,59.3997295058,
./stim/MorphF5_07_orig.jpg,79,,,,,,,,,0,79,79,79,,,,,,,,,,,,,,,19.130859375,1.669921875,1,0,0,2.11066794395,,,,,2015_Sep_27_1225,G,facesParametric,10,59.3997295058,
./stim/MorphF2_08_orig.jpg,80,,,,,,,,,0,80,80,80,,,,,,,,,,,,,,,19.365234375,1.93359375,1,0,0,0.702709913254,,,,,2015_Sep_27_1225,G,facesParametric,10,59.3997295058,
./stim/MorphM1_03_orig.jpg,81,,,,,,,,,0,81,81,81,,,,,,,,,,,,,,,19.306640625,1.69921875,0,0,1,0.717247009277,,,,,2015_Sep_27_1225,G,facesParametric,10,59.3997295058,
./stim/MorphM8_08_orig.jpg,82,,,,,,,,,0,82,82,82,,,,,,,,,,,,,,,19.21875,1.611328125,1,0,0,0.719732046127,,,,,2015_Sep_27_1225,G,facesParametric,10,59.3997295058,
./stim/MorphF7_09_orig.jpg,83,,,,,,,,,0,83,83,83,,,,,,,,,,,,,,,19.306640625,1.142578125,1,0,0,0.651808023453,,,,,2015_Sep_27_1225,G,facesParametric,10,59.3997295058,
./stim/MorphM2_05_orig.jpg,84,,,,,,,,,0,84,84,84,,,,,,,,,,,,,,,19.3359375,1.0546875,0,0,1,0.91969704628,,,,,2015_Sep_27_1225,G,facesParametric,10,59.3997295058,
./stim/MorphM4_05_orig.jpg,85,,,,,,,,,0,85,85,85,,,,,,,,,,,,,,,19.306640625,0.17578125,1,0,0,0.786304950714,,,,,2015_Sep_27_1225,G,facesParametric,10,59.3997295058,
./stim/MorphF1_05_orig.jpg,86,,,,,,,,,0,86,86,86,,,,,,,,,,,,,,,19.248046875,-0.17578125,0,0,1,2.39566206932,,,,,2015_Sep_27_1225,G,facesParametric,10,59.3997295058,
./stim/MorphM2_04_orig.jpg,87,,,,,,,,,0,87,87,87,,,,,,,,,,,,,,,19.248046875,-0.29296875,0,0,1,1.1717710495,,,,,2015_Sep_27_1225,G,facesParametric,10,59.3997295058,
./stim/MorphM10_05_orig.jpg,88,,,,,,,,,0,88,88,88,,,,,,,,,,,,,,,19.21875,-1.171875,1,0,0,3.41753602028,,,,,2015_Sep_27_1225,G,facesParametric,10,59.3997295058,
./stim/MorphM9_10_orig.jpg,89,,,,,,,,,0,89,89,89,,,,,,,,,,,,,,,19.248046875,-1.201171875,1,0,0,0.68617606163,,,,,2015_Sep_27_1225,G,facesParametric,10,59.3997295058,
./stim/MorphF5_10_orig.jpg,90,,,,,,,,,0,90,90,90,,,,,,,,,,,,,,,19.3359375,-1.34765625,1,0,0,0.652240037918,,,,,2015_Sep_27_1225,G,facesParametric,10,59.3997295058,
./stim/MorphF9_02_orig.jpg,91,,,,,,,,,0,91,91,91,,,,,,,,,,,,,,,19.39453125,-1.259765625,0,0,1,0.887017011642,,,,,2015_Sep_27_1225,G,facesParametric,10,59.3997295058,
./stim/MorphM4_01_orig.jpg,92,,,,,,,,,0,92,92,92,,,,,,,,,,,,,,,19.21875,-1.376953125,0,0,1,1.12146282196,,,,,2015_Sep_27_1225,G,facesParametric,10,59.3997295058,
./stim/MorphM10_09_orig.jpg,93,,,,,,,,,0,93,93,93,,,,,,,,,,,,,,,19.16015625,-1.435546875,1,0,0,0.602238178253,,,,,2015_Sep_27_1225,G,facesParametric,10,59.3997295058,
./stim/MorphM7_04_orig.jpg,94,,,,,,,,,0,94,94,94,,,,,,,,,,,,,,,19.189453125,-1.259765625,1,0,0,1.23890399933,,,,,2015_Sep_27_1225,G,facesParametric,10,59.3997295058,
./stim/MorphF10_00_orig.jpg,95,,,,,,,,,0,95,95,95,,,,,,,,,,,,,,,19.130859375,-1.11328125,0,0,1,1.13850688934,,,,,2015_Sep_27_1225,G,facesParametric,10,59.3997295058,
./stim/MorphF3_07_orig.jpg,96,,,,,,,,,0,96,96,96,,,,,,,,,,,,,,,19.16015625,-1.669921875,1,0,0,1.59103918076,,,,,2015_Sep_27_1225,G,facesParametric,10,59.3997295058,
./stim/MorphM5_01_orig.jpg,97,,,,,,,,,0,97,97,97,,,,,,,,,,,,,,,19.16015625,-1.669921875,0,0,1,1.13802504539,,,,,2015_Sep_27_1225,G,facesParametric,10,59.3997295058,
./stim/MorphM9_08_orig.jpg,98,,,,,,,,,0,98,98,98,,,,,,,,,,,,,,,19.130859375,-1.640625,1,0,0,0.803305864334,,,,,2015_Sep_27_1225,G,facesParametric,10,59.3997295058,
./stim/MorphM2_10_orig.jpg,99,,,,,,,,,0,99,99,99,,,,,,,,,,,,,,,19.130859375,-1.640625,1,0,0,0.786702156067,,,,,2015_Sep_27_1225,G,facesParametric,10,59.3997295058,
./stim/MorphM8_05_orig.jpg,100,,,,,,,,,0,100,100,100,,,,,,,,,,,,,,,19.1015625,-1.69921875,1,0,0,2.11007094383,,,,,2015_Sep_27_1225,G,facesParametric,10,59.3997295058,
./stim/MorphM1_06_orig.jpg,101,,,,,,,,,0,101,101,101,,,,,,,,,,,,,,,19.1015625,-1.69921875,0,0,1,1.06919503212,,,,,2015_Sep_27_1225,G,facesParametric,10,59.3997295058,
./stim/MorphM7_09_orig.jpg,102,,,,,,,,,0,102,102,102,,,,,,,,,,,,,,,19.1015625,-1.69921875,1,0,0,0.585301876068,,,,,2015_Sep_27_1225,G,facesParametric,10,59.3997295058,
./stim/MorphF8_08_orig.jpg,103,,,,,,,,,0,103,103,103,,,,,,,,,,,,,,,19.1015625,-1.69921875,1,0,0,0.752260923386,,,,,2015_Sep_27_1225,G,facesParametric,10,59.3997295058,
./stim/MorphM8_00_orig.jpg,104,,,,,,,,,0,104,104,104,,,,,,,,,,,,,,,19.072265625,-1.728515625,0,0,1,1.07114601135,,,,,2015_Sep_27_1225,G,facesParametric,10,59.3997295058,
./stim/MorphF1_10_orig.jpg,105,,,,,,,,,0,105,105,105,,,,,,,,,,,,,,,19.013671875,-1.669921875,1,0,0,0.903786897659,,,,,2015_Sep_27_1225,G,facesParametric,10,59.3997295058,
./stim/MorphM10_03_orig.jpg,106,,,,,,,,,0,106,106,106,,,,,,,,,,,,,,,18.45703125,-1.962890625,0,0,1,3.78488397598,,,,,2015_Sep_27_1225,G,facesParametric,10,59.3997295058,
./stim/MorphM3_09_orig.jpg,107,,,,,,,,,0,107,107,107,,,,,,,,,,,,,,,18.33984375,-2.021484375,1,0,0,0.768475055695,,,,,2015_Sep_27_1225,G,facesParametric,10,59.3997295058,
./stim/MorphM9_03_orig.jpg,108,,,,,,,,,0,108,108,108,,,,,,,,,,,,,,,18.310546875,-2.021484375,0,0,1,1.0877020359,,,,,2015_Sep_27_1225,G,facesParametric,10,59.3997295058,
./stim/MorphF5_08_orig.jpg,109,,,,,,,,,0,109,109,109,,,,,,,,,,,,,,,18.251953125,-2.021484375,1,0,0,0.919947147369,,,,,2015_Sep_27_1225,G,facesParametric,10,59.3997295058,
./stim/MorphM10_02_orig.jpg,110,,,,,,,,,0,110,110,110,,,,,,,,,,,,,,,18.251953125,-2.021484375,0,0,1,0.803065061569,,,,,2015_Sep_27_1225,G,facesParametric,10,59.3997295058,
./stim/MorphM3_02_orig.jpg,111,,,,,,,,,0,111,111,111,,,,,,,,,,,,,,,18.251953125,-2.021484375,0,0,1,1.47336888313,,,,,2015_Sep_27_1225,G,facesParametric,10,59.3997295058,
./stim/MorphF2_06_orig.jpg,112,,,,,,,,,0,112,112,112,,,,,,,,,,,,,,,18.251953125,-2.021484375,1,0,0,0.719248056412,,,,,2015_Sep_27_1225,G,facesParametric,10,59.3997295058,
./stim/MorphM7_02_orig.jpg,113,,,,,,,,,0,113,113,113,,,,,,,,,,,,,,,19.453125,-2.578125,0,0,1,3.31671214104,,,,,2015_Sep_27_1225,G,facesParametric,10,59.3997295058,
./stim/MorphF2_03_orig.jpg,114,,,,,,,,,0,114,114,114,,,,,,,,,,,,,,,18.544921875,-3.28125,0,0,1,1.33952903748,,,,,2015_Sep_27_1225,G,facesParametric,10,59.3997295058,
./stim/MorphF7_07_orig.jpg,115,,,,,,,,,0,115,115,115,,,,,,,,,,,,,,,18.486328125,-3.603515625,1,0,0,0.852882862091,,,,,2015_Sep_27_1225,G,facesParametric,10,59.3997295058,
./stim/MorphF4_06_orig.jpg,116,,,,,,,,,0,116,116,116,,,,,,,,,,,,,,,18.515625,-4.189453125,1,0,0,2.88165998459,,,,,2015_Sep_27_1225,G,facesParametric,10,59.3997295058,
./stim/MorphF8_04_orig.jpg,117,,,,,,,,,0,117,117,117,,,,,,,,,,,,,,,18.427734375,-4.423828125,0,0,1,1.85832691193,,,,,2015_Sep_27_1225,G,facesParametric,10,59.3997295058,
./stim/MorphF5_06_orig.jpg,118,,,,,,,,,0,118,118,118,,,,,,,,,,,,,,,18.427734375,-4.541015625,1,0,0,0.786789894104,,,,,2015_Sep_27_1225,G,facesParametric,10,59.3997295058,
./stim/MorphF3_10_orig.jpg,119,,,,,,,,,0,119,119,119,,,,,,,,,,,,,,,18.45703125,-4.658203125,1,0,0,1.79221391678,,,,,2015_Sep_27_1225,G,facesParametric,10,59.3997295058,
./stim/MorphM2_06_orig.jpg,120,,,,,,,,,0,120,120,120,,,,,,,,,,,,,,,18.427734375,-4.775390625,0,0,1,1.87464809418,,,,,2015_Sep_27_1225,G,facesParametric,10,59.3997295058,
./stim/MorphF4_03_orig.jpg,121,,,,,,,,,0,121,121,121,,,,,,,,,,,,,,,18.427734375,-4.833984375,0,0,1,2.1103758812,,,,,2015_Sep_27_1225,G,facesParametric,10,59.3997295058,
./stim/MorphM6_00_orig.jpg,122,,,,,,,,,0,122,122,122,,,,,,,,,,,,,,,18.33984375,-4.892578125,0,0,1,0.73405623436,,,,,2015_Sep_27_1225,G,facesParametric,10,59.3997295058,
./stim/MorphF10_08_orig.jpg,123,,,,,,,,,0,123,123,123,,,,,,,,,,,,,,,18.251953125,-5.009765625,1,0,0,1.0546901226,,,,,2015_Sep_27_1225,G,facesParametric,10,59.3997295058,
./stim/MorphM9_07_orig.jpg,124,,,,,,,,,0,124,124,124,,,,,,,,,,,,,,,18.251953125,-5.068359375,1,0,0,0.836918830872,,,,,2015_Sep_27_1225,G,facesParametric,10,59.3997295058,
./stim/MorphM6_03_orig.jpg,125,,,,,,,,,0,125,125,125,,,,,,,,,,,,,,,18.22265625,-5.09765625,0,0,1,1.08646297455,,,,,2015_Sep_27_1225,G,facesParametric,10,59.3997295058,
./stim/MorphF6_00_orig.jpg,126,,,,,,,,,0,126,126,126,,,,,,,,,,,,,,,18.193359375,-5.126953125,0,0,1,0.885363101959,,,,,2015_Sep_27_1225,G,facesParametric,10,59.3997295058,
./stim/MorphF2_09_orig.jpg,127,,,,,,,,,0,127,127,127,,,,,,,,,,,,,,,18.134765625,-5.244140625,1,0,0,0.92033290863,,,,,2015_Sep_27_1225,G,facesParametric,10,59.3997295058,
./stim/MorphF4_04_orig.jpg,128,,,,,,,,,0,128,128,128,,,,,,,,,,,,,,,18.134765625,-5.33203125,0,0,1,1.80897498131,,,,,2015_Sep_27_1225,G,facesParametric,10,59.3997295058,
./stim/MorphF3_09_orig.jpg,129,,,,,,,,,0,129,129,129,,,,,,,,,,,,,,,18.1640625,-5.302734375,1,0,0,1.1718120575,,,,,2015_Sep_27_1225,G,facesParametric,10,59.3997295058,
./stim/MorphF7_05_orig.jpg,130,,,,,,,,,0,130,130,130,,,,,,,,,,,,,,,18.1640625,-5.302734375,1,0,0,0.836354017258,,,,,2015_Sep_27_1225,G,facesParametric,10,59.3997295058,
./stim/MorphF10_04_orig.jpg,131,,,,,,,,,0,131,131,131,,,,,,,,,,,,,,,18.251953125,-5.390625,0,0,1,2.77998495102,,,,,2015_Sep_27_1225,G,facesParametric,10,59.3997295058,
./stim/MorphM5_07_orig.jpg,132,,,,,,,,,0,132,132,132,,,,,,,,,,,,,,,18.369140625,-5.478515625,1,0,0,1.27263402939,,,,,2015_Sep_27_1225,G,facesParametric,10,59.3997295058,
./stim/MorphF8_02_orig.jpg,133,,,,,,,,,0,133,133,133,,,,,,,,,,,,,,,18.046875,-5.712890625,0,0,1,2.00822687149,,,,,2015_Sep_27_1225,G,facesParametric,10,59.3997295058,
./stim/MorphM5_02_orig.jpg,134,,,,,,,,,0,134,134,134,,,,,,,,,,,,,,,18.017578125,-5.80078125,0,0,1,1.17167019844,,,,,2015_Sep_27_1225,G,facesParametric,10,59.3997295058,
./stim/MorphF1_01_orig.jpg,135,,,,,,,,,0,135,135,135,,,,,,,,,,,,,,,17.958984375,-5.859375,0,0,1,0.918785095215,,,,,2015_Sep_27_1225,G,facesParametric,10,59.3997295058,
./stim/MorphF4_05_orig.jpg,136,,,,,,,,,0,136,136,136,,,,,,,,,,,,,,,18.017578125,-5.91796875,0,0,1,2.52910113335,,,,,2015_Sep_27_1225,G,facesParametric,10,59.3997295058,
./stim/MorphF2_10_orig.jpg,137,,,,,,,,,0,137,137,137,,,,,,,,,,,,,,,18.017578125,-5.9765625,1,0,0,0.635272979736,,,,,2015_Sep_27_1225,G,facesParametric,10,59.3997295058,
./stim/MorphM3_00_orig.jpg,138,,,,,,,,,0,138,138,138,,,,,,,,,,,,,,,18.076171875,-6.005859375,1,0,0,2.98235988617,,,,,2015_Sep_27_1225,G,facesParametric,10,59.3997295058,
./stim/MorphM5_06_orig.jpg,139,,,,,,,,,0,139,139,139,,,,,,,,,,,,,,,18.076171875,-6.064453125,1,0,0,1.1885612011,,,,,2015_Sep_27_1225,G,facesParametric,10,59.3997295058,
./stim/MorphF2_01_orig.jpg,140,,,,,,,,,0,140,140,140,,,,,,,,,,,,,,,18.10546875,-6.09375,0,0,1,1.49111390114,,,,,2015_Sep_27_1225,G,facesParametric,10,59.3997295058,
./stim/MorphM6_05_orig.jpg,141,,,,,,,,,0,141,141,141,,,,,,,,,,,,,,,17.98828125,-6.240234375,0,0,1,1.23800396919,,,,,2015_Sep_27_1225,G,facesParametric,10,59.3997295058,
./stim/MorphM8_10_orig.jpg,142,,,,,,,,,0,142,142,142,,,,,,,,,,,,,,,18.662109375,-5.185546875,1,0,0,0.91836309433,,,,,2015_Sep_27_1225,G,facesParametric,10,59.3997295058,
./stim/MorphM4_02_orig.jpg,143,,,,,,,,,0,143,143,143,,,,,,,,,,,,,,,16.5234375,-5.91796875,0,0,1,0.851150035858,,,,,2015_Sep_27_1225,G,facesParametric,10,59.3997295058,
./stim/MorphM5_03_orig.jpg,144,,,,,,,,,0,144,144,144,,,,,,,,,,,,,,,16.40625,-5.91796875,0,0,1,1.12193322182,,,,,2015_Sep_27_1225,G,facesParametric,10,59.3997295058,
./stim/MorphM6_08_orig.jpg,145,,,,,,,,,0,145,145,145,,,,,,,,,,,,,,,16.669921875,-6.38671875,1,0,0,0.836578845978,,,,,2015_Sep_27_1225,G,facesParametric,10,59.3997295058,
./stim/MorphF6_02_orig.jpg,146,,,,,,,,,0,146,146,146,,,,,,,,,,,,,,,16.787109375,-6.26953125,0,0,1,1.1872241497,,,,,2015_Sep_27_1225,G,facesParametric,10,59.3997295058,
./stim/MorphM6_04_orig.jpg,147,,,,,,,,,0,147,147,147,,,,,,,,,,,,,,,16.669921875,-6.181640625,0,0,1,1.2222840786,,,,,2015_Sep_27_1225,G,facesParametric,10,59.3997295058,
./stim/MorphM9_05_orig.jpg,148,,,,,,,,,0,148,148,148,,,,,,,,,,,,,,,16.611328125,-6.181640625,0,0,1,0.987104892731,,,,,2015_Sep_27_1225,G,facesParametric,10,59.3997295058,
./stim/MorphF8_06_orig.jpg,149,,,,,,,,,0,149,149,149,,,,,,,,,,,,,,,16.640625,-6.03515625,1,0,0,2.89812803268,,,,,2015_Sep_27_1225,G,facesParametric,10,59.3997295058,
./stim/MorphM1_02_orig.jpg,150,,,,,,,,,0,150,150,150,,,,,,,,,,,,,,,16.640625,-5.9765625,0,0,1,1.60769581795,,,,,2015_Sep_27_1225,G,facesParametric,10,59.3997295058,
./stim/MorphF3_00_orig.jpg,151,,,,,,,,,0,151,151,151,,,,,,,,,,,,,,,16.58203125,-5.9765625,0,0,1,1.08833312988,,,,,2015_Sep_27_1225,G,facesParametric,10,59.3997295058,
./stim/MorphF10_02_orig.jpg,152,,,,,,,,,0,152,152,152,,,,,,,,,,,,,,,16.611328125,-5.91796875,0,0,1,1.01921606064,,,,,2015_Sep_27_1225,G,facesParametric,10,59.3997295058,
./stim/MorphF4_07_orig.jpg,153,,,,,,,,,0,153,153,153,,,,,,,,,,,,,,,16.611328125,-5.9765625,1,0,0,0.937632083893,,,,,2015_Sep_27_1225,G,facesParametric,10,59.3997295058,
./stim/MorphM2_09_orig.jpg,154,,,,,,,,,0,154,154,154,,,,,,,,,,,,,,,16.611328125,-5.9765625,1,0,0,0.685534954071,,,,,2015_Sep_27_1225,G,facesParametric,10,59.3997295058,
./stim/MorphF1_02_orig.jpg,155,,,,,,,,,0,155,155,155,,,,,,,,,,,,,,,16.494140625,-6.005859375,0,0,1,1.45537400246,,,,,2015_Sep_27_1225,G,facesParametric,10,59.3997295058,
./stim/MorphF7_06_orig.jpg,156,,,,,,,,,0,156,156,156,,,,,,,,,,,,,,,16.46484375,-6.03515625,1,0,0,0.786667823792,,,,,2015_Sep_27_1225,G,facesParametric,10,59.3997295058,
./stim/MorphM3_03_orig.jpg,157,,,,,,,,,0,157,157,157,,,,,,,,,,,,,,,16.46484375,-6.09375,1,0,0,1.28950095177,,,,,2015_Sep_27_1225,G,facesParametric,10,59.3997295058,
./stim/MorphM7_03_orig.jpg,158,,,,,,,,,0,158,158,158,,,,,,,,,,,,,,,16.46484375,-6.09375,1,0,0,0.733855009079,,,,,2015_Sep_27_1225,G,facesParametric,10,59.3997295058,
./stim/MorphM2_08_orig.jpg,159,,,,,,,,,0,159,159,159,,,,,,,,,,,,,,,16.46484375,-6.09375,1,0,0,1.59099197388,,,,,2015_Sep_27_1225,G,facesParametric,10,59.3997295058,
./stim/MorphF5_01_orig.jpg,160,,,,,,,,,0,160,160,160,,,,,,,,,,,,,,,16.46484375,-6.09375,0,0,1,1.2555501461,,,,,2015_Sep_27_1225,G,facesParametric,10,59.3997295058,
./stim/MorphF8_07_orig.jpg,161,,,,,,,,,0,161,161,161,,,,,,,,,,,,,,,16.46484375,-6.09375,1,0,0,1.49122881889,,,,,2015_Sep_27_1225,G,facesParametric,10,59.3997295058,
./stim/MorphM4_00_orig.jpg,162,,,,,,,,,0,162,162,162,,,,,,,,,,,,,,,16.435546875,-6.064453125,0,0,1,1.15285992622,,,,,2015_Sep_27_1225,G,facesParametric,10,59.3997295058,
./stim/MorphM7_10_orig.jpg,163,,,,,,,,,0,163,163,163,,,,,,,,,,,,,,,16.435546875,-6.064453125,1,0,0,0.786102056503,,,,,2015_Sep_27_1225,G,facesParametric,10,59.3997295058,
./stim/MorphM1_01_orig.jpg,164,,,,,,,,,0,164,164,164,,,,,,,,,,,,,,,16.376953125,-6.09375,0,0,1,1.17214107513,,,,,2015_Sep_27_1225,G,facesParametric,10,59.3997295058,
./stim/MorphM8_01_orig.jpg,165,,,,,,,,,0,165,165,165,,,,,,,,,,,,,,,16.376953125,-6.09375,0,0,1,0.985924005508,,,,,2015_Sep_27_1225,G,facesParametric,10,59.3997295058,
./stim/MorphM10_04_orig.jpg,166,,,,,,,,,0,166,166,166,,,,,,,,,,,,,,,16.34765625,-6.123046875,1,0,0,0.987935066223,,,,,2015_Sep_27_1225,G,facesParametric,10,59.3997295058,
./stim/MorphF10_07_orig.jpg,167,,,,,,,,,0,167,167,167,,,,,,,,,,,,,,,16.318359375,-6.15234375,1,0,0,0.66836309433,,,,,2015_Sep_27_1225,G,facesParametric,10,59.3997295058,
./stim/MorphM5_00_orig.jpg,168,,,,,,,,,0,168,168,168,,,,,,,,,,,,,,,16.2890625,-6.181640625,0,0,1,0.869408130646,,,,,2015_Sep_27_1225,G,facesParametric,10,59.3997295058,
./stim/MorphF1_06_orig.jpg,169,,,,,,,,,0,169,169,169,,,,,,,,,,,,,,,16.23046875,-6.240234375,0,0,1,1.08790898323,,,,,2015_Sep_27_1225,G,facesParametric,10,59.3997295058,
./stim/MorphF8_05_orig.jpg,170,,,,,,,,,0,170,170,170,,,,,,,,,,,,,,,16.201171875,-6.26953125,0,0,1,0.937184095383,,,,,2015_Sep_27_1225,G,facesParametric,10,59.3997295058,
./stim/MorphM9_00_orig.jpg,171,,,,,,,,,0,171,171,171,,,,,,,,,,,,,,,16.201171875,-6.328125,0,0,1,0.687170028687,,,,,2015_Sep_27_1225,G,facesParametric,10,59.3997295058,
./stim/MorphF5_04_orig.jpg,172,,,,,,,,,0,172,172,172,,,,,,,,,,,,,,,16.494140625,-6.591796875,0,0,1,2.20918393135,,,,,2015_Sep_27_1225,G,facesParametric,10,59.3997295058,
./stim/MorphM7_05_orig.jpg,173,,,,,,,,,0,173,173,173,,,,,,,,,,,,,,,16.494140625,-6.533203125,1,0,0,0.886588096619,,,,,2015_Sep_27_1225,G,facesParametric,10,59.3997295058,
./stim/MorphM8_04_orig.jpg,174,,,,,,,,,0,174,174,174,,,,,,,,,,,,,,,16.669921875,-6.4453125,1,0,0,0.937648057938,,,,,2015_Sep_27_1225,G,facesParametric,10,59.3997295058,
./stim/MorphF10_01_orig.jpg,175,,,,,,,,,0,175,175,175,,,,,,,,,,,,,,,16.640625,-6.50390625,0,0,1,1.02056384087,,,,,2015_Sep_27_1225,G,facesParametric,10,59.3997295058,
./stim/MorphF2_05_orig.jpg,176,,,,,,,,,0,176,176,176,,,,,,,,,,,,,,,16.611328125,-6.5625,1,0,0,1.28912806511,,,,,2015_Sep_27_1225,G,facesParametric,10,59.3997295058,
./stim/MorphM5_08_orig.jpg,177,,,,,,,,,0,177,177,177,,,,,,,,,,,,,,,16.611328125,-6.50390625,1,0,0,1.2540678978,,,,,2015_Sep_27_1225,G,facesParametric,10,59.3997295058,
./stim/MorphF5_02_orig.jpg,178,,,,,,,,,0,178,178,178,,,,,,,,,,,,,,,16.611328125,-6.50390625,0,0,1,1.42257499695,,,,,2015_Sep_27_1225,G,facesParametric,10,59.3997295058,
./stim/MorphF7_01_orig.jpg,179,,,,,,,,,0,179,179,179,,,,,,,,,,,,,,,16.69921875,-6.85546875,0,0,1,1.23692297935,,,,,2015_Sep_27_1225,G,facesParametric,10,59.3997295058,
./stim/MorphF6_01_orig.jpg,180,,,,,,,,,0,180,180,180,,,,,,,,,,,,,,,16.904296875,-7.412109375,0,0,1,1.15380096436,,,,,2015_Sep_27_1225,G,facesParametric,10,59.3997295058,
./stim/MorphF8_10_orig.jpg,181,,,,,,,,,0,181,181,181,,,,,,,,,,,,,,,16.904296875,-7.294921875,1,0,0,5.211165905,,,,,2015_Sep_27_1225,G,facesParametric,10,59.3997295058,
./stim/MorphF6_03_orig.jpg,182,,,,,,,,,0,182,182,182,,,,,,,,,,,,,,,16.787109375,-7.294921875,0,0,1,1.08775782585,,,,,2015_Sep_27_1225,G,facesParametric,10,59.3997295058,
./stim/MorphF1_09_orig.jpg,183,,,,,,,,,0,183,183,183,,,,,,,,,,,,,,,16.69921875,-7.412109375,1,0,0,1.59057307243,,,,,2015_Sep_27_1225,G,facesParametric,10,59.3997295058,
./stim/MorphM10_01_orig.jpg,184,,,,,,,,,0,184,184,184,,,,,,,,,,,,,,,16.69921875,-7.3828125,0,0,1,1.22245717049,,,,,2015_Sep_27_1225,G,facesParametric,10,59.3997295058,
./stim/MorphM1_04_orig.jpg,185,,,,,,,,,0,185,185,185,,,,,,,,,,,,,,,16.669921875,-7.3828125,0,0,1,1.18874692917,,,,,2015_Sep_27_1225,G,facesParametric,10,59.3997295058,
./stim/MorphF8_03_orig.jpg,186,,,,,,,,,0,186,186,186,,,,,,,,,,,,,,,16.962890625,-7.44140625,0,0,1,6.36580300331,,,,,2015_Sep_27_1225,G,facesParametric,10,59.3997295058,
./stim/MorphF7_02_orig.jpg,187,,,,,,,,,0,187,187,187,,,,,,,,,,,,,,,16.875,-7.529296875,0,0,1,0.683959007263,,,,,2015_Sep_27_1225,G,facesParametric,10,59.3997295058,
./stim/MorphM6_01_orig.jpg,188,,,,,,,,,0,188,188,188,,,,,,,,,,,,,,,16.904296875,-7.587890625,0,0,1,1.13717699051,,,,,2015_Sep_27_1225,G,facesParametric,10,59.3997295058,
./stim/MorphM7_00_orig.jpg,189,,,,,,,,,0,189,189,189,,,,,,,,,,,,,,,16.875,-7.6171875,0,0,1,0.869028091431,,,,,2015_Sep_27_1225,G,facesParametric,10,59.3997295058,
./stim/MorphF6_08_orig.jpg,190,,,,,,,,,0,190,190,190,,,,,,,,,,,,,,,16.875,-7.6171875,1,0,0,1.54084897041,,,,,2015_Sep_27_1225,G,facesParametric,10,59.3997295058,
./stim/MorphM9_09_orig.jpg,191,,,,,,,,,0,191,191,191,,,,,,,,,,,,,,,16.962890625,-7.529296875,1,0,0,0.618473052979,,,,,2015_Sep_27_1225,G,facesParametric,10,59.3997295058,
./stim/MorphF5_00_orig.jpg,192,,,,,,,,,0,192,192,192,,,,,,,,,,,,,,,16.93359375,-7.646484375,0,0,1,0.75265288353,,,,,2015_Sep_27_1225,G,facesParametric,10,59.3997295058,
./stim/MorphM9_04_orig.jpg,193,,,,,,,,,0,193,193,193,,,,,,,,,,,,,,,16.845703125,-7.646484375,0,0,1,0.954222917557,,,,,2015_Sep_27_1225,G,facesParametric,10,59.3997295058,
./stim/MorphM4_09_orig.jpg,194,,,,,,,,,0,194,194,194,,,,,,,,,,,,,,,16.845703125,-7.646484375,1,0,0,0.752836942673,,,,,2015_Sep_27_1225,G,facesParametric,10,59.3997295058,
./stim/MorphF2_02_orig.jpg,195,,,,,,,,,0,195,195,195,,,,,,,,,,,,,,,16.81640625,-7.6171875,0,0,1,1.1029419899,,,,,2015_Sep_27_1225,G,facesParametric,10,59.3997295058,
./stim/MorphF9_09_orig.jpg,196,,,,,,,,,0,196,196,196,,,,,,,,,,,,,,,16.81640625,-7.6171875,1,0,0,1.02084708214,,,,,2015_Sep_27_1225,G,facesParametric,10,59.3997295058,
./stim/MorphF3_04_orig.jpg,197,,,,,,,,,0,197,197,197,,,,,,,,,,,,,,,16.81640625,-7.6171875,0,0,1,1.60752606392,,,,,2015_Sep_27_1225,G,facesParametric,10,59.3997295058,
./stim/MorphM3_08_orig.jpg,198,,,,,,,,,0,198,198,198,,,,,,,,,,,,,,,16.7578125,-7.705078125,1,0,0,0.87011218071,,,,,2015_Sep_27_1225,G,facesParametric,10,59.3997295058,
./stim/MorphF7_04_orig.jpg,199,,,,,,,,,0,199,199,199,,,,,,,,,,,,,,,16.787109375,-7.587890625,0,0,1,1.45709705353,,,,,2015_Sep_27_1225,G,facesParametric,10,59.3997295058,
./stim/MorphM8_06_orig.jpg,200,,,,,,,,,0,200,200,200,,,,,,,,,,,,,,,16.7578125,-7.6171875,1,0,0,0.818593978882,,,,,2015_Sep_27_1225,G,facesParametric,10,59.3997295058,
./stim/MorphF9_05_orig.jpg,201,,,,,,,,,0,201,201,201,,,,,,,,,,,,,,,16.728515625,-7.587890625,0,0,1,1.10375595093,,,,,2015_Sep_27_1225,G,facesParametric,10,59.3997295058,
./stim/MorphM2_00_orig.jpg,202,,,,,,,,,0,202,202,202,,,,,,,,,,,,,,,16.69921875,-7.646484375,0,0,1,1.22161579132,,,,,2015_Sep_27_1225,G,facesParametric,10,59.3997295058,
./stim/MorphF1_03_orig.jpg,203,,,,,,,,,0,203,203,203,,,,,,,,,,,,,,,16.728515625,-7.67578125,0,0,1,1.57402896881,,,,,2015_Sep_27_1225,G,facesParametric,10,59.3997295058,
./stim/MorphM8_03_orig.jpg,204,,,,,,,,,0,204,204,204,,,,,,,,,,,,,,,16.669921875,-7.587890625,1,0,0,1.40651106834,,,,,2015_Sep_27_1225,G,facesParametric,10,59.3997295058,
./stim/MorphF2_00_orig.jpg,205,,,,,,,,,0,205,205,205,,,,,,,,,,,,,,,16.640625,-7.5,0,0,1,1.47304606438,,,,,2015_Sep_27_1225,G,facesParametric,10,59.3997295058,
./stim/MorphF10_05_orig.jpg,206,,,,,,,,,0,206,206,206,,,,,,,,,,,,,,,16.640625,-7.55859375,1,0,0,0.768714904785,,,,,2015_Sep_27_1225,G,facesParametric,10,59.3997295058,
./stim/MorphM7_06_orig.jpg,207,,,,,,,,,0,207,207,207,,,,,,,,,,,,,,,16.669921875,-7.529296875,1,0,0,1.23769497871,,,,,2015_Sep_27_1225,G,facesParametric,10,59.3997295058,
./stim/MorphF1_04_orig.jpg,208,,,,,,,,,0,208,208,208,,,,,,,,,,,,,,,16.58203125,-7.529296875,0,0,1,1.74056100845,,,,,2015_Sep_27_1225,G,facesParametric,10,59.3997295058,
./stim/MorphF6_10_orig.jpg,209,,,,,,,,,0,209,209,209,,,,,,,,,,,,,,,16.494140625,-7.587890625,1,0,0,0.82014799118,,,,,2015_Sep_27_1225,G,facesParametric,10,59.3997295058,
./stim/MorphF9_10_orig.jpg,210,,,,,,,,,0,210,210,210,,,,,,,,,,,,,,,16.5234375,-7.6171875,1,0,0,0.985728979111,,,,,2015_Sep_27_1225,G,facesParametric,10,59.3997295058,
./stim/MorphM10_07_orig.jpg,211,,,,,,,,,0,211,211,211,,,,,,,,,,,,,,,16.5234375,-7.6171875,1,0,0,1.08786797523,,,,,2015_Sep_27_1225,G,facesParametric,10,59.3997295058,
./stim/MorphM4_06_orig.jpg,212,,,,,,,,,0,212,212,212,,,,,,,,,,,,,,,16.5234375,-7.6171875,1,0,0,1.10519194603,,,,,2015_Sep_27_1225,G,facesParametric,10,59.3997295058,
./stim/MorphF4_09_orig.jpg,213,,,,,,,,,0,213,213,213,,,,,,,,,,,,,,,16.552734375,-7.646484375,1,0,0,0.617637872696,,,,,2015_Sep_27_1225,G,facesParametric,10,59.3997295058,
./stim/MorphM3_07_orig.jpg,214,,,,,,,,,0,214,214,214,,,,,,,,,,,,,,,16.552734375,-7.587890625,1,0,0,0.968636989594,,,,,2015_Sep_27_1225,G,facesParametric,10,59.3997295058,
./stim/MorphM10_10_orig.jpg,215,,,,,,,,,0,215,215,215,,,,,,,,,,,,,,,16.5234375,-7.6171875,1,0,0,0.583182811737,,,,,2015_Sep_27_1225,G,facesParametric,10,59.3997295058,
./stim/MorphF6_04_orig.jpg,216,,,,,,,,,0,216,216,216,,,,,,,,,,,,,,,16.494140625,-7.55859375,0,0,1,1.10524511337,,,,,2015_Sep_27_1225,G,facesParametric,10,59.3997295058,
./stim/MorphM1_07_orig.jpg,217,,,,,,,,,0,217,217,217,,,,,,,,,,,,,,,16.46484375,-7.529296875,0,0,1,0.920945167542,,,,,2015_Sep_27_1225,G,facesParametric,10,59.3997295058,
./stim/MorphM4_07_orig.jpg,218,,,,,,,,,0,218,218,218,,,,,,,,,,,,,,,16.46484375,-7.529296875,1,0,0,0.987088918686,,,,,2015_Sep_27_1225,G,facesParametric,10,59.3997295058,
./stim/MorphF4_01_orig.jpg,219,,,,,,,,,0,219,219,219,,,,,,,,,,,,,,,16.46484375,-7.529296875,0,0,1,0.953466892242,,,,,2015_Sep_27_1225,G,facesParametric,10,59.3997295058,
,,,,,,,,,,,,,,,,,,,,,,,,,,,,,,,,,,,,return,94.9812459946,2015_Sep_27_1225,G,facesParametric,10,59.3997295058,
