img,num,basicLoop.thisRepN,basicLoop.thisTrialN,basicLoop.thisN,basicLoop.thisIndex,trials.thisRepN,trials.thisTrialN,trials.thisN,trials.thisIndex,trials2.thisRepN,trials2.thisTrialN,trials2.thisN,trials2.thisIndex,key_resp_2.keys,key_resp_2.rt,basicRating1.response,basicRating1.rt,basicRating2.response,basicRating2.rt,basicRating3.response,basicRating3.rt,basicRating4.response,basicRating4.rt,key_resp_3.keys,key_resp_3.rt,key_resp_4.keys,key_resp_4.rt,mouseResp.x,mouseResp.y,mouseResp.leftButton,mouseResp.midButton,mouseResp.rightButton,mouseResp.time,key_resp_5.keys,key_resp_5.rt,key_resp_7.keys,key_resp_7.rt,date,group,expName,participant,frameRate,
,,,,,,,,,,,,,,return,42.3470869064,,,,,,,,,,,,,,,,,,,,,,,2015_Sep_28_1032,G,facesParametric,11,59.4409778565,
./basicStim/36M_HA_O.jpg,,0,0,0,80,,,,,,,,,,,HAP,7.144,None,None,None,None,None,None,,,,,,,,,,,,,,,2015_Sep_28_1032,G,facesParametric,11,59.4409778565,
./basicStim/23M_FE_O.jpg,,0,1,1,51,,,,,,,,,,,None,None,None,None,SUP,12.373,None,None,,,,,,,,,,,,,,,2015_Sep_28_1032,G,facesParametric,11,59.4409778565,
./basicStim/01F_SP_O.jpg,,0,2,2,5,,,,,,,,,,,None,None,None,None,SUP,9.675,None,None,,,,,,,,,,,,,,,2015_Sep_28_1032,G,facesParametric,11,59.4409778565,
./basicStim/06F_NE_C.jpg,,0,3,3,27,,,,,,,,,,,None,None,FEA,7.982,None,None,None,None,,,,,,,,,,,,,,,2015_Sep_28_1032,G,facesParametric,11,59.4409778565,
./basicStim/21M_DI_O.jpg,,0,4,4,43,,,,,,,,,,,None,None,None,None,DIS,2.064,None,None,,,,,,,,,,,,,,,2015_Sep_28_1032,G,facesParametric,11,59.4409778565,
./basicStim/07F_FE_O.jpg,,0,5,5,30,,,,,,,,,,,None,None,None,None,DIS,1.024,None,None,,,,,,,,,,,,,,,2015_Sep_28_1032,G,facesParametric,11,59.4409778565,
./basicStim/24M_FE_O.jpg,,0,6,6,58,,,,,,,,,,,None,None,None,None,DIS,0.771,None,None,,,,,,,,,,,,,,,2015_Sep_28_1032,G,facesParametric,11,59.4409778565,
./basicStim/36M_NE_C.jpg,,0,7,7,83,,,,,,,,,,,None,None,None,None,None,None,NTR,7.594,,,,,,,,,,,,,,,2015_Sep_28_1032,G,facesParametric,11,59.4409778565,
./basicStim/01F_AN_O.jpg,,0,8,8,0,,,,,,,,,,,None,None,ANG,4.58,None,None,None,None,,,,,,,,,,,,,,,2015_Sep_28_1032,G,facesParametric,11,59.4409778565,
./basicStim/02F_NE_C.jpg,,0,9,9,13,,,,,,,,,,,None,None,None,None,None,None,NTR,6.824,,,,,,,,,,,,,,,2015_Sep_28_1032,G,facesParametric,11,59.4409778565,
./basicStim/23M_SP_O.jpg,,0,10,10,54,,,,,,,,,,,None,None,None,None,SUP,5.782,None,None,,,,,,,,,,,,,,,2015_Sep_28_1032,G,facesParametric,11,59.4409778565,
./basicStim/21M_SA_C.jpg,,0,11,11,46,,,,,,,,,,,None,None,None,None,DIS,7.618,None,None,,,,,,,,,,,,,,,2015_Sep_28_1032,G,facesParametric,11,59.4409778565,
./basicStim/09F_AN_O.jpg,,0,12,12,35,,,,,,,,,,,None,None,ANG,6.856,None,None,None,None,,,,,,,,,,,,,,,2015_Sep_28_1032,G,facesParametric,11,59.4409778565,
./basicStim/36M_SA_C.jpg,,0,13,13,81,,,,,,,,,,,None,None,None,None,SUP,7.463,None,None,,,,,,,,,,,,,,,2015_Sep_28_1032,G,facesParametric,11,59.4409778565,
./basicStim/09F_HA_O.jpg,,0,14,14,38,,,,,,,,,,,HAP,2.709,None,None,None,None,None,None,,,,,,,,,,,,,,,2015_Sep_28_1032,G,facesParametric,11,59.4409778565,
./basicStim/23M_HA_O.jpg,,0,15,15,52,,,,,,,,,,,HAP,1.834,None,None,None,None,None,None,,,,,,,,,,,,,,,2015_Sep_28_1032,G,facesParametric,11,59.4409778565,
./basicStim/07F_NE_C.jpg,,0,16,16,34,,,,,,,,,,,None,None,None,None,None,None,NTR,12.603,,,,,,,,,,,,,,,2015_Sep_28_1032,G,facesParametric,11,59.4409778565,
./basicStim/09F_FE_O.jpg,,0,17,17,37,,,,,,,,,,,None,None,None,None,None,None,NTR,47.267,,,,,,,,,,,,,,,2015_Sep_28_1032,G,facesParametric,11,59.4409778565,
./basicStim/03F_AN_O.jpg,,0,18,18,14,,,,,,,,,,,None,None,ANG,4.028,None,None,None,None,,,,,,,,,,,,,,,2015_Sep_28_1032,G,facesParametric,11,59.4409778565,
./basicStim/01F_FE_O.jpg,,0,19,19,2,,,,,,,,,,,None,None,None,None,SUP,6.004,None,None,,,,,,,,,,,,,,,2015_Sep_28_1032,G,facesParametric,11,59.4409778565,
./basicStim/34M_DI_O.jpg,,0,20,20,71,,,,,,,,,,,None,None,None,None,DIS,5.967,None,None,,,,,,,,,,,,,,,2015_Sep_28_1032,G,facesParametric,11,59.4409778565,
./basicStim/24M_AN_O.jpg,,0,21,21,56,,,,,,,,,,,None,None,ANG,6.402,None,None,None,None,,,,,,,,,,,,,,,2015_Sep_28_1032,G,facesParametric,11,59.4409778565,
./basicStim/28M_HA_O.jpg,,0,22,22,66,,,,,,,,,,,HAP,2.761,None,None,None,None,None,None,,,,,,,,,,,,,,,2015_Sep_28_1032,G,facesParametric,11,59.4409778565,
./basicStim/01F_NE_C.jpg,,0,23,23,6,,,,,,,,,,,None,None,None,None,None,None,NTR,2.484,,,,,,,,,,,,,,,2015_Sep_28_1032,G,facesParametric,11,59.4409778565,
./basicStim/03F_SA_C.jpg,,0,24,24,18,,,,,,,,,,,SAD,12.355,None,None,None,None,None,None,,,,,,,,,,,,,,,2015_Sep_28_1032,G,facesParametric,11,59.4409778565,
./basicStim/03F_DI_O.jpg,,0,25,25,15,,,,,,,,,,,None,None,None,None,DIS,2.214,None,None,,,,,,,,,,,,,,,2015_Sep_28_1032,G,facesParametric,11,59.4409778565,
./basicStim/28M_NE_C.jpg,,0,26,26,69,,,,,,,,,,,None,None,None,None,SUP,4.393,None,None,,,,,,,,,,,,,,,2015_Sep_28_1032,G,facesParametric,11,59.4409778565,
./basicStim/34M_SA_C.jpg,,0,27,27,74,,,,,,,,,,,None,None,None,None,SUP,6.068,None,None,,,,,,,,,,,,,,,2015_Sep_28_1032,G,facesParametric,11,59.4409778565,
./basicStim/09F_SP_O.jpg,,0,28,28,40,,,,,,,,,,,None,None,None,None,SUP,1.159,None,None,,,,,,,,,,,,,,,2015_Sep_28_1032,G,facesParametric,11,59.4409778565,
./basicStim/02F_SP_O.jpg,,0,29,29,12,,,,,,,,,,,None,None,None,None,SUP,1.182,None,None,,,,,,,,,,,,,,,2015_Sep_28_1032,G,facesParametric,11,59.4409778565,
./basicStim/06F_FE_O.jpg,,0,30,30,23,,,,,,,,,,,None,None,None,None,SUP,4.384,None,None,,,,,,,,,,,,,,,2015_Sep_28_1032,G,facesParametric,11,59.4409778565,
./basicStim/28M_DI_O.jpg,,0,31,31,64,,,,,,,,,,,None,None,None,None,DIS,2.671,None,None,,,,,,,,,,,,,,,2015_Sep_28_1032,G,facesParametric,11,59.4409778565,
./basicStim/09F_SA_C.jpg,,0,32,32,39,,,,,,,,,,,None,None,None,None,DIS,5.891,None,None,,,,,,,,,,,,,,,2015_Sep_28_1032,G,facesParametric,11,59.4409778565,
./basicStim/09F_DI_O.jpg,,0,33,33,36,,,,,,,,,,,None,None,None,None,DIS,1.325,None,None,,,,,,,,,,,,,,,2015_Sep_28_1032,G,facesParametric,11,59.4409778565,
./basicStim/02F_HA_O.jpg,,0,34,34,10,,,,,,,,,,,HAP,2.672,None,None,None,None,None,None,,,,,,,,,,,,,,,2015_Sep_28_1032,G,facesParametric,11,59.4409778565,
./basicStim/24M_DI_O.jpg,,0,35,35,57,,,,,,,,,,,None,None,ANG,8.163,None,None,None,None,,,,,,,,,,,,,,,2015_Sep_28_1032,G,facesParametric,11,59.4409778565,
./basicStim/28M_AN_O.jpg,,0,36,36,63,,,,,,,,,,,None,None,None,None,DIS,3.692,None,None,,,,,,,,,,,,,,,2015_Sep_28_1032,G,facesParametric,11,59.4409778565,
./basicStim/07F_DI_O.jpg,,0,37,37,29,,,,,,,,,,,None,None,None,None,DIS,7.578,None,None,,,,,,,,,,,,,,,2015_Sep_28_1032,G,facesParametric,11,59.4409778565,
./basicStim/07F_AN_O.jpg,,0,38,38,28,,,,,,,,,,,None,None,None,None,None,None,NTR,19.225,,,,,,,,,,,,,,,2015_Sep_28_1032,G,facesParametric,11,59.4409778565,
./basicStim/24M_HA_O.jpg,,0,39,39,59,,,,,,,,,,,HAP,3.257,None,None,None,None,None,None,,,,,,,,,,,,,,,2015_Sep_28_1032,G,facesParametric,11,59.4409778565,
./basicStim/24M_SP_O.jpg,,0,40,40,61,,,,,,,,,,,None,None,None,None,SUP,3.155,None,None,,,,,,,,,,,,,,,2015_Sep_28_1032,G,facesParametric,11,59.4409778565,
./basicStim/36M_FE_O.jpg,,0,41,41,79,,,,,,,,,,,None,None,None,None,SUP,6.609,None,None,,,,,,,,,,,,,,,2015_Sep_28_1032,G,facesParametric,11,59.4409778565,
./basicStim/01F_HA_O.jpg,,0,42,42,3,,,,,,,,,,,HAP,2.419,None,None,None,None,None,None,,,,,,,,,,,,,,,2015_Sep_28_1032,G,facesParametric,11,59.4409778565,
./basicStim/01F_DI_O.jpg,,0,43,43,1,,,,,,,,,,,None,None,None,None,DIS,6.853,None,None,,,,,,,,,,,,,,,2015_Sep_28_1032,G,facesParametric,11,59.4409778565,
./basicStim/07F_SP_O.jpg,,0,44,44,33,,,,,,,,,,,None,None,None,None,SUP,3.897,None,None,,,,,,,,,,,,,,,2015_Sep_28_1032,G,facesParametric,11,59.4409778565,
./basicStim/03F_SP_O.jpg,,0,45,45,19,,,,,,,,,,,None,None,None,None,SUP,2.152,None,None,,,,,,,,,,,,,,,2015_Sep_28_1032,G,facesParametric,11,59.4409778565,
./basicStim/09F_NE_C.jpg,,0,46,46,41,,,,,,,,,,,None,None,None,None,None,None,NTR,6.455,,,,,,,,,,,,,,,2015_Sep_28_1032,G,facesParametric,11,59.4409778565,
./basicStim/28M_FE_O.jpg,,0,47,47,65,,,,,,,,,,,None,None,ANG,8.802,None,None,None,None,,,,,,,,,,,,,,,2015_Sep_28_1032,G,facesParametric,11,59.4409778565,
./basicStim/34M_FE_O.jpg,,0,48,48,72,,,,,,,,,,,None,None,None,None,DIS,3.137,None,None,,,,,,,,,,,,,,,2015_Sep_28_1032,G,facesParametric,11,59.4409778565,
./basicStim/07F_SA_C.jpg,,0,49,49,32,,,,,,,,,,,None,None,ANG,9.122,None,None,None,None,,,,,,,,,,,,,,,2015_Sep_28_1032,G,facesParametric,11,59.4409778565,
./basicStim/36M_DI_O.jpg,,0,50,50,78,,,,,,,,,,,None,None,None,None,DIS,5.851,None,None,,,,,,,,,,,,,,,2015_Sep_28_1032,G,facesParametric,11,59.4409778565,
./basicStim/24M_NE_C.jpg,,0,51,51,62,,,,,,,,,,,None,None,None,None,None,None,NTR,2.938,,,,,,,,,,,,,,,2015_Sep_28_1032,G,facesParametric,11,59.4409778565,
./basicStim/21M_NE_C.jpg,,0,52,52,48,,,,,,,,,,,None,None,None,None,None,None,NTR,2.904,,,,,,,,,,,,,,,2015_Sep_28_1032,G,facesParametric,11,59.4409778565,
./basicStim/34M_SP_O.jpg,,0,53,53,75,,,,,,,,,,,None,None,None,None,SUP,2.887,None,None,,,,,,,,,,,,,,,2015_Sep_28_1032,G,facesParametric,11,59.4409778565,
./basicStim/23M_DI_O.jpg,,0,54,54,50,,,,,,,,,,,SAD,5.735,None,None,None,None,None,None,,,,,,,,,,,,,,,2015_Sep_28_1032,G,facesParametric,11,59.4409778565,
./basicStim/24M_SA_C.jpg,,0,55,55,60,,,,,,,,,,,SAD,2.42,None,None,None,None,None,None,,,,,,,,,,,,,,,2015_Sep_28_1032,G,facesParametric,11,59.4409778565,
./basicStim/34M_NE_C.jpg,,0,56,56,76,,,,,,,,,,,None,None,None,None,None,None,NTR,3.121,,,,,,,,,,,,,,,2015_Sep_28_1032,G,facesParametric,11,59.4409778565,
./basicStim/21M_HA_O.jpg,,0,57,57,45,,,,,,,,,,,HAP,9.699,None,None,None,None,None,None,,,,,,,,,,,,,,,2015_Sep_28_1032,G,facesParametric,11,59.4409778565,
./basicStim/28M_SP_O.jpg,,0,58,58,68,,,,,,,,,,,None,None,None,None,None,None,NTR,15.906,,,,,,,,,,,,,,,2015_Sep_28_1032,G,facesParametric,11,59.4409778565,
./basicStim/03F_FE_O.jpg,,0,59,59,16,,,,,,,,,,,None,None,None,None,SUP,5.167,None,None,,,,,,,,,,,,,,,2015_Sep_28_1032,G,facesParametric,11,59.4409778565,
./basicStim/06F_DI_O.jpg,,0,60,60,22,,,,,,,,,,,None,None,None,None,DIS,2.448,None,None,,,,,,,,,,,,,,,2015_Sep_28_1032,G,facesParametric,11,59.4409778565,
./basicStim/06F_HA_O.jpg,,0,61,61,24,,,,,,,,,,,HAP,2.183,None,None,None,None,None,None,,,,,,,,,,,,,,,2015_Sep_28_1032,G,facesParametric,11,59.4409778565,
./basicStim/02F_FE_O.jpg,,0,62,62,9,,,,,,,,,,,None,None,None,None,DIS,5.581,None,None,,,,,,,,,,,,,,,2015_Sep_28_1032,G,facesParametric,11,59.4409778565,
./basicStim/34M_HA_O.jpg,,0,63,63,73,,,,,,,,,,,HAP,4.277,None,None,None,None,None,None,,,,,,,,,,,,,,,2015_Sep_28_1032,G,facesParametric,11,59.4409778565,
./basicStim/03F_NE_C.jpg,,0,64,64,20,,,,,,,,,,,None,None,None,None,None,None,NTR,2.282,,,,,,,,,,,,,,,2015_Sep_28_1032,G,facesParametric,11,59.4409778565,
./basicStim/02F_SA_C.jpg,,0,65,65,11,,,,,,,,,,,None,None,None,None,SUP,2.919,None,None,,,,,,,,,,,,,,,2015_Sep_28_1032,G,facesParametric,11,59.4409778565,
./basicStim/02F_AN_O.jpg,,0,66,66,7,,,,,,,,,,,None,None,ANG,2.138,None,None,None,None,,,,,,,,,,,,,,,2015_Sep_28_1032,G,facesParametric,11,59.4409778565,
./basicStim/23M_NE_C.jpg,,0,67,67,55,,,,,,,,,,,None,None,None,None,None,None,NTR,2.919,,,,,,,,,,,,,,,2015_Sep_28_1032,G,facesParametric,11,59.4409778565,
./basicStim/28M_SA_C.jpg,,0,68,68,67,,,,,,,,,,,None,None,None,None,SUP,4.643,None,None,,,,,,,,,,,,,,,2015_Sep_28_1032,G,facesParametric,11,59.4409778565,
./basicStim/23M_AN_O.jpg,,0,69,69,49,,,,,,,,,,,None,None,ANG,3.994,None,None,None,None,,,,,,,,,,,,,,,2015_Sep_28_1032,G,facesParametric,11,59.4409778565,
./basicStim/06F_AN_O.jpg,,0,70,70,21,,,,,,,,,,,None,None,ANG,1.259,None,None,None,None,,,,,,,,,,,,,,,2015_Sep_28_1032,G,facesParametric,11,59.4409778565,
./basicStim/34M_AN_O.jpg,,0,71,71,70,,,,,,,,,,,None,None,ANG,1.177,None,None,None,None,,,,,,,,,,,,,,,2015_Sep_28_1032,G,facesParametric,11,59.4409778565,
./basicStim/36M_SP_O.jpg,,0,72,72,82,,,,,,,,,,,None,None,None,None,SUP,7.095,None,None,,,,,,,,,,,,,,,2015_Sep_28_1032,G,facesParametric,11,59.4409778565,
./basicStim/03F_HA_O.jpg,,0,73,73,17,,,,,,,,,,,HAP,3.322,None,None,None,None,None,None,,,,,,,,,,,,,,,2015_Sep_28_1032,G,facesParametric,11,59.4409778565,
./basicStim/07F_HA_O.jpg,,0,74,74,31,,,,,,,,,,,HAP,1.82,None,None,None,None,None,None,,,,,,,,,,,,,,,2015_Sep_28_1032,G,facesParametric,11,59.4409778565,
./basicStim/02F_DI_O.jpg,,0,75,75,8,,,,,,,,,,,None,None,ANG,6.276,None,None,None,None,,,,,,,,,,,,,,,2015_Sep_28_1032,G,facesParametric,11,59.4409778565,
./basicStim/01F_SA_C.jpg,,0,76,76,4,,,,,,,,,,,SAD,8.121,None,None,None,None,None,None,,,,,,,,,,,,,,,2015_Sep_28_1032,G,facesParametric,11,59.4409778565,
./basicStim/06F_SA_C.jpg,,0,77,77,25,,,,,,,,,,,None,None,ANG,3.528,None,None,None,None,,,,,,,,,,,,,,,2015_Sep_28_1032,G,facesParametric,11,59.4409778565,
./basicStim/21M_SP_O.jpg,,0,78,78,47,,,,,,,,,,,None,None,None,None,SUP,2.079,None,None,,,,,,,,,,,,,,,2015_Sep_28_1032,G,facesParametric,11,59.4409778565,
./basicStim/36M_AN_O.jpg,,0,79,79,77,,,,,,,,,,,None,None,ANG,3.12,None,None,None,None,,,,,,,,,,,,,,,2015_Sep_28_1032,G,facesParametric,11,59.4409778565,
./basicStim/21M_FE_O.jpg,,0,80,80,44,,,,,,,,,,,None,None,None,None,DIS,6.636,None,None,,,,,,,,,,,,,,,2015_Sep_28_1032,G,facesParametric,11,59.4409778565,
./basicStim/23M_SA_C.jpg,,0,81,81,53,,,,,,,,,,,None,None,FEA,4.227,None,None,None,None,,,,,,,,,,,,,,,2015_Sep_28_1032,G,facesParametric,11,59.4409778565,
./basicStim/21M_AN_O.jpg,,0,82,82,42,,,,,,,,,,,None,None,ANG,2.977,None,None,None,None,,,,,,,,,,,,,,,2015_Sep_28_1032,G,facesParametric,11,59.4409778565,
./basicStim/06F_SP_O.jpg,,0,83,83,26,,,,,,,,,,,None,None,None,None,SUP,4.431,None,None,,,,,,,,,,,,,,,2015_Sep_28_1032,G,facesParametric,11,59.4409778565,
,,,,,,,,,,,,,,,,,,,,,,,,return,4.23917007446,,,,,,,,,,,,,2015_Sep_28_1032,G,facesParametric,11,59.4409778565,
,,,,,,,,,,,,,,return,10.4573280811,,,,,,,,,,,,,,,,,,,,,,,2015_Sep_28_1032,G,facesParametric,11,59.4409778565,
,,,,,,,,,,,,,,,,,,,,,,,,return,95.3796758652,,,,,,,,,,,,,2015_Sep_28_1032,G,facesParametric,11,59.4409778565,
,,,,,,,,,,,,,,,,,,,,,,,,,,return,13.5081689358,,,,,,,,,,,2015_Sep_28_1032,G,facesParametric,11,59.4409778565,
./stim/MorphM10_09_orig.jpg,0,,,,,0,0,0,0,,,,,,,,,,,,,,,,,,,-12.509765625,3.134765625,0,0,1,2.74154186249,,,,,2015_Sep_28_1032,G,facesParametric,11,59.4409778565,
./stim/MorphF7_07_orig.jpg,1,,,,,0,1,1,1,,,,,,,,,,,,,,,,,,,-12.509765625,3.134765625,1,0,0,1.15213894844,,,,,2015_Sep_28_1032,G,facesParametric,11,59.4409778565,
./stim/MorphF9_01_orig.jpg,2,,,,,0,2,2,2,,,,,,,,,,,,,,,,,,,-12.626953125,3.046875,1,0,0,0.869993925095,,,,,2015_Sep_28_1032,G,facesParametric,11,59.4409778565,
./stim/MorphM6_06_orig.jpg,3,,,,,0,3,3,3,,,,,,,,,,,,,,,,,,,-12.626953125,3.046875,1,0,0,0.700924158096,,,,,2015_Sep_28_1032,G,facesParametric,11,59.4409778565,
./stim/MorphM4_01_orig.jpg,4,,,,,0,4,4,4,,,,,,,,,,,,,,,,,,,-12.626953125,3.046875,1,0,0,1.75648498535,,,,,2015_Sep_28_1032,G,facesParametric,11,59.4409778565,
./stim/MorphM5_07_orig.jpg,5,,,,,0,5,5,5,,,,,,,,,,,,,,,,,,,-12.626953125,3.046875,1,0,0,0.935889959335,,,,,2015_Sep_28_1032,G,facesParametric,11,59.4409778565,
./stim/MorphF1_01_orig.jpg,6,,,,,0,6,6,6,,,,,,,,,,,,,,,,,,,-12.626953125,3.046875,1,0,0,0.719704151154,,,,,2015_Sep_28_1032,G,facesParametric,11,59.4409778565,
./stim/MorphM9_01_orig.jpg,7,,,,,0,7,7,7,,,,,,,,,,,,,,,,,,,-12.626953125,3.046875,1,0,0,0.869745016098,,,,,2015_Sep_28_1032,G,facesParametric,11,59.4409778565,
./stim/MorphM7_05_orig.jpg,8,,,,,0,8,8,8,,,,,,,,,,,,,,,,,,,-12.626953125,3.046875,1,0,0,0.769659996033,,,,,2015_Sep_28_1032,G,facesParametric,11,59.4409778565,
./stim/MorphM6_00_orig.jpg,9,,,,,0,9,9,9,,,,,,,,,,,,,,,,,,,-12.626953125,3.046875,1,0,0,0.652261972427,,,,,2015_Sep_28_1032,G,facesParametric,11,59.4409778565,
./stim/MorphM7_10_orig.jpg,10,,,,,0,10,10,10,,,,,,,,,,,,,,,,,,,-12.626953125,3.046875,0,0,1,1.12175607681,,,,,2015_Sep_28_1032,G,facesParametric,11,59.4409778565,
./stim/MorphM10_06_orig.jpg,11,,,,,0,11,11,11,,,,,,,,,,,,,,,,,,,-12.626953125,3.046875,0,0,1,3.65254402161,,,,,2015_Sep_28_1032,G,facesParametric,11,59.4409778565,
./stim/MorphM2_04_orig.jpg,12,,,,,0,12,12,12,,,,,,,,,,,,,,,,,,,-12.509765625,3.10546875,1,0,0,2.41061902046,,,,,2015_Sep_28_1032,G,facesParametric,11,59.4409778565,
./stim/MorphF1_07_orig.jpg,13,,,,,0,13,13,13,,,,,,,,,,,,,,,,,,,-12.48046875,3.134765625,1,0,0,2.24474382401,,,,,2015_Sep_28_1032,G,facesParametric,11,59.4409778565,
./stim/MorphF7_04_orig.jpg,14,,,,,0,14,14,14,,,,,,,,,,,,,,,,,,,-12.509765625,3.10546875,1,0,0,2.83098387718,,,,,2015_Sep_28_1032,G,facesParametric,11,59.4409778565,
./stim/MorphM3_09_orig.jpg,15,,,,,0,15,15,15,,,,,,,,,,,,,,,,,,,-12.451171875,3.10546875,1,0,0,2.47942996025,,,,,2015_Sep_28_1032,G,facesParametric,11,59.4409778565,
./stim/MorphF1_05_orig.jpg,16,,,,,0,16,16,16,,,,,,,,,,,,,,,,,,,-12.48046875,3.10546875,1,0,0,1.13775587082,,,,,2015_Sep_28_1032,G,facesParametric,11,59.4409778565,
./stim/MorphF5_08_orig.jpg,17,,,,,0,17,17,17,,,,,,,,,,,,,,,,,,,-12.568359375,3.046875,0,0,1,1.58853697777,,,,,2015_Sep_28_1032,G,facesParametric,11,59.4409778565,
./stim/MorphM9_06_orig.jpg,18,,,,,0,18,18,18,,,,,,,,,,,,,,,,,,,-12.568359375,3.046875,0,0,1,2.71067380905,,,,,2015_Sep_28_1032,G,facesParametric,11,59.4409778565,
./stim/MorphF10_06_orig.jpg,19,,,,,0,19,19,19,,,,,,,,,,,,,,,,,,,-12.626953125,3.017578125,0,0,1,6.09983706474,,,,,2015_Sep_28_1032,G,facesParametric,11,59.4409778565,
./stim/MorphM10_08_orig.jpg,20,,,,,0,20,20,20,,,,,,,,,,,,,,,,,,,-12.65625,3.046875,0,0,1,1.59114909172,,,,,2015_Sep_28_1032,G,facesParametric,11,59.4409778565,
./stim/MorphF3_08_orig.jpg,21,,,,,0,21,21,21,,,,,,,,,,,,,,,,,,,-12.65625,3.046875,0,0,1,1.16898393631,,,,,2015_Sep_28_1032,G,facesParametric,11,59.4409778565,
./stim/MorphM9_00_orig.jpg,22,,,,,0,22,22,22,,,,,,,,,,,,,,,,,,,-12.59765625,3.076171875,1,0,0,1.60539484024,,,,,2015_Sep_28_1032,G,facesParametric,11,59.4409778565,
./stim/MorphM1_10_orig.jpg,23,,,,,0,23,23,23,,,,,,,,,,,,,,,,,,,-12.48046875,3.134765625,1,0,0,7.03809404373,,,,,2015_Sep_28_1032,G,facesParametric,11,59.4409778565,
./stim/MorphM2_10_orig.jpg,24,,,,,0,24,24,24,,,,,,,,,,,,,,,,,,,-12.48046875,3.193359375,1,0,0,0.951789855957,,,,,2015_Sep_28_1032,G,facesParametric,11,59.4409778565,
./stim/MorphF1_04_orig.jpg,25,,,,,0,25,25,25,,,,,,,,,,,,,,,,,,,-12.744140625,3.134765625,1,0,0,1.00225496292,,,,,2015_Sep_28_1032,G,facesParametric,11,59.4409778565,
./stim/MorphM8_01_orig.jpg,26,,,,,0,26,26,26,,,,,,,,,,,,,,,,,,,-12.802734375,3.10546875,1,0,0,2.68019008636,,,,,2015_Sep_28_1032,G,facesParametric,11,59.4409778565,
./stim/MorphF4_00_orig.jpg,27,,,,,0,27,27,27,,,,,,,,,,,,,,,,,,,-12.626953125,3.017578125,1,0,0,2.3952858448,,,,,2015_Sep_28_1032,G,facesParametric,11,59.4409778565,
./stim/MorphF2_07_orig.jpg,28,,,,,0,28,28,28,,,,,,,,,,,,,,,,,,,-22.412109375,10.60546875,1,0,0,5.09171009064,,,,,2015_Sep_28_1032,G,facesParametric,11,59.4409778565,
./stim/MorphF6_06_orig.jpg,29,,,,,0,29,29,29,,,,,,,,,,,,,,,,,,,-22.3828125,10.546875,1,0,0,0.937717914581,,,,,2015_Sep_28_1032,G,facesParametric,11,59.4409778565,
./stim/MorphF4_06_orig.jpg,30,,,,,0,30,30,30,,,,,,,,,,,,,,,,,,,-22.353515625,10.341796875,1,0,0,4.07119607925,,,,,2015_Sep_28_1032,G,facesParametric,11,59.4409778565,
./stim/MorphF8_10_orig.jpg,31,,,,,0,31,31,31,,,,,,,,,,,,,,,,,,,11.103515625,2.63671875,1,0,0,17.4621238708,,,,,2015_Sep_28_1032,G,facesParametric,11,59.4409778565,
./stim/MorphF7_03_orig.jpg,32,,,,,0,32,32,32,,,,,,,,,,,,,,,,,,,11.3671875,2.724609375,1,0,0,2.41179800034,,,,,2015_Sep_28_1032,G,facesParametric,11,59.4409778565,
./stim/MorphM4_09_orig.jpg,33,,,,,0,33,33,33,,,,,,,,,,,,,,,,,,,-5.419921875,1.40625,1,0,0,15.7200229168,,,,,2015_Sep_28_1032,G,facesParametric,11,59.4409778565,
./stim/MorphM1_09_orig.jpg,34,,,,,0,34,34,34,,,,,,,,,,,,,,,,,,,-5.33203125,1.40625,1,0,0,0.783919095993,,,,,2015_Sep_28_1032,G,facesParametric,11,59.4409778565,
./stim/MorphM8_02_orig.jpg,35,,,,,0,35,35,35,,,,,,,,,,,,,,,,,,,-5.302734375,1.435546875,1,0,0,2.61097288132,,,,,2015_Sep_28_1032,G,facesParametric,11,59.4409778565,
./stim/MorphF6_05_orig.jpg,36,,,,,0,36,36,36,,,,,,,,,,,,,,,,,,,-5.185546875,1.435546875,1,0,0,2.3451230526,,,,,2015_Sep_28_1032,G,facesParametric,11,59.4409778565,
./stim/MorphM6_01_orig.jpg,37,,,,,0,37,37,37,,,,,,,,,,,,,,,,,,,-5.15625,1.40625,1,0,0,0.818694829941,,,,,2015_Sep_28_1032,G,facesParametric,11,59.4409778565,
./stim/MorphF9_02_orig.jpg,38,,,,,0,38,38,38,,,,,,,,,,,,,,,,,,,-5.15625,1.40625,1,0,0,1.25573897362,,,,,2015_Sep_28_1032,G,facesParametric,11,59.4409778565,
./stim/MorphF6_09_orig.jpg,39,,,,,0,39,39,39,,,,,,,,,,,,,,,,,,,-5.15625,1.40625,1,0,0,0.786172151566,,,,,2015_Sep_28_1032,G,facesParametric,11,59.4409778565,
./stim/MorphM6_09_orig.jpg,40,,,,,0,40,40,40,,,,,,,,,,,,,,,,,,,-4.658203125,1.2890625,1,0,0,2.62992095947,,,,,2015_Sep_28_1032,G,facesParametric,11,59.4409778565,
./stim/MorphF7_08_orig.jpg,41,,,,,0,41,41,41,,,,,,,,,,,,,,,,,,,-4.658203125,1.2890625,1,0,0,0.568199872971,,,,,2015_Sep_28_1032,G,facesParametric,11,59.4409778565,
./stim/MorphM9_05_orig.jpg,42,,,,,0,42,42,42,,,,,,,,,,,,,,,,,,,-4.658203125,1.2890625,1,0,0,0.619784116745,,,,,2015_Sep_28_1032,G,facesParametric,11,59.4409778565,
./stim/MorphF3_09_orig.jpg,43,,,,,0,43,43,43,,,,,,,,,,,,,,,,,,,-4.599609375,1.259765625,1,0,0,3.83466911316,,,,,2015_Sep_28_1032,G,facesParametric,11,59.4409778565,
./stim/MorphF8_07_orig.jpg,44,,,,,0,44,44,44,,,,,,,,,,,,,,,,,,,-4.86328125,1.2890625,1,0,0,5.44533801079,,,,,2015_Sep_28_1032,G,facesParametric,11,59.4409778565,
./stim/MorphM2_03_orig.jpg,45,,,,,0,45,45,45,,,,,,,,,,,,,,,,,,,-6.796875,13.18359375,1,0,0,20.1597549915,,,,,2015_Sep_28_1032,G,facesParametric,11,59.4409778565,
./stim/MorphF2_00_orig.jpg,46,,,,,0,46,46,46,,,,,,,,,,,,,,,,,,,-6.796875,13.18359375,1,0,0,1.42462706566,,,,,2015_Sep_28_1032,G,facesParametric,11,59.4409778565,
./stim/MorphM1_01_orig.jpg,47,,,,,0,47,47,47,,,,,,,,,,,,,,,,,,,-6.73828125,13.18359375,1,0,0,4.50533485413,,,,,2015_Sep_28_1032,G,facesParametric,11,59.4409778565,
./stim/MorphM10_02_orig.jpg,48,,,,,0,48,48,48,,,,,,,,,,,,,,,,,,,-6.708984375,13.154296875,0,0,1,2.06005501747,,,,,2015_Sep_28_1032,G,facesParametric,11,59.4409778565,
./stim/MorphF10_02_orig.jpg,49,,,,,0,49,49,49,,,,,,,,,,,,,,,,,,,-6.73828125,13.18359375,1,0,0,9.5840690136,,,,,2015_Sep_28_1032,G,facesParametric,11,59.4409778565,
./stim/MorphM1_03_orig.jpg,50,,,,,0,50,50,50,,,,,,,,,,,,,,,,,,,-6.796875,13.154296875,0,0,1,1.35677099228,,,,,2015_Sep_28_1032,G,facesParametric,11,59.4409778565,
./stim/MorphF1_03_orig.jpg,51,,,,,0,51,51,51,,,,,,,,,,,,,,,,,,,-6.826171875,13.125,1,0,0,0.783933877945,,,,,2015_Sep_28_1032,G,facesParametric,11,59.4409778565,
./stim/MorphM8_03_orig.jpg,52,,,,,0,52,52,52,,,,,,,,,,,,,,,,,,,-6.884765625,13.125,1,0,0,0.901952028275,,,,,2015_Sep_28_1032,G,facesParametric,11,59.4409778565,
./stim/MorphF2_01_orig.jpg,53,,,,,0,53,53,53,,,,,,,,,,,,,,,,,,,-12.861328125,10.869140625,1,0,0,3.2499601841,,,,,2015_Sep_28_1032,G,facesParametric,11,59.4409778565,
./stim/MorphF9_06_orig.jpg,54,,,,,0,54,54,54,,,,,,,,,,,,,,,,,,,-12.890625,10.83984375,1,0,0,1.77310991287,,,,,2015_Sep_28_1032,G,facesParametric,11,59.4409778565,
./stim/MorphF10_09_orig.jpg,55,,,,,0,55,55,55,,,,,,,,,,,,,,,,,,,-12.890625,10.83984375,0,0,1,1.45712709427,,,,,2015_Sep_28_1032,G,facesParametric,11,59.4409778565,
./stim/MorphM1_07_orig.jpg,56,,,,,0,56,56,56,,,,,,,,,,,,,,,,,,,-13.0078125,10.693359375,1,0,0,1.15466094017,,,,,2015_Sep_28_1032,G,facesParametric,11,59.4409778565,
./stim/MorphM8_04_orig.jpg,57,,,,,0,57,57,57,,,,,,,,,,,,,,,,,,,-13.0078125,10.693359375,1,0,0,0.852565050125,,,,,2015_Sep_28_1032,G,facesParametric,11,59.4409778565,
./stim/MorphM7_07_orig.jpg,58,,,,,0,58,58,58,,,,,,,,,,,,,,,,,,,-12.978515625,10.72265625,0,0,1,1.17180991173,,,,,2015_Sep_28_1032,G,facesParametric,11,59.4409778565,
./stim/MorphM1_06_orig.jpg,59,,,,,0,59,59,59,,,,,,,,,,,,,,,,,,,-13.0078125,10.751953125,1,0,0,1.67391896248,,,,,2015_Sep_28_1032,G,facesParametric,11,59.4409778565,
./stim/MorphF9_10_orig.jpg,60,,,,,0,60,60,60,,,,,,,,,,,,,,,,,,,-13.037109375,10.751953125,1,0,0,4.08738398552,,,,,2015_Sep_28_1032,G,facesParametric,11,59.4409778565,
./stim/MorphF3_03_orig.jpg,61,,,,,0,61,61,61,,,,,,,,,,,,,,,,,,,-13.2421875,10.78125,1,0,0,0.885564088821,,,,,2015_Sep_28_1032,G,facesParametric,11,59.4409778565,
./stim/MorphM9_04_orig.jpg,62,,,,,0,62,62,62,,,,,,,,,,,,,,,,,,,-13.271484375,10.810546875,1,0,0,1.17291593552,,,,,2015_Sep_28_1032,G,facesParametric,11,59.4409778565,
./stim/MorphF8_09_orig.jpg,63,,,,,0,63,63,63,,,,,,,,,,,,,,,,,,,-13.271484375,10.810546875,1,0,0,2.5116648674,,,,,2015_Sep_28_1032,G,facesParametric,11,59.4409778565,
./stim/MorphM3_06_orig.jpg,64,,,,,0,64,64,64,,,,,,,,,,,,,,,,,,,-16.025390625,13.18359375,1,0,0,3.60022592545,,,,,2015_Sep_28_1032,G,facesParametric,11,59.4409778565,
./stim/MorphM5_01_orig.jpg,65,,,,,0,65,65,65,,,,,,,,,,,,,,,,,,,-14.00390625,12.626953125,0,0,1,7.87511897087,,,,,2015_Sep_28_1032,G,facesParametric,11,59.4409778565,
./stim/MorphM4_08_orig.jpg,66,,,,,0,66,66,66,,,,,,,,,,,,,,,,,,,-13.681640625,12.861328125,1,0,0,1.27039599419,,,,,2015_Sep_28_1032,G,facesParametric,11,59.4409778565,
./stim/MorphF8_01_orig.jpg,67,,,,,0,67,67,67,,,,,,,,,,,,,,,,,,,-13.53515625,12.94921875,1,0,0,1.30608677864,,,,,2015_Sep_28_1032,G,facesParametric,11,59.4409778565,
./stim/MorphM4_03_orig.jpg,68,,,,,0,68,68,68,,,,,,,,,,,,,,,,,,,-13.0078125,13.18359375,1,0,0,6.83699893951,,,,,2015_Sep_28_1032,G,facesParametric,11,59.4409778565,
./stim/MorphM7_06_orig.jpg,69,,,,,0,69,69,69,,,,,,,,,,,,,,,,,,,-3.076171875,2.109375,0,0,1,25.3218519688,,,,,2015_Sep_28_1032,G,facesParametric,11,59.4409778565,
./stim/MorphF10_03_orig.jpg,70,,,,,0,70,70,70,,,,,,,,,,,,,,,,,,,-2.8125,2.021484375,1,0,0,2.31016302109,,,,,2015_Sep_28_1032,G,facesParametric,11,59.4409778565,
./stim/MorphM3_07_orig.jpg,71,,,,,0,71,71,71,,,,,,,,,,,,,,,,,,,-4.453125,2.080078125,1,0,0,7.13687777519,,,,,2015_Sep_28_1032,G,facesParametric,11,59.4409778565,
./stim/MorphF5_10_orig.jpg,72,,,,,0,72,72,72,,,,,,,,,,,,,,,,,,,-4.453125,2.080078125,0,0,1,2.02589702606,,,,,2015_Sep_28_1032,G,facesParametric,11,59.4409778565,
./stim/MorphF9_07_orig.jpg,73,,,,,0,73,73,73,,,,,,,,,,,,,,,,,,,-4.453125,2.080078125,0,0,1,1.42226195335,,,,,2015_Sep_28_1032,G,facesParametric,11,59.4409778565,
./stim/MorphM7_03_orig.jpg,74,,,,,0,74,74,74,,,,,,,,,,,,,,,,,,,-2.75390625,2.255859375,1,0,0,1.94049096107,,,,,2015_Sep_28_1032,G,facesParametric,11,59.4409778565,
./stim/MorphF8_06_orig.jpg,75,,,,,0,75,75,75,,,,,,,,,,,,,,,,,,,-4.921875,1.40625,1,0,0,1.7567191124,,,,,2015_Sep_28_1032,G,facesParametric,11,59.4409778565,
./stim/MorphF10_01_orig.jpg,76,,,,,0,76,76,76,,,,,,,,,,,,,,,,,,,-4.921875,1.40625,1,0,0,1.3217279911,,,,,2015_Sep_28_1032,G,facesParametric,11,59.4409778565,
./stim/MorphF8_08_orig.jpg,77,,,,,0,77,77,77,,,,,,,,,,,,,,,,,,,-5.009765625,1.5234375,0,0,1,3.18263196945,,,,,2015_Sep_28_1032,G,facesParametric,11,59.4409778565,
./stim/MorphM10_05_orig.jpg,78,,,,,0,78,78,78,,,,,,,,,,,,,,,,,,,-3.662109375,3.984375,1,0,0,2.32796001434,,,,,2015_Sep_28_1032,G,facesParametric,11,59.4409778565,
./stim/MorphM9_07_orig.jpg,79,,,,,0,79,79,79,,,,,,,,,,,,,,,,,,,-6.38671875,4.072265625,1,0,0,3.08264803886,,,,,2015_Sep_28_1032,G,facesParametric,11,59.4409778565,
./stim/MorphM5_10_orig.jpg,80,,,,,0,80,80,80,,,,,,,,,,,,,,,,,,,-6.884765625,3.955078125,0,0,1,1.87569594383,,,,,2015_Sep_28_1032,G,facesParametric,11,59.4409778565,
./stim/MorphM3_10_orig.jpg,81,,,,,0,81,81,81,,,,,,,,,,,,,,,,,,,-7.96875,4.072265625,1,0,0,1.4233341217,,,,,2015_Sep_28_1032,G,facesParametric,11,59.4409778565,
./stim/MorphF5_01_orig.jpg,82,,,,,0,82,82,82,,,,,,,,,,,,,,,,,,,-8.466796875,4.248046875,0,0,1,0.986692905426,,,,,2015_Sep_28_1032,G,facesParametric,11,59.4409778565,
./stim/MorphM2_05_orig.jpg,83,,,,,0,83,83,83,,,,,,,,,,,,,,,,,,,-8.49609375,4.365234375,1,0,0,1.03743219376,,,,,2015_Sep_28_1032,G,facesParametric,11,59.4409778565,
./stim/MorphM4_04_orig.jpg,84,,,,,0,84,84,84,,,,,,,,,,,,,,,,,,,-8.49609375,4.482421875,1,0,0,0.903344154358,,,,,2015_Sep_28_1032,G,facesParametric,11,59.4409778565,
./stim/MorphM10_04_orig.jpg,85,,,,,0,85,85,85,,,,,,,,,,,,,,,,,,,-8.49609375,4.482421875,1,0,0,0.784435033798,,,,,2015_Sep_28_1032,G,facesParametric,11,59.4409778565,
./stim/MorphF7_02_orig.jpg,86,,,,,0,86,86,86,,,,,,,,,,,,,,,,,,,-8.49609375,4.541015625,1,0,0,2.51050806046,,,,,2015_Sep_28_1032,G,facesParametric,11,59.4409778565,
./stim/MorphM4_05_orig.jpg,87,,,,,0,87,87,87,,,,,,,,,,,,,,,,,,,-8.14453125,3.80859375,1,0,0,5.62940812111,,,,,2015_Sep_28_1032,G,facesParametric,11,59.4409778565,
./stim/MorphM2_09_orig.jpg,88,,,,,0,88,88,88,,,,,,,,,,,,,,,,,,,2.724609375,10.6640625,1,0,0,16.5572650433,,,,,2015_Sep_28_1032,G,facesParametric,11,59.4409778565,
./stim/MorphF5_02_orig.jpg,89,,,,,0,89,89,89,,,,,,,,,,,,,,,,,,,-19.130859375,12.216796875,1,0,0,27.4159920216,,,,,2015_Sep_28_1032,G,facesParametric,11,59.4409778565,
./stim/MorphM10_01_orig.jpg,90,,,,,0,90,90,90,,,,,,,,,,,,,,,,,,,-18.515625,12.12890625,1,0,0,3.38452410698,,,,,2015_Sep_28_1032,G,facesParametric,11,59.4409778565,
./stim/MorphF4_03_orig.jpg,91,,,,,0,91,91,91,,,,,,,,,,,,,,,,,,,-18.486328125,12.12890625,1,0,0,0.937072038651,,,,,2015_Sep_28_1032,G,facesParametric,11,59.4409778565,
./stim/MorphF3_00_orig.jpg,92,,,,,0,92,92,92,,,,,,,,,,,,,,,,,,,-18.486328125,12.1875,0,0,1,1.67440700531,,,,,2015_Sep_28_1032,G,facesParametric,11,59.4409778565,
./stim/MorphF6_03_orig.jpg,93,,,,,0,93,93,93,,,,,,,,,,,,,,,,,,,-18.427734375,12.216796875,0,0,1,0.652230024338,,,,,2015_Sep_28_1032,G,facesParametric,11,59.4409778565,
./stim/MorphF7_05_orig.jpg,94,,,,,0,94,94,94,,,,,,,,,,,,,,,,,,,-18.369140625,12.216796875,0,0,1,0.635411024094,,,,,2015_Sep_28_1032,G,facesParametric,11,59.4409778565,
./stim/MorphF9_04_orig.jpg,95,,,,,0,95,95,95,,,,,,,,,,,,,,,,,,,-18.33984375,12.24609375,0,0,1,0.602059841156,,,,,2015_Sep_28_1032,G,facesParametric,11,59.4409778565,
./stim/MorphM7_02_orig.jpg,96,,,,,0,96,96,96,,,,,,,,,,,,,,,,,,,-18.3984375,12.275390625,0,0,1,0.736289978027,,,,,2015_Sep_28_1032,G,facesParametric,11,59.4409778565,
./stim/MorphF5_09_orig.jpg,97,,,,,0,97,97,97,,,,,,,,,,,,,,,,,,,-18.3984375,12.333984375,0,0,1,0.920194149017,,,,,2015_Sep_28_1032,G,facesParametric,11,59.4409778565,
./stim/MorphF1_10_orig.jpg,98,,,,,0,98,98,98,,,,,,,,,,,,,,,,,,,-18.369140625,12.626953125,0,0,1,2.05872607231,,,,,2015_Sep_28_1032,G,facesParametric,11,59.4409778565,
./stim/MorphM5_05_orig.jpg,99,,,,,0,99,99,99,,,,,,,,,,,,,,,,,,,-19.39453125,12.7734375,0,0,1,3.15010690689,,,,,2015_Sep_28_1032,G,facesParametric,11,59.4409778565,
./stim/MorphF7_01_orig.jpg,100,,,,,0,100,100,100,,,,,,,,,,,,,,,,,,,-19.482421875,12.83203125,0,0,1,0.767351150513,,,,,2015_Sep_28_1032,G,facesParametric,11,59.4409778565,
./stim/MorphF2_09_orig.jpg,101,,,,,0,101,101,101,,,,,,,,,,,,,,,,,,,-19.951171875,12.919921875,0,0,1,0.987591981888,,,,,2015_Sep_28_1032,G,facesParametric,11,59.4409778565,
./stim/MorphM3_05_orig.jpg,102,,,,,0,102,102,102,,,,,,,,,,,,,,,,,,,-20.009765625,13.095703125,0,0,1,1.23792695999,,,,,2015_Sep_28_1032,G,facesParametric,11,59.4409778565,
./stim/MorphM5_00_orig.jpg,103,,,,,0,103,103,103,,,,,,,,,,,,,,,,,,,-18.603515625,11.337890625,0,0,1,5.07460188866,,,,,2015_Sep_28_1032,G,facesParametric,11,59.4409778565,
./stim/MorphF3_06_orig.jpg,104,,,,,0,104,104,104,,,,,,,,,,,,,,,,,,,-13.154296875,12.099609375,0,0,1,16.2052989006,,,,,2015_Sep_28_1032,G,facesParametric,11,59.4409778565,
./stim/MorphF2_03_orig.jpg,105,,,,,0,105,105,105,,,,,,,,,,,,,,,,,,,-11.982421875,11.07421875,1,0,0,1.49008584023,,,,,2015_Sep_28_1032,G,facesParametric,11,59.4409778565,
./stim/MorphF6_02_orig.jpg,106,,,,,0,106,106,106,,,,,,,,,,,,,,,,,,,-11.982421875,11.19140625,1,0,0,0.685760974884,,,,,2015_Sep_28_1032,G,facesParametric,11,59.4409778565,
./stim/MorphF1_09_orig.jpg,107,,,,,0,107,107,107,,,,,,,,,,,,,,,,,,,-12.01171875,11.25,1,0,0,0.88564991951,,,,,2015_Sep_28_1032,G,facesParametric,11,59.4409778565,
./stim/MorphM9_10_orig.jpg,108,,,,,0,108,108,108,,,,,,,,,,,,,,,,,,,-12.041015625,11.337890625,1,0,0,1.32140207291,,,,,2015_Sep_28_1032,G,facesParametric,11,59.4409778565,
./stim/MorphF4_01_orig.jpg,109,,,,,0,109,109,109,,,,,,,,,,,,,,,,,,,-12.0703125,11.513671875,1,0,0,2.44451808929,,,,,2015_Sep_28_1032,G,facesParametric,11,59.4409778565,
./stim/MorphF3_07_orig.jpg,110,,,,,0,110,110,110,,,,,,,,,,,,,,,,,,,-12.099609375,11.54296875,1,0,0,0.567534923553,,,,,2015_Sep_28_1032,G,facesParametric,11,59.4409778565,
./stim/MorphM8_10_orig.jpg,111,,,,,0,111,111,111,,,,,,,,,,,,,,,,,,,-12.12890625,11.572265625,1,0,0,1.69148015976,,,,,2015_Sep_28_1032,G,facesParametric,11,59.4409778565,
./stim/MorphM5_06_orig.jpg,112,,,,,0,112,112,112,,,,,,,,,,,,,,,,,,,-13.30078125,11.66015625,1,0,0,1.27252101898,,,,,2015_Sep_28_1032,G,facesParametric,11,59.4409778565,
./stim/MorphF3_04_orig.jpg,113,,,,,0,113,113,113,,,,,,,,,,,,,,,,,,,-13.623046875,11.484375,1,0,0,0.667937040329,,,,,2015_Sep_28_1032,G,facesParametric,11,59.4409778565,
./stim/MorphM5_02_orig.jpg,114,,,,,0,114,114,114,,,,,,,,,,,,,,,,,,,-11.66015625,11.71875,1,0,0,2.94872403145,,,,,2015_Sep_28_1032,G,facesParametric,11,59.4409778565,
./stim/MorphF7_00_orig.jpg,115,,,,,0,115,115,115,,,,,,,,,,,,,,,,,,,-12.24609375,10.83984375,1,0,0,1.42218589783,,,,,2015_Sep_28_1032,G,facesParametric,11,59.4409778565,
./stim/MorphM5_08_orig.jpg,116,,,,,0,116,116,116,,,,,,,,,,,,,,,,,,,-12.099609375,11.162109375,1,0,0,0.618061065674,,,,,2015_Sep_28_1032,G,facesParametric,11,59.4409778565,
./stim/MorphF3_05_orig.jpg,117,,,,,0,117,117,117,,,,,,,,,,,,,,,,,,,-11.89453125,11.30859375,1,0,0,3.43202114105,,,,,2015_Sep_28_1032,G,facesParametric,11,59.4409778565,
./stim/MorphM10_07_orig.jpg,118,,,,,0,118,118,118,,,,,,,,,,,,,,,,,,,-11.484375,11.3671875,1,0,0,1.1372730732,,,,,2015_Sep_28_1032,G,facesParametric,11,59.4409778565,
./stim/MorphF2_05_orig.jpg,119,,,,,0,119,119,119,,,,,,,,,,,,,,,,,,,-10.693359375,11.6015625,1,0,0,3.63532114029,,,,,2015_Sep_28_1032,G,facesParametric,11,59.4409778565,
./stim/MorphF8_05_orig.jpg,120,,,,,0,120,120,120,,,,,,,,,,,,,,,,,,,13.2421875,12.978515625,1,0,0,8.9803071022,,,,,2015_Sep_28_1032,G,facesParametric,11,59.4409778565,
./stim/MorphF5_07_orig.jpg,121,,,,,0,121,121,121,,,,,,,,,,,,,,,,,,,12.978515625,12.890625,1,0,0,6.1313970089,,,,,2015_Sep_28_1032,G,facesParametric,11,59.4409778565,
./stim/MorphM5_04_orig.jpg,122,,,,,0,122,122,122,,,,,,,,,,,,,,,,,,,12.94921875,12.890625,1,0,0,0.95395898819,,,,,2015_Sep_28_1032,G,facesParametric,11,59.4409778565,
./stim/MorphM2_08_orig.jpg,123,,,,,0,123,123,123,,,,,,,,,,,,,,,,,,,13.037109375,12.978515625,1,0,0,1.82549500465,,,,,2015_Sep_28_1032,G,facesParametric,11,59.4409778565,
./stim/MorphM7_01_orig.jpg,124,,,,,0,124,124,124,,,,,,,,,,,,,,,,,,,13.037109375,12.978515625,1,0,0,0.685086011887,,,,,2015_Sep_28_1032,G,facesParametric,11,59.4409778565,
./stim/MorphF5_04_orig.jpg,125,,,,,0,125,125,125,,,,,,,,,,,,,,,,,,,13.037109375,12.978515625,1,0,0,0.534759044647,,,,,2015_Sep_28_1032,G,facesParametric,11,59.4409778565,
./stim/MorphF6_08_orig.jpg,126,,,,,0,126,126,126,,,,,,,,,,,,,,,,,,,13.06640625,13.0078125,1,0,0,0.970882892609,,,,,2015_Sep_28_1032,G,facesParametric,11,59.4409778565,
./stim/MorphM10_00_orig.jpg,127,,,,,0,127,127,127,,,,,,,,,,,,,,,,,,,13.06640625,13.0078125,1,0,0,1.49043488503,,,,,2015_Sep_28_1032,G,facesParametric,11,59.4409778565,
./stim/MorphF5_06_orig.jpg,128,,,,,0,128,128,128,,,,,,,,,,,,,,,,,,,13.06640625,13.0078125,1,0,0,0.668803930283,,,,,2015_Sep_28_1032,G,facesParametric,11,59.4409778565,
./stim/MorphM4_02_orig.jpg,129,,,,,0,129,129,129,,,,,,,,,,,,,,,,,,,13.095703125,13.037109375,1,0,0,0.769267082214,,,,,2015_Sep_28_1032,G,facesParametric,11,59.4409778565,
./stim/MorphF1_08_orig.jpg,130,,,,,0,130,130,130,,,,,,,,,,,,,,,,,,,13.095703125,13.037109375,1,0,0,0.701375961304,,,,,2015_Sep_28_1032,G,facesParametric,11,59.4409778565,
./stim/MorphF9_09_orig.jpg,131,,,,,0,131,131,131,,,,,,,,,,,,,,,,,,,12.890625,12.919921875,1,0,0,1.32148694992,,,,,2015_Sep_28_1032,G,facesParametric,11,59.4409778565,
./stim/MorphF2_04_orig.jpg,132,,,,,0,132,132,132,,,,,,,,,,,,,,,,,,,11.689453125,12.919921875,1,0,0,0.851469039917,,,,,2015_Sep_28_1032,G,facesParametric,11,59.4409778565,
./stim/MorphF10_04_orig.jpg,133,,,,,0,133,133,133,,,,,,,,,,,,,,,,,,,11.630859375,12.94921875,1,0,0,2.9648270607,,,,,2015_Sep_28_1032,G,facesParametric,11,59.4409778565,
./stim/MorphM8_06_orig.jpg,134,,,,,0,134,134,134,,,,,,,,,,,,,,,,,,,11.6015625,12.978515625,1,0,0,2.01041102409,,,,,2015_Sep_28_1032,G,facesParametric,11,59.4409778565,
./stim/MorphF8_02_orig.jpg,135,,,,,0,135,135,135,,,,,,,,,,,,,,,,,,,11.455078125,13.18359375,1,0,0,1.65786290169,,,,,2015_Sep_28_1032,G,facesParametric,11,59.4409778565,
./stim/MorphM1_00_orig.jpg,136,,,,,0,136,136,136,,,,,,,,,,,,,,,,,,,6.708984375,12.861328125,1,0,0,17.6960220337,,,,,2015_Sep_28_1032,G,facesParametric,11,59.4409778565,
./stim/MorphM7_00_orig.jpg,137,,,,,0,137,137,137,,,,,,,,,,,,,,,,,,,6.708984375,12.36328125,1,0,0,7.52395606041,,,,,2015_Sep_28_1032,G,facesParametric,11,59.4409778565,
./stim/MorphF10_10_orig.jpg,138,,,,,0,138,138,138,,,,,,,,,,,,,,,,,,,6.650390625,12.5390625,1,0,0,1.30496191978,,,,,2015_Sep_28_1032,G,facesParametric,11,59.4409778565,
./stim/MorphF4_08_orig.jpg,139,,,,,0,139,139,139,,,,,,,,,,,,,,,,,,,7.412109375,13.18359375,1,0,0,3.11629414558,,,,,2015_Sep_28_1032,G,facesParametric,11,59.4409778565,
./stim/MorphM2_06_orig.jpg,140,,,,,0,140,140,140,,,,,,,,,,,,,,,,,,,7.32421875,13.18359375,1,0,0,2.36115407944,,,,,2015_Sep_28_1032,G,facesParametric,11,59.4409778565,
./stim/MorphF1_06_orig.jpg,141,,,,,0,141,141,141,,,,,,,,,,,,,,,,,,,6.38671875,12.5390625,1,0,0,15.2161719799,,,,,2015_Sep_28_1032,G,facesParametric,11,59.4409778565,
./stim/MorphM9_02_orig.jpg,142,,,,,0,142,142,142,,,,,,,,,,,,,,,,,,,6.62109375,12.48046875,1,0,0,5.89609503746,,,,,2015_Sep_28_1032,G,facesParametric,11,59.4409778565,
./stim/MorphF8_00_orig.jpg,143,,,,,0,143,143,143,,,,,,,,,,,,,,,,,,,6.708984375,12.509765625,1,0,0,3.03060913086,,,,,2015_Sep_28_1032,G,facesParametric,11,59.4409778565,
./stim/MorphF1_02_orig.jpg,144,,,,,0,144,144,144,,,,,,,,,,,,,,,,,,,6.767578125,12.36328125,1,0,0,3.61891508102,,,,,2015_Sep_28_1032,G,facesParametric,11,59.4409778565,
./stim/MorphM6_03_orig.jpg,145,,,,,0,145,145,145,,,,,,,,,,,,,,,,,,,7.265625,12.94921875,1,0,0,0.886640071869,,,,,2015_Sep_28_1032,G,facesParametric,11,59.4409778565,
./stim/MorphM7_08_orig.jpg,146,,,,,0,146,146,146,,,,,,,,,,,,,,,,,,,7.177734375,12.1875,0,0,1,1.77509713173,,,,,2015_Sep_28_1032,G,facesParametric,11,59.4409778565,
./stim/MorphM6_05_orig.jpg,147,,,,,0,147,147,147,,,,,,,,,,,,,,,,,,,7.001953125,11.455078125,1,0,0,1.356580019,,,,,2015_Sep_28_1032,G,facesParametric,11,59.4409778565,
./stim/MorphF7_10_orig.jpg,148,,,,,0,148,148,148,,,,,,,,,,,,,,,,,,,7.1484375,11.572265625,1,0,0,5.52783298492,,,,,2015_Sep_28_1032,G,facesParametric,11,59.4409778565,
./stim/MorphM9_09_orig.jpg,149,,,,,0,149,149,149,,,,,,,,,,,,,,,,,,,7.236328125,11.6015625,1,0,0,0.987374067307,,,,,2015_Sep_28_1032,G,facesParametric,11,59.4409778565,
./stim/MorphF9_00_orig.jpg,150,,,,,0,150,150,150,,,,,,,,,,,,,,,,,,,7.177734375,11.630859375,1,0,0,1.02027106285,,,,,2015_Sep_28_1032,G,facesParametric,11,59.4409778565,
./stim/MorphM7_09_orig.jpg,151,,,,,0,151,151,151,,,,,,,,,,,,,,,,,,,7.08984375,11.66015625,0,0,1,1.74146008492,,,,,2015_Sep_28_1032,G,facesParametric,11,59.4409778565,
./stim/MorphM3_02_orig.jpg,152,,,,,0,152,152,152,,,,,,,,,,,,,,,,,,,6.97265625,11.630859375,1,0,0,1.35673284531,,,,,2015_Sep_28_1032,G,facesParametric,11,59.4409778565,
./stim/MorphM5_03_orig.jpg,153,,,,,0,153,153,153,,,,,,,,,,,,,,,,,,,7.03125,11.572265625,1,0,0,1.20530605316,,,,,2015_Sep_28_1032,G,facesParametric,11,59.4409778565,
./stim/MorphM3_03_orig.jpg,154,,,,,0,154,154,154,,,,,,,,,,,,,,,,,,,7.060546875,11.572265625,1,0,0,1.97630906105,,,,,2015_Sep_28_1032,G,facesParametric,11,59.4409778565,
./stim/MorphF4_04_orig.jpg,155,,,,,0,155,155,155,,,,,,,,,,,,,,,,,,,7.119140625,11.54296875,1,0,0,1.07173204422,,,,,2015_Sep_28_1032,G,facesParametric,11,59.4409778565,
./stim/MorphF2_08_orig.jpg,156,,,,,0,156,156,156,,,,,,,,,,,,,,,,,,,7.177734375,11.513671875,1,0,0,0.98593711853,,,,,2015_Sep_28_1032,G,facesParametric,11,59.4409778565,
./stim/MorphM4_10_orig.jpg,157,,,,,0,157,157,157,,,,,,,,,,,,,,,,,,,6.796875,11.015625,0,0,1,4.35468292236,,,,,2015_Sep_28_1032,G,facesParametric,11,59.4409778565,
./stim/MorphF9_05_orig.jpg,158,,,,,0,158,158,158,,,,,,,,,,,,,,,,,,,6.767578125,11.015625,1,0,0,0.937090873718,,,,,2015_Sep_28_1032,G,facesParametric,11,59.4409778565,
./stim/MorphF10_00_orig.jpg,159,,,,,0,159,159,159,,,,,,,,,,,,,,,,,,,6.9140625,11.1328125,1,0,0,0.935953855515,,,,,2015_Sep_28_1032,G,facesParametric,11,59.4409778565,
./stim/MorphF6_00_orig.jpg,160,,,,,0,160,160,160,,,,,,,,,,,,,,,,,,,6.97265625,11.19140625,1,0,0,1.07139182091,,,,,2015_Sep_28_1032,G,facesParametric,11,59.4409778565,
./stim/MorphM4_06_orig.jpg,161,,,,,0,161,161,161,,,,,,,,,,,,,,,,,,,7.001953125,11.220703125,0,0,1,1.25467681885,,,,,2015_Sep_28_1032,G,facesParametric,11,59.4409778565,
./stim/MorphF10_08_orig.jpg,162,,,,,0,162,162,162,,,,,,,,,,,,,,,,,,,7.001953125,11.25,1,0,0,1.42126393318,,,,,2015_Sep_28_1032,G,facesParametric,11,59.4409778565,
./stim/MorphF6_01_orig.jpg,163,,,,,0,163,163,163,,,,,,,,,,,,,,,,,,,7.060546875,11.279296875,1,0,0,1.07109904289,,,,,2015_Sep_28_1032,G,facesParametric,11,59.4409778565,
./stim/MorphM2_02_orig.jpg,164,,,,,0,164,164,164,,,,,,,,,,,,,,,,,,,7.08984375,11.279296875,1,0,0,0.85324382782,,,,,2015_Sep_28_1032,G,facesParametric,11,59.4409778565,
./stim/MorphF9_03_orig.jpg,165,,,,,0,165,165,165,,,,,,,,,,,,,,,,,,,7.177734375,11.279296875,1,0,0,0.61708688736,,,,,2015_Sep_28_1032,G,facesParametric,11,59.4409778565,
./stim/MorphM1_04_orig.jpg,166,,,,,0,166,166,166,,,,,,,,,,,,,,,,,,,7.236328125,11.30859375,1,0,0,2.86261487007,,,,,2015_Sep_28_1032,G,facesParametric,11,59.4409778565,
./stim/MorphF6_04_orig.jpg,167,,,,,0,167,167,167,,,,,,,,,,,,,,,,,,,7.236328125,11.30859375,1,0,0,0.803643941879,,,,,2015_Sep_28_1032,G,facesParametric,11,59.4409778565,
./stim/MorphF1_00_orig.jpg,168,,,,,0,168,168,168,,,,,,,,,,,,,,,,,,,12.24609375,12.685546875,1,0,0,6.48456192017,,,,,2015_Sep_28_1032,G,facesParametric,11,59.4409778565,
./stim/MorphM10_03_orig.jpg,169,,,,,0,169,169,169,,,,,,,,,,,,,,,,,,,12.333984375,12.71484375,1,0,0,0.954129934311,,,,,2015_Sep_28_1032,G,facesParametric,11,59.4409778565,
./stim/MorphM8_05_orig.jpg,170,,,,,0,170,170,170,,,,,,,,,,,,,,,,,,,12.568359375,12.919921875,1,0,0,3.88513898849,,,,,2015_Sep_28_1032,G,facesParametric,11,59.4409778565,
./stim/MorphF4_09_orig.jpg,171,,,,,0,171,171,171,,,,,,,,,,,,,,,,,,,13.330078125,13.18359375,0,0,1,6.19803500175,,,,,2015_Sep_28_1032,G,facesParametric,11,59.4409778565,
./stim/MorphF2_06_orig.jpg,172,,,,,0,172,172,172,,,,,,,,,,,,,,,,,,,13.41796875,13.18359375,1,0,0,1.10480213165,,,,,2015_Sep_28_1032,G,facesParametric,11,59.4409778565,
./stim/MorphM10_10_orig.jpg,173,,,,,0,173,173,173,,,,,,,,,,,,,,,,,,,13.447265625,13.154296875,0,0,1,1.38901495934,,,,,2015_Sep_28_1032,G,facesParametric,11,59.4409778565,
./stim/MorphM1_02_orig.jpg,174,,,,,0,174,174,174,,,,,,,,,,,,,,,,,,,13.564453125,13.18359375,1,0,0,1.33973622322,,,,,2015_Sep_28_1032,G,facesParametric,11,59.4409778565,
./stim/MorphM9_08_orig.jpg,175,,,,,0,175,175,175,,,,,,,,,,,,,,,,,,,13.564453125,13.18359375,1,0,0,0.85231089592,,,,,2015_Sep_28_1032,G,facesParametric,11,59.4409778565,
./stim/MorphF7_06_orig.jpg,176,,,,,0,176,176,176,,,,,,,,,,,,,,,,,,,15.849609375,13.095703125,1,0,0,8.63033390045,,,,,2015_Sep_28_1032,G,facesParametric,11,59.4409778565,
./stim/MorphM6_02_orig.jpg,177,,,,,0,177,177,177,,,,,,,,,,,,,,,,,,,15.9375,13.18359375,1,0,0,0.75283408165,,,,,2015_Sep_28_1032,G,facesParametric,11,59.4409778565,
./stim/MorphF2_02_orig.jpg,178,,,,,0,178,178,178,,,,,,,,,,,,,,,,,,,16.11328125,13.18359375,1,0,0,0.619578123093,,,,,2015_Sep_28_1032,G,facesParametric,11,59.4409778565,
./stim/MorphF7_09_orig.jpg,179,,,,,0,179,179,179,,,,,,,,,,,,,,,,,,,16.142578125,13.18359375,1,0,0,0.819216012955,,,,,2015_Sep_28_1032,G,facesParametric,11,59.4409778565,
./stim/MorphF6_10_orig.jpg,180,,,,,0,180,180,180,,,,,,,,,,,,,,,,,,,16.171875,13.154296875,1,0,0,1.57372498512,,,,,2015_Sep_28_1032,G,facesParametric,11,59.4409778565,
./stim/MorphM1_05_orig.jpg,181,,,,,0,181,181,181,,,,,,,,,,,,,,,,,,,16.2890625,13.154296875,1,0,0,4.63998508453,,,,,2015_Sep_28_1032,G,facesParametric,11,59.4409778565,
./stim/MorphF5_00_orig.jpg,182,,,,,0,182,182,182,,,,,,,,,,,,,,,,,,,16.640625,13.125,1,0,0,10.5740609169,,,,,2015_Sep_28_1032,G,facesParametric,11,59.4409778565,
./stim/MorphM5_09_orig.jpg,183,,,,,0,183,183,183,,,,,,,,,,,,,,,,,,,16.552734375,13.0078125,1,0,0,1.5907189846,,,,,2015_Sep_28_1032,G,facesParametric,11,59.4409778565,
./stim/MorphM2_01_orig.jpg,184,,,,,0,184,184,184,,,,,,,,,,,,,,,,,,,16.845703125,12.626953125,1,0,0,6.90363097191,,,,,2015_Sep_28_1032,G,facesParametric,11,59.4409778565,
./stim/MorphM6_04_orig.jpg,185,,,,,0,185,185,185,,,,,,,,,,,,,,,,,,,17.6953125,12.48046875,1,0,0,0.686100006104,,,,,2015_Sep_28_1032,G,facesParametric,11,59.4409778565,
./stim/MorphM1_08_orig.jpg,186,,,,,0,186,186,186,,,,,,,,,,,,,,,,,,,18.6328125,11.07421875,1,0,0,2.31132102013,,,,,2015_Sep_28_1032,G,facesParametric,11,59.4409778565,
./stim/MorphM3_04_orig.jpg,187,,,,,0,187,187,187,,,,,,,,,,,,,,,,,,,18.69140625,11.015625,1,0,0,0.668159008026,,,,,2015_Sep_28_1032,G,facesParametric,11,59.4409778565,
./stim/MorphF9_08_orig.jpg,188,,,,,0,188,188,188,,,,,,,,,,,,,,,,,,,18.720703125,10.986328125,1,0,0,1.05471301079,,,,,2015_Sep_28_1032,G,facesParametric,11,59.4409778565,
./stim/MorphM3_01_orig.jpg,189,,,,,0,189,189,189,,,,,,,,,,,,,,,,,,,19.775390625,10.8984375,1,0,0,1.15511894226,,,,,2015_Sep_28_1032,G,facesParametric,11,59.4409778565,
./stim/MorphF3_02_orig.jpg,190,,,,,0,190,190,190,,,,,,,,,,,,,,,,,,,19.8046875,10.634765625,1,0,0,4.02132987976,,,,,2015_Sep_28_1032,G,facesParametric,11,59.4409778565,
./stim/MorphF4_02_orig.jpg,191,,,,,0,191,191,191,,,,,,,,,,,,,,,,,,,19.74609375,10.6640625,1,0,0,4.00247812271,,,,,2015_Sep_28_1032,G,facesParametric,11,59.4409778565,
./stim/MorphM6_08_orig.jpg,192,,,,,0,192,192,192,,,,,,,,,,,,,,,,,,,19.74609375,10.6640625,1,0,0,0.752681970596,,,,,2015_Sep_28_1032,G,facesParametric,11,59.4409778565,
./stim/MorphF4_07_orig.jpg,193,,,,,0,193,193,193,,,,,,,,,,,,,,,,,,,19.74609375,10.6640625,1,0,0,0.634877204895,,,,,2015_Sep_28_1032,G,facesParametric,11,59.4409778565,
./stim/MorphM3_08_orig.jpg,194,,,,,0,194,194,194,,,,,,,,,,,,,,,,,,,19.8046875,10.6640625,1,0,0,0.635703086853,,,,,2015_Sep_28_1032,G,facesParametric,11,59.4409778565,
./stim/MorphF5_05_orig.jpg,195,,,,,0,195,195,195,,,,,,,,,,,,,,,,,,,19.892578125,10.546875,1,0,0,3.65270495415,,,,,2015_Sep_28_1032,G,facesParametric,11,59.4409778565,
./stim/MorphM8_08_orig.jpg,196,,,,,0,196,196,196,,,,,,,,,,,,,,,,,,,19.892578125,9.7265625,1,0,0,7.42156910896,,,,,2015_Sep_28_1032,G,facesParametric,11,59.4409778565,
./stim/MorphM2_00_orig.jpg,197,,,,,0,197,197,197,,,,,,,,,,,,,,,,,,,19.98046875,9.7265625,1,0,0,3.96904802322,,,,,2015_Sep_28_1032,G,facesParametric,11,59.4409778565,
./stim/MorphM9_03_orig.jpg,198,,,,,0,198,198,198,,,,,,,,,,,,,,,,,,,20.009765625,9.66796875,1,0,0,0.868914842606,,,,,2015_Sep_28_1032,G,facesParametric,11,59.4409778565,
./stim/MorphF8_03_orig.jpg,199,,,,,0,199,199,199,,,,,,,,,,,,,,,,,,,19.951171875,9.7265625,1,0,0,0.802178144455,,,,,2015_Sep_28_1032,G,facesParametric,11,59.4409778565,
./stim/MorphM8_09_orig.jpg,200,,,,,0,200,200,200,,,,,,,,,,,,,,,,,,,18.1640625,9.873046875,0,0,1,4.5057311058,,,,,2015_Sep_28_1032,G,facesParametric,11,59.4409778565,
./stim/MorphM6_10_orig.jpg,201,,,,,0,201,201,201,,,,,,,,,,,,,,,,,,,17.958984375,10.01953125,1,0,0,2.04156088829,,,,,2015_Sep_28_1032,G,facesParametric,11,59.4409778565,
./stim/MorphF5_03_orig.jpg,202,,,,,0,202,202,202,,,,,,,,,,,,,,,,,,,17.841796875,10.048828125,1,0,0,1.85868120193,,,,,2015_Sep_28_1032,G,facesParametric,11,59.4409778565,
./stim/MorphF3_01_orig.jpg,203,,,,,0,203,203,203,,,,,,,,,,,,,,,,,,,17.841796875,10.048828125,1,0,0,1.84241390228,,,,,2015_Sep_28_1032,G,facesParametric,11,59.4409778565,
./stim/MorphF6_07_orig.jpg,204,,,,,0,204,204,204,,,,,,,,,,,,,,,,,,,17.63671875,10.078125,1,0,0,0.803526878357,,,,,2015_Sep_28_1032,G,facesParametric,11,59.4409778565,
./stim/MorphF2_10_orig.jpg,205,,,,,0,205,205,205,,,,,,,,,,,,,,,,,,,17.578125,10.048828125,1,0,0,5.21076893806,,,,,2015_Sep_28_1032,G,facesParametric,11,59.4409778565,
./stim/MorphM3_00_orig.jpg,206,,,,,0,206,206,206,,,,,,,,,,,,,,,,,,,17.578125,10.048828125,1,0,0,0.870239019394,,,,,2015_Sep_28_1032,G,facesParametric,11,59.4409778565,
./stim/MorphM7_04_orig.jpg,207,,,,,0,207,207,207,,,,,,,,,,,,,,,,,,,17.314453125,10.01953125,0,0,1,2.94860887527,,,,,2015_Sep_28_1032,G,facesParametric,11,59.4409778565,
./stim/MorphF8_04_orig.jpg,208,,,,,0,208,208,208,,,,,,,,,,,,,,,,,,,16.640625,9.9609375,1,0,0,2.07660102844,,,,,2015_Sep_28_1032,G,facesParametric,11,59.4409778565,
./stim/MorphM8_00_orig.jpg,209,,,,,0,209,209,209,,,,,,,,,,,,,,,,,,,16.69921875,10.01953125,1,0,0,2.52987599373,,,,,2015_Sep_28_1032,G,facesParametric,11,59.4409778565,
./stim/MorphM2_07_orig.jpg,210,,,,,0,210,210,210,,,,,,,,,,,,,,,,,,,16.69921875,10.01953125,1,0,0,0.952316999435,,,,,2015_Sep_28_1032,G,facesParametric,11,59.4409778565,
./stim/MorphF3_10_orig.jpg,211,,,,,0,211,211,211,,,,,,,,,,,,,,,,,,,16.494140625,10.078125,0,0,1,1.07102799416,,,,,2015_Sep_28_1032,G,facesParametric,11,59.4409778565,
./stim/MorphF10_05_orig.jpg,212,,,,,0,212,212,212,,,,,,,,,,,,,,,,,,,15.87890625,10.078125,1,0,0,1.0542049408,,,,,2015_Sep_28_1032,G,facesParametric,11,59.4409778565,
./stim/MorphM4_00_orig.jpg,213,,,,,0,213,213,213,,,,,,,,,,,,,,,,,,,15.9375,10.078125,1,0,0,0.835224151611,,,,,2015_Sep_28_1032,G,facesParametric,11,59.4409778565,
./stim/MorphF10_07_orig.jpg,214,,,,,0,214,214,214,,,,,,,,,,,,,,,,,,,15.87890625,9.990234375,1,0,0,4.92621302605,,,,,2015_Sep_28_1032,G,facesParametric,11,59.4409778565,
./stim/MorphM6_07_orig.jpg,215,,,,,0,215,215,215,,,,,,,,,,,,,,,,,,,15.87890625,9.990234375,1,0,0,1.75663900375,,,,,2015_Sep_28_1032,G,facesParametric,11,59.4409778565,
./stim/MorphM4_07_orig.jpg,216,,,,,0,216,216,216,,,,,,,,,,,,,,,,,,,6.943359375,10.458984375,1,0,0,9.04934883118,,,,,2015_Sep_28_1032,G,facesParametric,11,59.4409778565,
./stim/MorphF4_10_orig.jpg,217,,,,,0,217,217,217,,,,,,,,,,,,,,,,,,,6.943359375,10.517578125,0,0,1,0.953122138977,,,,,2015_Sep_28_1032,G,facesParametric,11,59.4409778565,
./stim/MorphM8_07_orig.jpg,218,,,,,0,218,218,218,,,,,,,,,,,,,,,,,,,11.1328125,8.935546875,0,0,1,10.5909109116,,,,,2015_Sep_28_1032,G,facesParametric,11,59.4409778565,
./stim/MorphF4_05_orig.jpg,219,,,,,0,219,219,219,,,,,,,,,,,,,,,,,,,13.916015625,9.931640625,1,0,0,1.03795599937,,,,,2015_Sep_28_1032,G,facesParametric,11,59.4409778565,
,,,,,,,,,,,,,,,,,,,,,,,,,,,,,,,,,,return,26.2622330189,,,2015_Sep_28_1032,G,facesParametric,11,59.4409778565,
./stim/MorphM8_06_orig.jpg,0,,,,,,,,,0,0,0,0,,,,,,,,,,,,,,,-3.427734375,-2.8125,1,0,0,4.25946903229,,,,,2015_Sep_28_1032,G,facesParametric,11,59.4409778565,
./stim/MorphF3_06_orig.jpg,1,,,,,,,,,0,1,1,1,,,,,,,,,,,,,,,-4.248046875,-2.98828125,1,0,0,0.584373235703,,,,,2015_Sep_28_1032,G,facesParametric,11,59.4409778565,
./stim/MorphF4_10_orig.jpg,2,,,,,,,,,0,2,2,2,,,,,,,,,,,,,,,-6.03515625,-3.80859375,0,0,1,1.64054894447,,,,,2015_Sep_28_1032,G,facesParametric,11,59.4409778565,
./stim/MorphM10_07_orig.jpg,3,,,,,,,,,0,3,3,3,,,,,,,,,,,,,,,-6.884765625,-4.16015625,0,0,1,1.10490489006,,,,,2015_Sep_28_1032,G,facesParametric,11,59.4409778565,
./stim/MorphF3_02_orig.jpg,4,,,,,,,,,0,4,4,4,,,,,,,,,,,,,,,-7.763671875,-5.09765625,1,0,0,1.28912997246,,,,,2015_Sep_28_1032,G,facesParametric,11,59.4409778565,
./stim/MorphF9_01_orig.jpg,5,,,,,,,,,0,5,5,5,,,,,,,,,,,,,,,-8.056640625,-5.244140625,1,0,0,0.95369386673,,,,,2015_Sep_28_1032,G,facesParametric,11,59.4409778565,
./stim/MorphM2_05_orig.jpg,6,,,,,,,,,0,6,6,6,,,,,,,,,,,,,,,-8.14453125,-5.244140625,1,0,0,0.686098098755,,,,,2015_Sep_28_1032,G,facesParametric,11,59.4409778565,
./stim/MorphM1_05_orig.jpg,7,,,,,,,,,0,7,7,7,,,,,,,,,,,,,,,-8.3203125,-5.419921875,1,0,0,1.38937687874,,,,,2015_Sep_28_1032,G,facesParametric,11,59.4409778565,
./stim/MorphM3_09_orig.jpg,8,,,,,,,,,0,8,8,8,,,,,,,,,,,,,,,-8.349609375,-5.390625,1,0,0,0.786907911301,,,,,2015_Sep_28_1032,G,facesParametric,11,59.4409778565,
./stim/MorphF1_05_orig.jpg,9,,,,,,,,,0,9,9,9,,,,,,,,,,,,,,,-8.408203125,-5.44921875,1,0,0,1.00194907188,,,,,2015_Sep_28_1032,G,facesParametric,11,59.4409778565,
./stim/MorphF10_05_orig.jpg,10,,,,,,,,,0,10,10,10,,,,,,,,,,,,,,,-8.4375,-5.5078125,1,0,0,1.57399082184,,,,,2015_Sep_28_1032,G,facesParametric,11,59.4409778565,
./stim/MorphM9_02_orig.jpg,11,,,,,,,,,0,11,11,11,,,,,,,,,,,,,,,-8.49609375,-5.478515625,1,0,0,0.769463062286,,,,,2015_Sep_28_1032,G,facesParametric,11,59.4409778565,
./stim/MorphF4_02_orig.jpg,12,,,,,,,,,0,12,12,12,,,,,,,,,,,,,,,-8.701171875,-5.56640625,1,0,0,1.01948595047,,,,,2015_Sep_28_1032,G,facesParametric,11,59.4409778565,
./stim/MorphM6_05_orig.jpg,13,,,,,,,,,0,13,13,13,,,,,,,,,,,,,,,-9.111328125,-5.771484375,1,0,0,1.80898594856,,,,,2015_Sep_28_1032,G,facesParametric,11,59.4409778565,
./stim/MorphF4_03_orig.jpg,14,,,,,,,,,0,14,14,14,,,,,,,,,,,,,,,-9.814453125,-6.38671875,1,0,0,0.884733915329,,,,,2015_Sep_28_1032,G,facesParametric,11,59.4409778565,
./stim/MorphF9_02_orig.jpg,15,,,,,,,,,0,15,15,15,,,,,,,,,,,,,,,-11.748046875,-8.02734375,1,0,0,1.47353792191,,,,,2015_Sep_28_1032,G,facesParametric,11,59.4409778565,
./stim/MorphF1_04_orig.jpg,16,,,,,,,,,0,16,16,16,,,,,,,,,,,,,,,-21.38671875,-9.931640625,1,0,0,5.99710798264,,,,,2015_Sep_28_1032,G,facesParametric,11,59.4409778565,
./stim/MorphF9_05_orig.jpg,17,,,,,,,,,0,17,17,17,,,,,,,,,,,,,,,-21.767578125,-9.990234375,1,0,0,0.854368925095,,,,,2015_Sep_28_1032,G,facesParametric,11,59.4409778565,
./stim/MorphM8_10_orig.jpg,18,,,,,,,,,0,18,18,18,,,,,,,,,,,,,,,-21.767578125,-9.990234375,1,0,0,0.86825299263,,,,,2015_Sep_28_1032,G,facesParametric,11,59.4409778565,
./stim/MorphF6_09_orig.jpg,19,,,,,,,,,0,19,19,19,,,,,,,,,,,,,,,-21.767578125,-9.990234375,1,0,0,0.836663007736,,,,,2015_Sep_28_1032,G,facesParametric,11,59.4409778565,
./stim/MorphM8_04_orig.jpg,20,,,,,,,,,0,20,20,20,,,,,,,,,,,,,,,-21.826171875,-10.01953125,1,0,0,0.75209903717,,,,,2015_Sep_28_1032,G,facesParametric,11,59.4409778565,
./stim/MorphF3_04_orig.jpg,21,,,,,,,,,0,21,21,21,,,,,,,,,,,,,,,-21.474609375,-9.931640625,1,0,0,3.63546800613,,,,,2015_Sep_28_1032,G,facesParametric,11,59.4409778565,
./stim/MorphM3_06_orig.jpg,22,,,,,,,,,0,22,22,22,,,,,,,,,,,,,,,23.408203125,7.412109375,1,0,0,9.14919805527,,,,,2015_Sep_28_1032,G,facesParametric,11,59.4409778565,
./stim/MorphF5_02_orig.jpg,23,,,,,,,,,0,23,23,23,,,,,,,,,,,,,,,22.939453125,7.353515625,1,0,0,2.78131079674,,,,,2015_Sep_28_1032,G,facesParametric,11,59.4409778565,
./stim/MorphM8_01_orig.jpg,24,,,,,,,,,0,24,24,24,,,,,,,,,,,,,,,-17.841796875,8.232421875,1,0,0,36.281897068,,,,,2015_Sep_28_1032,G,facesParametric,11,59.4409778565,
./stim/MorphF8_04_orig.jpg,25,,,,,,,,,0,25,25,25,,,,,,,,,,,,,,,-8.7890625,11.220703125,1,0,0,7.80866503716,,,,,2015_Sep_28_1032,G,facesParametric,11,59.4409778565,
./stim/MorphF10_07_orig.jpg,26,,,,,,,,,0,26,26,26,,,,,,,,,,,,,,,-8.408203125,10.576171875,1,0,0,0.568200111389,,,,,2015_Sep_28_1032,G,facesParametric,11,59.4409778565,
./stim/MorphF1_10_orig.jpg,27,,,,,,,,,0,27,27,27,,,,,,,,,,,,,,,-8.14453125,10.458984375,1,0,0,3.28152108192,,,,,2015_Sep_28_1032,G,facesParametric,11,59.4409778565,
./stim/MorphM9_00_orig.jpg,28,,,,,,,,,0,28,28,28,,,,,,,,,,,,,,,-7.822265625,10.60546875,1,0,0,2.93133592606,,,,,2015_Sep_28_1032,G,facesParametric,11,59.4409778565,
./stim/MorphF6_01_orig.jpg,29,,,,,,,,,0,29,29,29,,,,,,,,,,,,,,,-7.734375,10.693359375,1,0,0,1.80924201012,,,,,2015_Sep_28_1032,G,facesParametric,11,59.4409778565,
./stim/MorphF9_00_orig.jpg,30,,,,,,,,,0,30,30,30,,,,,,,,,,,,,,,-7.8515625,11.07421875,1,0,0,5.00994300842,,,,,2015_Sep_28_1032,G,facesParametric,11,59.4409778565,
./stim/MorphM10_01_orig.jpg,31,,,,,,,,,0,31,31,31,,,,,,,,,,,,,,,-15.498046875,-4.189453125,1,0,0,5.89669013023,,,,,2015_Sep_28_1032,G,facesParametric,11,59.4409778565,
./stim/MorphF3_05_orig.jpg,32,,,,,,,,,0,32,32,32,,,,,,,,,,,,,,,-15.322265625,-4.04296875,0,0,1,1.13901185989,,,,,2015_Sep_28_1032,G,facesParametric,11,59.4409778565,
./stim/MorphM5_02_orig.jpg,33,,,,,,,,,0,33,33,33,,,,,,,,,,,,,,,-16.40625,-4.599609375,0,0,1,0.818847894669,,,,,2015_Sep_28_1032,G,facesParametric,11,59.4409778565,
./stim/MorphM2_02_orig.jpg,34,,,,,,,,,0,34,34,34,,,,,,,,,,,,,,,-15.9375,-4.51171875,1,0,0,2.410998106,,,,,2015_Sep_28_1032,G,facesParametric,11,59.4409778565,
./stim/MorphF6_07_orig.jpg,35,,,,,,,,,0,35,35,35,,,,,,,,,,,,,,,-15.908203125,-4.541015625,1,0,0,2.39614391327,,,,,2015_Sep_28_1032,G,facesParametric,11,59.4409778565,
./stim/MorphF1_07_orig.jpg,36,,,,,,,,,0,36,36,36,,,,,,,,,,,,,,,-15.908203125,-4.541015625,1,0,0,0.667801141739,,,,,2015_Sep_28_1032,G,facesParametric,11,59.4409778565,
./stim/MorphF5_04_orig.jpg,37,,,,,,,,,0,37,37,37,,,,,,,,,,,,,,,5.859375,8.935546875,1,0,0,28.3884139061,,,,,2015_Sep_28_1032,G,facesParametric,11,59.4409778565,
./stim/MorphM4_04_orig.jpg,38,,,,,,,,,0,38,38,38,,,,,,,,,,,,,,,5.654296875,9.19921875,0,0,1,6.33317995071,,,,,2015_Sep_28_1032,G,facesParametric,11,59.4409778565,
./stim/MorphM3_05_orig.jpg,39,,,,,,,,,0,39,39,39,,,,,,,,,,,,,,,5.5078125,9.111328125,1,0,0,0.836361169815,,,,,2015_Sep_28_1032,G,facesParametric,11,59.4409778565,
./stim/MorphM6_02_orig.jpg,40,,,,,,,,,0,40,40,40,,,,,,,,,,,,,,,5.595703125,9.111328125,1,0,0,0.751003026962,,,,,2015_Sep_28_1032,G,facesParametric,11,59.4409778565,
./stim/MorphM10_02_orig.jpg,41,,,,,,,,,0,41,41,41,,,,,,,,,,,,,,,5.625,9.111328125,1,0,0,0.669177055359,,,,,2015_Sep_28_1032,G,facesParametric,11,59.4409778565,
./stim/MorphM5_00_orig.jpg,42,,,,,,,,,0,42,42,42,,,,,,,,,,,,,,,5.654296875,9.169921875,1,0,0,1.07154202461,,,,,2015_Sep_28_1032,G,facesParametric,11,59.4409778565,
./stim/MorphM2_01_orig.jpg,43,,,,,,,,,0,43,43,43,,,,,,,,,,,,,,,5.654296875,9.169921875,1,0,0,0.735493898392,,,,,2015_Sep_28_1032,G,facesParametric,11,59.4409778565,
./stim/MorphF2_07_orig.jpg,44,,,,,,,,,0,44,44,44,,,,,,,,,,,,,,,5.654296875,9.169921875,1,0,0,0.837037086487,,,,,2015_Sep_28_1032,G,facesParametric,11,59.4409778565,
./stim/MorphM3_01_orig.jpg,45,,,,,,,,,0,45,45,45,,,,,,,,,,,,,,,5.654296875,9.169921875,1,0,0,0.769317150116,,,,,2015_Sep_28_1032,G,facesParametric,11,59.4409778565,
./stim/MorphF7_01_orig.jpg,46,,,,,,,,,0,46,46,46,,,,,,,,,,,,,,,5.654296875,9.169921875,1,0,0,0.567727088928,,,,,2015_Sep_28_1032,G,facesParametric,11,59.4409778565,
./stim/MorphF3_07_orig.jpg,47,,,,,,,,,0,47,47,47,,,,,,,,,,,,,,,5.625,9.052734375,0,0,1,2.8815009594,,,,,2015_Sep_28_1032,G,facesParametric,11,59.4409778565,
./stim/MorphF7_07_orig.jpg,48,,,,,,,,,0,48,48,48,,,,,,,,,,,,,,,5.625,9.052734375,1,0,0,1.20341801643,,,,,2015_Sep_28_1032,G,facesParametric,11,59.4409778565,
./stim/MorphM2_08_orig.jpg,49,,,,,,,,,0,49,49,49,,,,,,,,,,,,,,,5.68359375,9.08203125,1,0,0,0.668245077133,,,,,2015_Sep_28_1032,G,facesParametric,11,59.4409778565,
./stim/MorphF5_10_orig.jpg,50,,,,,,,,,0,50,50,50,,,,,,,,,,,,,,,-0.673828125,11.30859375,0,0,1,2.64646887779,,,,,2015_Sep_28_1032,G,facesParametric,11,59.4409778565,
./stim/MorphF2_02_orig.jpg,51,,,,,,,,,0,51,51,51,,,,,,,,,,,,,,,-4.306640625,9.375,1,0,0,1.0380179882,,,,,2015_Sep_28_1032,G,facesParametric,11,59.4409778565,
./stim/MorphM6_08_orig.jpg,52,,,,,,,,,0,52,52,52,,,,,,,,,,,,,,,-4.306640625,9.375,1,0,0,0.717383146286,,,,,2015_Sep_28_1032,G,facesParametric,11,59.4409778565,
./stim/MorphF5_08_orig.jpg,53,,,,,,,,,0,53,53,53,,,,,,,,,,,,,,,-4.306640625,9.375,1,0,0,0.568544149399,,,,,2015_Sep_28_1032,G,facesParametric,11,59.4409778565,
./stim/MorphM10_08_orig.jpg,54,,,,,,,,,0,54,54,54,,,,,,,,,,,,,,,-4.365234375,9.31640625,1,0,0,1.50658798218,,,,,2015_Sep_28_1032,G,facesParametric,11,59.4409778565,
./stim/MorphF5_09_orig.jpg,55,,,,,,,,,0,55,55,55,,,,,,,,,,,,,,,-4.248046875,9.43359375,1,0,0,2.57939887047,,,,,2015_Sep_28_1032,G,facesParametric,11,59.4409778565,
./stim/MorphF2_10_orig.jpg,56,,,,,,,,,0,56,56,56,,,,,,,,,,,,,,,-4.248046875,9.43359375,1,0,0,0.59996008873,,,,,2015_Sep_28_1032,G,facesParametric,11,59.4409778565,
./stim/MorphF10_08_orig.jpg,57,,,,,,,,,0,57,57,57,,,,,,,,,,,,,,,-4.306640625,9.521484375,1,0,0,1.48953795433,,,,,2015_Sep_28_1032,G,facesParametric,11,59.4409778565,
./stim/MorphF8_03_orig.jpg,58,,,,,,,,,0,58,58,58,,,,,,,,,,,,,,,-4.3359375,9.580078125,1,0,0,2.05930685997,,,,,2015_Sep_28_1032,G,facesParametric,11,59.4409778565,
./stim/MorphM9_08_orig.jpg,59,,,,,,,,,0,59,59,59,,,,,,,,,,,,,,,-4.27734375,10.166015625,1,0,0,3.68596792221,,,,,2015_Sep_28_1032,G,facesParametric,11,59.4409778565,
./stim/MorphF7_05_orig.jpg,60,,,,,,,,,0,60,60,60,,,,,,,,,,,,,,,-4.27734375,10.166015625,1,0,0,0.968569993973,,,,,2015_Sep_28_1032,G,facesParametric,11,59.4409778565,
./stim/MorphM7_06_orig.jpg,61,,,,,,,,,0,61,61,61,,,,,,,,,,,,,,,-4.21875,10.224609375,1,0,0,3.98570203781,,,,,2015_Sep_28_1032,G,facesParametric,11,59.4409778565,
./stim/MorphM5_07_orig.jpg,62,,,,,,,,,0,62,62,62,,,,,,,,,,,,,,,-4.21875,10.224609375,0,0,1,1.62409210205,,,,,2015_Sep_28_1032,G,facesParametric,11,59.4409778565,
./stim/MorphF5_05_orig.jpg,63,,,,,,,,,0,63,63,63,,,,,,,,,,,,,,,-16.69921875,13.18359375,1,0,0,2.86479997635,,,,,2015_Sep_28_1032,G,facesParametric,11,59.4409778565,
./stim/MorphM1_09_orig.jpg,64,,,,,,,,,0,64,64,64,,,,,,,,,,,,,,,-16.58203125,13.18359375,1,0,0,1.53831720352,,,,,2015_Sep_28_1032,G,facesParametric,11,59.4409778565,
./stim/MorphF9_08_orig.jpg,65,,,,,,,,,0,65,65,65,,,,,,,,,,,,,,,-15.322265625,13.18359375,1,0,0,9.06597399712,,,,,2015_Sep_28_1032,G,facesParametric,11,59.4409778565,
./stim/MorphM5_04_orig.jpg,66,,,,,,,,,0,66,66,66,,,,,,,,,,,,,,,-15.322265625,13.18359375,1,0,0,2.84711790085,,,,,2015_Sep_28_1032,G,facesParametric,11,59.4409778565,
./stim/MorphF2_06_orig.jpg,67,,,,,,,,,0,67,67,67,,,,,,,,,,,,,,,-15.322265625,13.18359375,1,0,0,0.652381896973,,,,,2015_Sep_28_1032,G,facesParametric,11,59.4409778565,
./stim/MorphF10_00_orig.jpg,68,,,,,,,,,0,68,68,68,,,,,,,,,,,,,,,-15.322265625,13.18359375,1,0,0,1.05317902565,,,,,2015_Sep_28_1032,G,facesParametric,11,59.4409778565,
./stim/MorphF7_06_orig.jpg,69,,,,,,,,,0,69,69,69,,,,,,,,,,,,,,,-14.677734375,13.18359375,1,0,0,0.68510389328,,,,,2015_Sep_28_1032,G,facesParametric,11,59.4409778565,
./stim/MorphF1_06_orig.jpg,70,,,,,,,,,0,70,70,70,,,,,,,,,,,,,,,-13.388671875,12.94921875,1,0,0,1.22192597389,,,,,2015_Sep_28_1032,G,facesParametric,11,59.4409778565,
./stim/MorphM1_06_orig.jpg,71,,,,,,,,,0,71,71,71,,,,,,,,,,,,,,,-12.041015625,13.18359375,1,0,0,1.12159895897,,,,,2015_Sep_28_1032,G,facesParametric,11,59.4409778565,
./stim/MorphM4_10_orig.jpg,72,,,,,,,,,0,72,72,72,,,,,,,,,,,,,,,-12.01171875,13.18359375,1,0,0,1.79202890396,,,,,2015_Sep_28_1032,G,facesParametric,11,59.4409778565,
./stim/MorphF4_05_orig.jpg,73,,,,,,,,,0,73,73,73,,,,,,,,,,,,,,,-12.01171875,13.18359375,1,0,0,0.803411960602,,,,,2015_Sep_28_1032,G,facesParametric,11,59.4409778565,
./stim/MorphM2_04_orig.jpg,74,,,,,,,,,0,74,74,74,,,,,,,,,,,,,,,-11.982421875,13.18359375,1,0,0,0.601354122162,,,,,2015_Sep_28_1032,G,facesParametric,11,59.4409778565,
./stim/MorphM4_02_orig.jpg,75,,,,,,,,,0,75,75,75,,,,,,,,,,,,,,,-12.01171875,13.18359375,1,0,0,2.69746208191,,,,,2015_Sep_28_1032,G,facesParametric,11,59.4409778565,
./stim/MorphF5_00_orig.jpg,76,,,,,,,,,0,76,76,76,,,,,,,,,,,,,,,-12.01171875,13.18359375,1,0,0,1.7248840332,,,,,2015_Sep_28_1032,G,facesParametric,11,59.4409778565,
./stim/MorphF10_04_orig.jpg,77,,,,,,,,,0,77,77,77,,,,,,,,,,,,,,,-12.01171875,13.18359375,1,0,0,0.736457109451,,,,,2015_Sep_28_1032,G,facesParametric,11,59.4409778565,
./stim/MorphF9_07_orig.jpg,78,,,,,,,,,0,78,78,78,,,,,,,,,,,,,,,-12.01171875,13.18359375,1,0,0,0.618818044662,,,,,2015_Sep_28_1032,G,facesParametric,11,59.4409778565,
./stim/MorphM4_01_orig.jpg,79,,,,,,,,,0,79,79,79,,,,,,,,,,,,,,,-12.01171875,13.18359375,1,0,0,1.72498393059,,,,,2015_Sep_28_1032,G,facesParametric,11,59.4409778565,
./stim/MorphF9_04_orig.jpg,80,,,,,,,,,0,80,80,80,,,,,,,,,,,,,,,-12.01171875,13.18359375,1,0,0,0.802703142166,,,,,2015_Sep_28_1032,G,facesParametric,11,59.4409778565,
./stim/MorphF8_01_orig.jpg,81,,,,,,,,,0,81,81,81,,,,,,,,,,,,,,,-13.76953125,12.1875,1,0,0,4.70668101311,,,,,2015_Sep_28_1032,G,facesParametric,11,59.4409778565,
./stim/MorphF10_06_orig.jpg,82,,,,,,,,,0,82,82,82,,,,,,,,,,,,,,,-13.740234375,13.154296875,1,0,0,3.51817989349,,,,,2015_Sep_28_1032,G,facesParametric,11,59.4409778565,
./stim/MorphM1_00_orig.jpg,83,,,,,,,,,0,83,83,83,,,,,,,,,,,,,,,-13.2421875,12.685546875,1,0,0,4.07086992264,,,,,2015_Sep_28_1032,G,facesParametric,11,59.4409778565,
./stim/MorphF9_03_orig.jpg,84,,,,,,,,,0,84,84,84,,,,,,,,,,,,,,,-13.212890625,12.71484375,1,0,0,1.6581299305,,,,,2015_Sep_28_1032,G,facesParametric,11,59.4409778565,
./stim/MorphM4_06_orig.jpg,85,,,,,,,,,0,85,85,85,,,,,,,,,,,,,,,-12.685546875,12.919921875,1,0,0,5.84664916992,,,,,2015_Sep_28_1032,G,facesParametric,11,59.4409778565,
./stim/MorphF4_08_orig.jpg,86,,,,,,,,,0,86,86,86,,,,,,,,,,,,,,,-12.685546875,12.919921875,1,0,0,1.90860295296,,,,,2015_Sep_28_1032,G,facesParametric,11,59.4409778565,
./stim/MorphF5_01_orig.jpg,87,,,,,,,,,0,87,87,87,,,,,,,,,,,,,,,-12.685546875,12.919921875,1,0,0,1.80792713165,,,,,2015_Sep_28_1032,G,facesParametric,11,59.4409778565,
./stim/MorphF6_05_orig.jpg,88,,,,,,,,,0,88,88,88,,,,,,,,,,,,,,,-12.421875,13.0078125,1,0,0,1.99338889122,,,,,2015_Sep_28_1032,G,facesParametric,11,59.4409778565,
./stim/MorphM9_09_orig.jpg,89,,,,,,,,,0,89,89,89,,,,,,,,,,,,,,,-8.291015625,13.18359375,1,0,0,1.65784096718,,,,,2015_Sep_28_1032,G,facesParametric,11,59.4409778565,
./stim/MorphM5_03_orig.jpg,90,,,,,,,,,0,90,90,90,,,,,,,,,,,,,,,-8.115234375,13.18359375,1,0,0,1.84085512161,,,,,2015_Sep_28_1032,G,facesParametric,11,59.4409778565,
./stim/MorphM7_08_orig.jpg,91,,,,,,,,,0,91,91,91,,,,,,,,,,,,,,,-7.998046875,13.18359375,1,0,0,1.05484199524,,,,,2015_Sep_28_1032,G,facesParametric,11,59.4409778565,
./stim/MorphF1_03_orig.jpg,92,,,,,,,,,0,92,92,92,,,,,,,,,,,,,,,-7.822265625,13.154296875,1,0,0,1.1038441658,,,,,2015_Sep_28_1032,G,facesParametric,11,59.4409778565,
./stim/MorphM5_09_orig.jpg,93,,,,,,,,,0,93,93,93,,,,,,,,,,,,,,,-7.67578125,13.18359375,1,0,0,1.08789896965,,,,,2015_Sep_28_1032,G,facesParametric,11,59.4409778565,
./stim/MorphF3_00_orig.jpg,94,,,,,,,,,0,94,94,94,,,,,,,,,,,,,,,-8.701171875,10.693359375,1,0,0,3.85320687294,,,,,2015_Sep_28_1032,G,facesParametric,11,59.4409778565,
./stim/MorphF8_00_orig.jpg,95,,,,,,,,,0,95,95,95,,,,,,,,,,,,,,,-8.525390625,10.751953125,1,0,0,0.70290517807,,,,,2015_Sep_28_1032,G,facesParametric,11,59.4409778565,
./stim/MorphM7_07_orig.jpg,96,,,,,,,,,0,96,96,96,,,,,,,,,,,,,,,-8.0859375,11.162109375,1,0,0,2.27782917023,,,,,2015_Sep_28_1032,G,facesParametric,11,59.4409778565,
./stim/MorphF9_10_orig.jpg,97,,,,,,,,,0,97,97,97,,,,,,,,,,,,,,,-8.0859375,11.162109375,1,0,0,0.88564991951,,,,,2015_Sep_28_1032,G,facesParametric,11,59.4409778565,
./stim/MorphM8_03_orig.jpg,98,,,,,,,,,0,98,98,98,,,,,,,,,,,,,,,-7.939453125,11.279296875,1,0,0,0.987431049347,,,,,2015_Sep_28_1032,G,facesParametric,11,59.4409778565,
./stim/MorphM4_05_orig.jpg,99,,,,,,,,,0,99,99,99,,,,,,,,,,,,,,,-7.939453125,11.279296875,1,0,0,0.987705945969,,,,,2015_Sep_28_1032,G,facesParametric,11,59.4409778565,
./stim/MorphM6_04_orig.jpg,100,,,,,,,,,0,100,100,100,,,,,,,,,,,,,,,-11.3671875,12.744140625,1,0,0,4.22241520882,,,,,2015_Sep_28_1032,G,facesParametric,11,59.4409778565,
./stim/MorphM3_07_orig.jpg,101,,,,,,,,,0,101,101,101,,,,,,,,,,,,,,,-11.42578125,12.7734375,1,0,0,1.1551721096,,,,,2015_Sep_28_1032,G,facesParametric,11,59.4409778565,
./stim/MorphM1_07_orig.jpg,102,,,,,,,,,0,102,102,102,,,,,,,,,,,,,,,-8.818359375,12.158203125,1,0,0,1.74181604385,,,,,2015_Sep_28_1032,G,facesParametric,11,59.4409778565,
./stim/MorphM7_10_orig.jpg,103,,,,,,,,,0,103,103,103,,,,,,,,,,,,,,,-6.826171875,12.48046875,0,0,1,2.88156890869,,,,,2015_Sep_28_1032,G,facesParametric,11,59.4409778565,
./stim/MorphF3_03_orig.jpg,104,,,,,,,,,0,104,104,104,,,,,,,,,,,,,,,-6.62109375,12.392578125,1,0,0,2.96361994743,,,,,2015_Sep_28_1032,G,facesParametric,11,59.4409778565,
./stim/MorphF6_03_orig.jpg,105,,,,,,,,,0,105,105,105,,,,,,,,,,,,,,,-6.5625,12.392578125,1,0,0,0.987621068954,,,,,2015_Sep_28_1032,G,facesParametric,11,59.4409778565,
./stim/MorphF10_01_orig.jpg,106,,,,,,,,,0,106,106,106,,,,,,,,,,,,,,,-6.533203125,12.392578125,1,0,0,0.786208868027,,,,,2015_Sep_28_1032,G,facesParametric,11,59.4409778565,
./stim/MorphM5_01_orig.jpg,107,,,,,,,,,0,107,107,107,,,,,,,,,,,,,,,-6.5625,12.333984375,1,0,0,0.953824996948,,,,,2015_Sep_28_1032,G,facesParametric,11,59.4409778565,
./stim/MorphF1_00_orig.jpg,108,,,,,,,,,0,108,108,108,,,,,,,,,,,,,,,-6.5625,12.333984375,1,0,0,1.69117307663,,,,,2015_Sep_28_1032,G,facesParametric,11,59.4409778565,
./stim/MorphF4_01_orig.jpg,109,,,,,,,,,0,109,109,109,,,,,,,,,,,,,,,-6.5625,12.333984375,1,0,0,0.635986089706,,,,,2015_Sep_28_1032,G,facesParametric,11,59.4409778565,
./stim/MorphM10_00_orig.jpg,110,,,,,,,,,0,110,110,110,,,,,,,,,,,,,,,-6.533203125,12.3046875,1,0,0,1.22096514702,,,,,2015_Sep_28_1032,G,facesParametric,11,59.4409778565,
./stim/MorphM9_04_orig.jpg,111,,,,,,,,,0,111,111,111,,,,,,,,,,,,,,,-6.50390625,12.3046875,1,0,0,0.617874145508,,,,,2015_Sep_28_1032,G,facesParametric,11,59.4409778565,
./stim/MorphM6_01_orig.jpg,112,,,,,,,,,0,112,112,112,,,,,,,,,,,,,,,-13.359375,12.3046875,1,0,0,0.71853685379,,,,,2015_Sep_28_1032,G,facesParametric,11,59.4409778565,
./stim/MorphF8_10_orig.jpg,113,,,,,,,,,0,113,113,113,,,,,,,,,,,,,,,-13.330078125,12.275390625,1,0,0,0.549849033356,,,,,2015_Sep_28_1032,G,facesParametric,11,59.4409778565,
./stim/MorphF10_03_orig.jpg,114,,,,,,,,,0,114,114,114,,,,,,,,,,,,,,,-13.330078125,12.451171875,1,0,0,0.585210084915,,,,,2015_Sep_28_1032,G,facesParametric,11,59.4409778565,
./stim/MorphM6_09_orig.jpg,115,,,,,,,,,0,115,115,115,,,,,,,,,,,,,,,-13.359375,12.65625,1,0,0,0.869071960449,,,,,2015_Sep_28_1032,G,facesParametric,11,59.4409778565,
./stim/MorphF7_04_orig.jpg,116,,,,,,,,,0,116,116,116,,,,,,,,,,,,,,,-13.330078125,12.65625,1,0,0,0.735100984573,,,,,2015_Sep_28_1032,G,facesParametric,11,59.4409778565,
./stim/MorphF4_09_orig.jpg,117,,,,,,,,,0,117,117,117,,,,,,,,,,,,,,,-7.8515625,13.18359375,0,0,1,4.3732419014,,,,,2015_Sep_28_1032,G,facesParametric,11,59.4409778565,
./stim/MorphF10_10_orig.jpg,118,,,,,,,,,0,118,118,118,,,,,,,,,,,,,,,0.0,13.18359375,0,0,1,1.55716705322,,,,,2015_Sep_28_1032,G,facesParametric,11,59.4409778565,
./stim/MorphF3_10_orig.jpg,119,,,,,,,,,0,119,119,119,,,,,,,,,,,,,,,0.029296875,13.18359375,0,0,1,1.44023990631,,,,,2015_Sep_28_1032,G,facesParametric,11,59.4409778565,
./stim/MorphF5_07_orig.jpg,120,,,,,,,,,0,120,120,120,,,,,,,,,,,,,,,0.52734375,13.095703125,0,0,1,1.50684285164,,,,,2015_Sep_28_1032,G,facesParametric,11,59.4409778565,
./stim/MorphM7_04_orig.jpg,121,,,,,,,,,0,121,121,121,,,,,,,,,,,,,,,1.083984375,13.18359375,0,0,1,1.05405187607,,,,,2015_Sep_28_1032,G,facesParametric,11,59.4409778565,
./stim/MorphF2_00_orig.jpg,122,,,,,,,,,0,122,122,122,,,,,,,,,,,,,,,1.259765625,13.18359375,1,0,0,1.77528500557,,,,,2015_Sep_28_1032,G,facesParametric,11,59.4409778565,
./stim/MorphM3_04_orig.jpg,123,,,,,,,,,0,123,123,123,,,,,,,,,,,,,,,1.34765625,13.18359375,1,0,0,0.668606996536,,,,,2015_Sep_28_1032,G,facesParametric,11,59.4409778565,
./stim/MorphM10_10_orig.jpg,124,,,,,,,,,0,124,124,124,,,,,,,,,,,,,,,1.34765625,13.18359375,0,0,1,0.870141029358,,,,,2015_Sep_28_1032,G,facesParametric,11,59.4409778565,
./stim/MorphM2_00_orig.jpg,125,,,,,,,,,0,125,125,125,,,,,,,,,,,,,,,1.23046875,13.06640625,1,0,0,1.12179017067,,,,,2015_Sep_28_1032,G,facesParametric,11,59.4409778565,
./stim/MorphM3_08_orig.jpg,126,,,,,,,,,0,126,126,126,,,,,,,,,,,,,,,1.2890625,13.18359375,1,0,0,1.00444698334,,,,,2015_Sep_28_1032,G,facesParametric,11,59.4409778565,
./stim/MorphF7_09_orig.jpg,127,,,,,,,,,0,127,127,127,,,,,,,,,,,,,,,-3.837890625,12.685546875,1,0,0,3.21671009064,,,,,2015_Sep_28_1032,G,facesParametric,11,59.4409778565,
./stim/MorphF1_08_orig.jpg,128,,,,,,,,,0,128,128,128,,,,,,,,,,,,,,,-1.5234375,-3.69140625,1,0,0,10.1200020313,,,,,2015_Sep_28_1032,G,facesParametric,11,59.4409778565,
./stim/MorphF3_01_orig.jpg,129,,,,,,,,,0,129,129,129,,,,,,,,,,,,,,,-1.611328125,-5.2734375,1,0,0,3.20056700706,,,,,2015_Sep_28_1032,G,facesParametric,11,59.4409778565,
./stim/MorphF8_02_orig.jpg,130,,,,,,,,,0,130,130,130,,,,,,,,,,,,,,,-0.322265625,-5.09765625,1,0,0,3.73449397087,,,,,2015_Sep_28_1032,G,facesParametric,11,59.4409778565,
./stim/MorphF2_08_orig.jpg,131,,,,,,,,,0,131,131,131,,,,,,,,,,,,,,,-0.322265625,-5.09765625,1,0,0,1.65769314766,,,,,2015_Sep_28_1032,G,facesParametric,11,59.4409778565,
./stim/MorphM5_06_orig.jpg,132,,,,,,,,,0,132,132,132,,,,,,,,,,,,,,,-0.322265625,-5.09765625,1,0,0,2.44382596016,,,,,2015_Sep_28_1032,G,facesParametric,11,59.4409778565,
./stim/MorphM10_05_orig.jpg,133,,,,,,,,,0,133,133,133,,,,,,,,,,,,,,,1.34765625,-5.9765625,1,0,0,6.28346204758,,,,,2015_Sep_28_1032,G,facesParametric,11,59.4409778565,
./stim/MorphM2_06_orig.jpg,134,,,,,,,,,0,134,134,134,,,,,,,,,,,,,,,1.171875,-6.09375,1,0,0,1.25521492958,,,,,2015_Sep_28_1032,G,facesParametric,11,59.4409778565,
./stim/MorphF4_00_orig.jpg,135,,,,,,,,,0,135,135,135,,,,,,,,,,,,,,,1.171875,-6.09375,1,0,0,0.70195889473,,,,,2015_Sep_28_1032,G,facesParametric,11,59.4409778565,
./stim/MorphF3_08_orig.jpg,136,,,,,,,,,0,136,136,136,,,,,,,,,,,,,,,-3.427734375,-6.943359375,1,0,0,1.28943181038,,,,,2015_Sep_28_1032,G,facesParametric,11,59.4409778565,
./stim/MorphM4_00_orig.jpg,137,,,,,,,,,0,137,137,137,,,,,,,,,,,,,,,-3.076171875,-6.884765625,1,0,0,2.59486889839,,,,,2015_Sep_28_1032,G,facesParametric,11,59.4409778565,
./stim/MorphF8_07_orig.jpg,138,,,,,,,,,0,138,138,138,,,,,,,,,,,,,,,-4.98046875,-6.298828125,1,0,0,2.56301307678,,,,,2015_Sep_28_1032,G,facesParametric,11,59.4409778565,
./stim/MorphM7_00_orig.jpg,139,,,,,,,,,0,139,139,139,,,,,,,,,,,,,,,-4.892578125,-6.26953125,1,0,0,3.24976992607,,,,,2015_Sep_28_1032,G,facesParametric,11,59.4409778565,
./stim/MorphM8_00_orig.jpg,140,,,,,,,,,0,140,140,140,,,,,,,,,,,,,,,15.64453125,-10.078125,1,0,0,10.3059799671,,,,,2015_Sep_28_1032,G,facesParametric,11,59.4409778565,
./stim/MorphF2_04_orig.jpg,141,,,,,,,,,0,141,141,141,,,,,,,,,,,,,,,8.583984375,-9.84375,1,0,0,2.12568283081,,,,,2015_Sep_28_1032,G,facesParametric,11,59.4409778565,
./stim/MorphM1_01_orig.jpg,142,,,,,,,,,0,142,142,142,,,,,,,,,,,,,,,10.634765625,-8.7890625,1,0,0,2.42844486237,,,,,2015_Sep_28_1032,G,facesParametric,11,59.4409778565,
./stim/MorphF6_00_orig.jpg,143,,,,,,,,,0,143,143,143,,,,,,,,,,,,,,,12.744140625,-7.998046875,1,0,0,4.03739404678,,,,,2015_Sep_28_1032,G,facesParametric,11,59.4409778565,
./stim/MorphF7_08_orig.jpg,144,,,,,,,,,0,144,144,144,,,,,,,,,,,,,,,12.94921875,-7.587890625,1,0,0,6.80365920067,,,,,2015_Sep_28_1032,G,facesParametric,11,59.4409778565,
./stim/MorphF10_09_orig.jpg,145,,,,,,,,,0,145,145,145,,,,,,,,,,,,,,,12.099609375,-8.583984375,1,0,0,5.41114997864,,,,,2015_Sep_28_1032,G,facesParametric,11,59.4409778565,
./stim/MorphF2_01_orig.jpg,146,,,,,,,,,0,146,146,146,,,,,,,,,,,,,,,15.087890625,-8.759765625,1,0,0,0.716598987579,,,,,2015_Sep_28_1032,G,facesParametric,11,59.4409778565,
./stim/MorphF10_02_orig.jpg,147,,,,,,,,,0,147,147,147,,,,,,,,,,,,,,,14.677734375,-9.19921875,1,0,0,4.64097118378,,,,,2015_Sep_28_1032,G,facesParametric,11,59.4409778565,
./stim/MorphM2_07_orig.jpg,148,,,,,,,,,0,148,148,148,,,,,,,,,,,,,,,15.0,-9.43359375,1,0,0,1.9258658886,,,,,2015_Sep_28_1032,G,facesParametric,11,59.4409778565,
./stim/MorphF4_07_orig.jpg,149,,,,,,,,,0,149,149,149,,,,,,,,,,,,,,,13.798828125,-1.5234375,1,0,0,14.9820399284,,,,,2015_Sep_28_1032,G,facesParametric,11,59.4409778565,
./stim/MorphM8_09_orig.jpg,150,,,,,,,,,0,150,150,150,,,,,,,,,,,,,,,-5.91796875,-10.107421875,1,0,0,10.1721539497,,,,,2015_Sep_28_1032,G,facesParametric,11,59.4409778565,
./stim/MorphF4_04_orig.jpg,151,,,,,,,,,0,151,151,151,,,,,,,,,,,,,,,-5.947265625,-10.048828125,1,0,0,0.685863018036,,,,,2015_Sep_28_1032,G,facesParametric,11,59.4409778565,
./stim/MorphM1_02_orig.jpg,152,,,,,,,,,0,152,152,152,,,,,,,,,,,,,,,-5.888671875,-10.107421875,1,0,0,0.635499954224,,,,,2015_Sep_28_1032,G,facesParametric,11,59.4409778565,
./stim/MorphM5_10_orig.jpg,153,,,,,,,,,0,153,153,153,,,,,,,,,,,,,,,-5.830078125,-10.078125,1,0,0,1.02135396004,,,,,2015_Sep_28_1032,G,facesParametric,11,59.4409778565,
./stim/MorphM7_02_orig.jpg,154,,,,,,,,,0,154,154,154,,,,,,,,,,,,,,,-5.80078125,-10.048828125,1,0,0,0.568500995636,,,,,2015_Sep_28_1032,G,facesParametric,11,59.4409778565,
./stim/MorphM3_03_orig.jpg,155,,,,,,,,,0,155,155,155,,,,,,,,,,,,,,,-5.80078125,-10.048828125,1,0,0,0.585425138474,,,,,2015_Sep_28_1032,G,facesParametric,11,59.4409778565,
./stim/MorphF6_04_orig.jpg,156,,,,,,,,,0,156,156,156,,,,,,,,,,,,,,,-5.80078125,-10.048828125,1,0,0,0.568463087082,,,,,2015_Sep_28_1032,G,facesParametric,11,59.4409778565,
./stim/MorphM7_09_orig.jpg,157,,,,,,,,,0,157,157,157,,,,,,,,,,,,,,,-5.771484375,-10.01953125,1,0,0,1.08804798126,,,,,2015_Sep_28_1032,G,facesParametric,11,59.4409778565,
./stim/MorphF7_02_orig.jpg,158,,,,,,,,,0,158,158,158,,,,,,,,,,,,,,,-7.060546875,-9.609375,1,0,0,2.57923603058,,,,,2015_Sep_28_1032,G,facesParametric,11,59.4409778565,
./stim/MorphM4_08_orig.jpg,159,,,,,,,,,0,159,159,159,,,,,,,,,,,,,,,-7.265625,-9.521484375,1,0,0,2.86502218246,,,,,2015_Sep_28_1032,G,facesParametric,11,59.4409778565,
./stim/MorphM7_01_orig.jpg,160,,,,,,,,,0,160,160,160,,,,,,,,,,,,,,,-7.294921875,-9.462890625,1,0,0,1.50634288788,,,,,2015_Sep_28_1032,G,facesParametric,11,59.4409778565,
./stim/MorphM10_03_orig.jpg,161,,,,,,,,,0,161,161,161,,,,,,,,,,,,,,,-7.177734375,-9.4921875,1,0,0,1.13744902611,,,,,2015_Sep_28_1032,G,facesParametric,11,59.4409778565,
./stim/MorphF5_06_orig.jpg,162,,,,,,,,,0,162,162,162,,,,,,,,,,,,,,,-6.328125,-8.73046875,1,0,0,1.94237208366,,,,,2015_Sep_28_1032,G,facesParametric,11,59.4409778565,
./stim/MorphM10_09_orig.jpg,163,,,,,,,,,0,163,163,163,,,,,,,,,,,,,,,-6.38671875,-8.61328125,1,0,0,1.52283096313,,,,,2015_Sep_28_1032,G,facesParametric,11,59.4409778565,
./stim/MorphM7_03_orig.jpg,164,,,,,,,,,0,164,164,164,,,,,,,,,,,,,,,-6.533203125,-6.50390625,1,0,0,5.4289290905,,,,,2015_Sep_28_1032,G,facesParametric,11,59.4409778565,
./stim/MorphF8_08_orig.jpg,165,,,,,,,,,0,165,165,165,,,,,,,,,,,,,,,-6.650390625,-6.26953125,1,0,0,1.18845415115,,,,,2015_Sep_28_1032,G,facesParametric,11,59.4409778565,
./stim/MorphF3_09_orig.jpg,166,,,,,,,,,0,166,166,166,,,,,,,,,,,,,,,16.23046875,4.189453125,0,0,1,10.5408298969,,,,,2015_Sep_28_1032,G,facesParametric,11,59.4409778565,
./stim/MorphM5_05_orig.jpg,167,,,,,,,,,0,167,167,167,,,,,,,,,,,,,,,16.376953125,4.248046875,1,0,0,2.58000707626,,,,,2015_Sep_28_1032,G,facesParametric,11,59.4409778565,
./stim/MorphM10_04_orig.jpg,168,,,,,,,,,0,168,168,168,,,,,,,,,,,,,,,16.46484375,4.423828125,1,0,0,2.97997808456,,,,,2015_Sep_28_1032,G,facesParametric,11,59.4409778565,
./stim/MorphM6_03_orig.jpg,169,,,,,,,,,0,169,169,169,,,,,,,,,,,,,,,16.46484375,4.423828125,1,0,0,0.887307882309,,,,,2015_Sep_28_1032,G,facesParametric,11,59.4409778565,
./stim/MorphM1_08_orig.jpg,170,,,,,,,,,0,170,170,170,,,,,,,,,,,,,,,16.34765625,4.482421875,0,0,1,3.18197894096,,,,,2015_Sep_28_1032,G,facesParametric,11,59.4409778565,
./stim/MorphM9_07_orig.jpg,171,,,,,,,,,0,171,171,171,,,,,,,,,,,,,,,21.26953125,4.599609375,1,0,0,2.62927293777,,,,,2015_Sep_28_1032,G,facesParametric,11,59.4409778565,
./stim/MorphF6_08_orig.jpg,172,,,,,,,,,0,172,172,172,,,,,,,,,,,,,,,20.302734375,4.16015625,1,0,0,3.50175023079,,,,,2015_Sep_28_1032,G,facesParametric,11,59.4409778565,
./stim/MorphF9_06_orig.jpg,173,,,,,,,,,0,173,173,173,,,,,,,,,,,,,,,20.361328125,4.3359375,1,0,0,1.05449223518,,,,,2015_Sep_28_1032,G,facesParametric,11,59.4409778565,
./stim/MorphM8_02_orig.jpg,174,,,,,,,,,0,174,174,174,,,,,,,,,,,,,,,20.009765625,4.833984375,1,0,0,1.47317886353,,,,,2015_Sep_28_1032,G,facesParametric,11,59.4409778565,
./stim/MorphF7_03_orig.jpg,175,,,,,,,,,0,175,175,175,,,,,,,,,,,,,,,20.0390625,4.951171875,1,0,0,1.22024798393,,,,,2015_Sep_28_1032,G,facesParametric,11,59.4409778565,
./stim/MorphF2_03_orig.jpg,176,,,,,,,,,0,176,176,176,,,,,,,,,,,,,,,20.09765625,4.951171875,1,0,0,1.28820800781,,,,,2015_Sep_28_1032,G,facesParametric,11,59.4409778565,
./stim/MorphM3_02_orig.jpg,177,,,,,,,,,0,177,177,177,,,,,,,,,,,,,,,20.15625,4.892578125,1,0,0,0.903596162796,,,,,2015_Sep_28_1032,G,facesParametric,11,59.4409778565,
./stim/MorphF9_09_orig.jpg,178,,,,,,,,,0,178,178,178,,,,,,,,,,,,,,,19.189453125,5.859375,1,0,0,3.75280594826,,,,,2015_Sep_28_1032,G,facesParametric,11,59.4409778565,
./stim/MorphM8_08_orig.jpg,179,,,,,,,,,0,179,179,179,,,,,,,,,,,,,,,18.10546875,5.625,1,0,0,1.23869919777,,,,,2015_Sep_28_1032,G,facesParametric,11,59.4409778565,
./stim/MorphM1_04_orig.jpg,180,,,,,,,,,0,180,180,180,,,,,,,,,,,,,,,7.001953125,3.75,1,0,0,6.41784214973,,,,,2015_Sep_28_1032,G,facesParametric,11,59.4409778565,
./stim/MorphF5_03_orig.jpg,181,,,,,,,,,0,181,181,181,,,,,,,,,,,,,,,8.671875,4.189453125,0,0,1,1.57406401634,,,,,2015_Sep_28_1032,G,facesParametric,11,59.4409778565,
./stim/MorphM7_05_orig.jpg,182,,,,,,,,,0,182,182,182,,,,,,,,,,,,,,,8.61328125,4.072265625,0,0,1,1.15338802338,,,,,2015_Sep_28_1032,G,facesParametric,11,59.4409778565,
./stim/MorphF1_09_orig.jpg,183,,,,,,,,,0,183,183,183,,,,,,,,,,,,,,,3.3984375,-1.142578125,1,0,0,7.85901808739,,,,,2015_Sep_28_1032,G,facesParametric,11,59.4409778565,
./stim/MorphF2_05_orig.jpg,184,,,,,,,,,0,184,184,184,,,,,,,,,,,,,,,18.80859375,6.708984375,1,0,0,4.84274697304,,,,,2015_Sep_28_1032,G,facesParametric,11,59.4409778565,
./stim/MorphF8_05_orig.jpg,185,,,,,,,,,0,185,185,185,,,,,,,,,,,,,,,20.537109375,5.91796875,0,0,1,2.56078600883,,,,,2015_Sep_28_1032,G,facesParametric,11,59.4409778565,
./stim/MorphM10_06_orig.jpg,186,,,,,,,,,0,186,186,186,,,,,,,,,,,,,,,21.357421875,6.09375,1,0,0,1.47139310837,,,,,2015_Sep_28_1032,G,facesParametric,11,59.4409778565,
./stim/MorphF7_10_orig.jpg,187,,,,,,,,,0,187,187,187,,,,,,,,,,,,,,,23.173828125,7.294921875,1,0,0,2.44551897049,,,,,2015_Sep_28_1032,G,facesParametric,11,59.4409778565,
./stim/MorphM9_05_orig.jpg,188,,,,,,,,,0,188,188,188,,,,,,,,,,,,,,,23.349609375,7.294921875,1,0,0,1.18845200539,,,,,2015_Sep_28_1032,G,facesParametric,11,59.4409778565,
./stim/MorphM8_07_orig.jpg,189,,,,,,,,,0,189,189,189,,,,,,,,,,,,,,,23.408203125,7.763671875,1,0,0,3.11396813393,,,,,2015_Sep_28_1032,G,facesParametric,11,59.4409778565,
./stim/MorphM6_06_orig.jpg,190,,,,,,,,,0,190,190,190,,,,,,,,,,,,,,,23.349609375,7.734375,1,0,0,0.753041982651,,,,,2015_Sep_28_1032,G,facesParametric,11,59.4409778565,
./stim/MorphF6_06_orig.jpg,191,,,,,,,,,0,191,191,191,,,,,,,,,,,,,,,23.3203125,7.705078125,1,0,0,0.617767095566,,,,,2015_Sep_28_1032,G,facesParametric,11,59.4409778565,
./stim/MorphM3_10_orig.jpg,192,,,,,,,,,0,192,192,192,,,,,,,,,,,,,,,23.3203125,7.705078125,1,0,0,0.584162950516,,,,,2015_Sep_28_1032,G,facesParametric,11,59.4409778565,
./stim/MorphM5_08_orig.jpg,193,,,,,,,,,0,193,193,193,,,,,,,,,,,,,,,23.291015625,7.998046875,1,0,0,6.51829504967,,,,,2015_Sep_28_1032,G,facesParametric,11,59.4409778565,
./stim/MorphM4_07_orig.jpg,194,,,,,,,,,0,194,194,194,,,,,,,,,,,,,,,22.55859375,6.650390625,1,0,0,5.0433409214,,,,,2015_Sep_28_1032,G,facesParametric,11,59.4409778565,
./stim/MorphM2_09_orig.jpg,195,,,,,,,,,0,195,195,195,,,,,,,,,,,,,,,22.44140625,6.796875,1,0,0,0.786391973495,,,,,2015_Sep_28_1032,G,facesParametric,11,59.4409778565,
./stim/MorphF6_10_orig.jpg,196,,,,,,,,,0,196,196,196,,,,,,,,,,,,,,,23.349609375,7.3828125,1,0,0,0.685700178146,,,,,2015_Sep_28_1032,G,facesParametric,11,59.4409778565,
./stim/MorphF2_09_orig.jpg,197,,,,,,,,,0,197,197,197,,,,,,,,,,,,,,,5.126953125,5.68359375,1,0,0,5.94863986969,,,,,2015_Sep_28_1032,G,facesParametric,11,59.4409778565,
./stim/MorphM6_10_orig.jpg,198,,,,,,,,,0,198,198,198,,,,,,,,,,,,,,,5.947265625,7.236328125,1,0,0,1.79148697853,,,,,2015_Sep_28_1032,G,facesParametric,11,59.4409778565,
./stim/MorphM4_03_orig.jpg,199,,,,,,,,,0,199,199,199,,,,,,,,,,,,,,,5.947265625,7.060546875,1,0,0,1.15477609634,,,,,2015_Sep_28_1032,G,facesParametric,11,59.4409778565,
./stim/MorphM1_10_orig.jpg,200,,,,,,,,,0,200,200,200,,,,,,,,,,,,,,,6.240234375,7.1484375,1,0,0,1.99338698387,,,,,2015_Sep_28_1032,G,facesParametric,11,59.4409778565,
./stim/MorphM8_05_orig.jpg,201,,,,,,,,,0,201,201,201,,,,,,,,,,,,,,,17.05078125,-1.58203125,1,0,0,17.0422518253,,,,,2015_Sep_28_1032,G,facesParametric,11,59.4409778565,
./stim/MorphF8_06_orig.jpg,202,,,,,,,,,0,202,202,202,,,,,,,,,,,,,,,17.021484375,-1.7578125,1,0,0,1.10380506516,,,,,2015_Sep_28_1032,G,facesParametric,11,59.4409778565,
./stim/MorphF4_06_orig.jpg,203,,,,,,,,,0,203,203,203,,,,,,,,,,,,,,,17.138671875,-1.7578125,1,0,0,1.00449991226,,,,,2015_Sep_28_1032,G,facesParametric,11,59.4409778565,
./stim/MorphM9_10_orig.jpg,204,,,,,,,,,0,204,204,204,,,,,,,,,,,,,,,17.8125,-2.05078125,1,0,0,2.8129761219,,,,,2015_Sep_28_1032,G,facesParametric,11,59.4409778565,
./stim/MorphM3_00_orig.jpg,205,,,,,,,,,0,205,205,205,,,,,,,,,,,,,,,21.591796875,-1.58203125,1,0,0,2.57991719246,,,,,2015_Sep_28_1032,G,facesParametric,11,59.4409778565,
./stim/MorphM9_06_orig.jpg,206,,,,,,,,,0,206,206,206,,,,,,,,,,,,,,,21.884765625,-1.552734375,1,0,0,0.784096002579,,,,,2015_Sep_28_1032,G,facesParametric,11,59.4409778565,
./stim/MorphM1_03_orig.jpg,207,,,,,,,,,0,207,207,207,,,,,,,,,,,,,,,22.060546875,-1.46484375,1,0,0,1.33814907074,,,,,2015_Sep_28_1032,G,facesParametric,11,59.4409778565,
./stim/MorphM6_07_orig.jpg,208,,,,,,,,,0,208,208,208,,,,,,,,,,,,,,,23.056640625,-2.724609375,1,0,0,1.30578804016,,,,,2015_Sep_28_1032,G,facesParametric,11,59.4409778565,
./stim/MorphM2_03_orig.jpg,209,,,,,,,,,0,209,209,209,,,,,,,,,,,,,,,23.408203125,-2.8125,1,0,0,1.35472989082,,,,,2015_Sep_28_1032,G,facesParametric,11,59.4409778565,
./stim/MorphF6_02_orig.jpg,210,,,,,,,,,0,210,210,210,,,,,,,,,,,,,,,23.408203125,-3.251953125,1,0,0,1.38994812965,,,,,2015_Sep_28_1032,G,facesParametric,11,59.4409778565,
./stim/MorphM9_01_orig.jpg,211,,,,,,,,,0,211,211,211,,,,,,,,,,,,,,,23.408203125,-3.251953125,1,0,0,0.920542955399,,,,,2015_Sep_28_1032,G,facesParametric,11,59.4409778565,
./stim/MorphM4_09_orig.jpg,212,,,,,,,,,0,212,212,212,,,,,,,,,,,,,,,23.408203125,-3.22265625,1,0,0,1.62473106384,,,,,2015_Sep_28_1032,G,facesParametric,11,59.4409778565,
./stim/MorphF1_01_orig.jpg,213,,,,,,,,,0,213,213,213,,,,,,,,,,,,,,,14.033203125,-3.515625,1,0,0,3.80118989944,,,,,2015_Sep_28_1032,G,facesParametric,11,59.4409778565,
./stim/MorphM9_03_orig.jpg,214,,,,,,,,,0,214,214,214,,,,,,,,,,,,,,,14.033203125,-3.515625,1,0,0,0.652235031128,,,,,2015_Sep_28_1032,G,facesParametric,11,59.4409778565,
./stim/MorphM2_10_orig.jpg,215,,,,,,,,,0,215,215,215,,,,,,,,,,,,,,,14.0625,-3.662109375,1,0,0,0.635278940201,,,,,2015_Sep_28_1032,G,facesParametric,11,59.4409778565,
./stim/MorphF7_00_orig.jpg,216,,,,,,,,,0,216,216,216,,,,,,,,,,,,,,,14.091796875,-3.69140625,1,0,0,0.485332012177,,,,,2015_Sep_28_1032,G,facesParametric,11,59.4409778565,
./stim/MorphM6_00_orig.jpg,217,,,,,,,,,0,217,217,217,,,,,,,,,,,,,,,14.091796875,-3.69140625,1,0,0,0.484349012375,,,,,2015_Sep_28_1032,G,facesParametric,11,59.4409778565,
./stim/MorphF1_02_orig.jpg,218,,,,,,,,,0,218,218,218,,,,,,,,,,,,,,,14.150390625,-3.720703125,1,0,0,1.27229595184,,,,,2015_Sep_28_1032,G,facesParametric,11,59.4409778565,
./stim/MorphF8_09_orig.jpg,219,,,,,,,,,0,219,219,219,,,,,,,,,,,,,,,14.23828125,-3.69140625,1,0,0,0.619140863419,,,,,2015_Sep_28_1032,G,facesParametric,11,59.4409778565,
,,,,,,,,,,,,,,,,,,,,,,,,,,,,,,,,,,,,return,46.3134498596,2015_Sep_28_1032,G,facesParametric,11,59.4409778565,
