img,num,basicLoop.thisRepN,basicLoop.thisTrialN,basicLoop.thisN,basicLoop.thisIndex,trials.thisRepN,trials.thisTrialN,trials.thisN,trials.thisIndex,trials2.thisRepN,trials2.thisTrialN,trials2.thisN,trials2.thisIndex,key_resp_2.keys,key_resp_2.rt,basicRating1.response,basicRating1.rt,basicRating2.response,basicRating2.rt,basicRating3.response,basicRating3.rt,basicRating4.response,basicRating4.rt,key_resp_3.keys,key_resp_3.rt,key_resp_4.keys,key_resp_4.rt,mouseResp.x,mouseResp.y,mouseResp.leftButton,mouseResp.midButton,mouseResp.rightButton,mouseResp.time,key_resp_5.keys,key_resp_5.rt,key_resp_7.keys,key_resp_7.rt,date,group,expName,participant,frameRate,
,,,,,,,,,,,,,,return,46.1588201523,,,,,,,,,,,,,,,,,,,,,,,2015_Sep_28_1232,G,facesParametric,12,59.5393628302,
./basicStim/34M_SP_O.jpg,,0,0,0,75,,,,,,,,,,,None,None,None,None,SUP,13.676,None,None,,,,,,,,,,,,,,,2015_Sep_28_1232,G,facesParametric,12,59.5393628302,
./basicStim/34M_AN_O.jpg,,0,1,1,70,,,,,,,,,,,None,None,ANG,6.066,None,None,None,None,,,,,,,,,,,,,,,2015_Sep_28_1232,G,facesParametric,12,59.5393628302,
./basicStim/34M_HA_O.jpg,,0,2,2,73,,,,,,,,,,,None,None,None,None,None,None,NTR,3.924,,,,,,,,,,,,,,,2015_Sep_28_1232,G,facesParametric,12,59.5393628302,
./basicStim/36M_AN_O.jpg,,0,3,3,77,,,,,,,,,,,None,None,None,None,DIS,4.861,None,None,,,,,,,,,,,,,,,2015_Sep_28_1232,G,facesParametric,12,59.5393628302,
./basicStim/09F_AN_O.jpg,,0,4,4,35,,,,,,,,,,,None,None,None,None,DIS,4.041,None,None,,,,,,,,,,,,,,,2015_Sep_28_1232,G,facesParametric,12,59.5393628302,
./basicStim/28M_FE_O.jpg,,0,5,5,65,,,,,,,,,,,None,None,None,None,SUP,9.49,None,None,,,,,,,,,,,,,,,2015_Sep_28_1232,G,facesParametric,12,59.5393628302,
./basicStim/02F_SP_O.jpg,,0,6,6,12,,,,,,,,,,,None,None,None,None,SUP,8.064,None,None,,,,,,,,,,,,,,,2015_Sep_28_1232,G,facesParametric,12,59.5393628302,
./basicStim/28M_HA_O.jpg,,0,7,7,66,,,,,,,,,,,HAP,3.782,None,None,None,None,None,None,,,,,,,,,,,,,,,2015_Sep_28_1232,G,facesParametric,12,59.5393628302,
./basicStim/28M_SP_O.jpg,,0,8,8,68,,,,,,,,,,,None,None,None,None,SUP,5.318,None,None,,,,,,,,,,,,,,,2015_Sep_28_1232,G,facesParametric,12,59.5393628302,
./basicStim/02F_DI_O.jpg,,0,9,9,8,,,,,,,,,,,None,None,None,None,DIS,14.106,None,None,,,,,,,,,,,,,,,2015_Sep_28_1232,G,facesParametric,12,59.5393628302,
./basicStim/06F_FE_O.jpg,,0,10,10,23,,,,,,,,,,,None,None,ANG,16.743,None,None,None,None,,,,,,,,,,,,,,,2015_Sep_28_1232,G,facesParametric,12,59.5393628302,
./basicStim/36M_HA_O.jpg,,0,11,11,80,,,,,,,,,,,None,None,ANG,12.238,None,None,None,None,,,,,,,,,,,,,,,2015_Sep_28_1232,G,facesParametric,12,59.5393628302,
./basicStim/36M_SP_O.jpg,,0,12,12,82,,,,,,,,,,,None,None,None,None,DIS,8.601,None,None,,,,,,,,,,,,,,,2015_Sep_28_1232,G,facesParametric,12,59.5393628302,
./basicStim/28M_DI_O.jpg,,0,13,13,64,,,,,,,,,,,None,None,None,None,DIS,5.027,None,None,,,,,,,,,,,,,,,2015_Sep_28_1232,G,facesParametric,12,59.5393628302,
./basicStim/24M_SA_C.jpg,,0,14,14,60,,,,,,,,,,,None,None,None,None,DIS,8.685,None,None,,,,,,,,,,,,,,,2015_Sep_28_1232,G,facesParametric,12,59.5393628302,
./basicStim/23M_SP_O.jpg,,0,15,15,54,,,,,,,,,,,None,None,None,None,SUP,2.482,None,None,,,,,,,,,,,,,,,2015_Sep_28_1232,G,facesParametric,12,59.5393628302,
./basicStim/07F_FE_O.jpg,,0,16,16,30,,,,,,,,,,,None,None,None,None,DIS,2.3,None,None,,,,,,,,,,,,,,,2015_Sep_28_1232,G,facesParametric,12,59.5393628302,
./basicStim/01F_DI_O.jpg,,0,17,17,1,,,,,,,,,,,None,None,None,None,DIS,2.801,None,None,,,,,,,,,,,,,,,2015_Sep_28_1232,G,facesParametric,12,59.5393628302,
./basicStim/09F_FE_O.jpg,,0,18,18,37,,,,,,,,,,,None,None,None,None,DIS,3.071,None,None,,,,,,,,,,,,,,,2015_Sep_28_1232,G,facesParametric,12,59.5393628302,
./basicStim/34M_NE_C.jpg,,0,19,19,76,,,,,,,,,,,None,None,None,None,None,None,NTR,1.66,,,,,,,,,,,,,,,2015_Sep_28_1232,G,facesParametric,12,59.5393628302,
./basicStim/09F_SA_C.jpg,,0,20,20,39,,,,,,,,,,,SAD,3.85,None,None,None,None,None,None,,,,,,,,,,,,,,,2015_Sep_28_1232,G,facesParametric,12,59.5393628302,
./basicStim/09F_HA_O.jpg,,0,21,21,38,,,,,,,,,,,HAP,1.683,None,None,None,None,None,None,,,,,,,,,,,,,,,2015_Sep_28_1232,G,facesParametric,12,59.5393628302,
./basicStim/36M_NE_C.jpg,,0,22,22,83,,,,,,,,,,,None,None,None,None,None,None,NTR,1.61,,,,,,,,,,,,,,,2015_Sep_28_1232,G,facesParametric,12,59.5393628302,
./basicStim/09F_NE_C.jpg,,0,23,23,41,,,,,,,,,,,None,None,None,None,None,None,NTR,0.977,,,,,,,,,,,,,,,2015_Sep_28_1232,G,facesParametric,12,59.5393628302,
./basicStim/06F_HA_O.jpg,,0,24,24,24,,,,,,,,,,,HAP,1.563,None,None,None,None,None,None,,,,,,,,,,,,,,,2015_Sep_28_1232,G,facesParametric,12,59.5393628302,
./basicStim/02F_HA_O.jpg,,0,25,25,10,,,,,,,,,,,HAP,2.439,None,None,None,None,None,None,,,,,,,,,,,,,,,2015_Sep_28_1232,G,facesParametric,12,59.5393628302,
./basicStim/28M_SA_C.jpg,,0,26,26,67,,,,,,,,,,,None,None,ANG,5.908,None,None,None,None,,,,,,,,,,,,,,,2015_Sep_28_1232,G,facesParametric,12,59.5393628302,
./basicStim/07F_AN_O.jpg,,0,27,27,28,,,,,,,,,,,None,None,ANG,2.824,None,None,None,None,,,,,,,,,,,,,,,2015_Sep_28_1232,G,facesParametric,12,59.5393628302,
./basicStim/24M_AN_O.jpg,,0,28,28,56,,,,,,,,,,,None,None,ANG,4.023,None,None,None,None,,,,,,,,,,,,,,,2015_Sep_28_1232,G,facesParametric,12,59.5393628302,
./basicStim/02F_AN_O.jpg,,0,29,29,7,,,,,,,,,,,None,None,ANG,3.624,None,None,None,None,,,,,,,,,,,,,,,2015_Sep_28_1232,G,facesParametric,12,59.5393628302,
./basicStim/03F_SA_C.jpg,,0,30,30,18,,,,,,,,,,,None,None,None,None,DIS,5.797,None,None,,,,,,,,,,,,,,,2015_Sep_28_1232,G,facesParametric,12,59.5393628302,
./basicStim/24M_SP_O.jpg,,0,31,31,61,,,,,,,,,,,None,None,None,None,SUP,6.696,None,None,,,,,,,,,,,,,,,2015_Sep_28_1232,G,facesParametric,12,59.5393628302,
./basicStim/34M_FE_O.jpg,,0,32,32,72,,,,,,,,,,,None,None,FEA,5.016,None,None,None,None,,,,,,,,,,,,,,,2015_Sep_28_1232,G,facesParametric,12,59.5393628302,
./basicStim/03F_HA_O.jpg,,0,33,33,17,,,,,,,,,,,HAP,4.381,None,None,None,None,None,None,,,,,,,,,,,,,,,2015_Sep_28_1232,G,facesParametric,12,59.5393628302,
./basicStim/21M_DI_O.jpg,,0,34,34,43,,,,,,,,,,,None,None,None,None,DIS,2.481,None,None,,,,,,,,,,,,,,,2015_Sep_28_1232,G,facesParametric,12,59.5393628302,
./basicStim/07F_SA_C.jpg,,0,35,35,32,,,,,,,,,,,SAD,2.185,None,None,None,None,None,None,,,,,,,,,,,,,,,2015_Sep_28_1232,G,facesParametric,12,59.5393628302,
./basicStim/21M_AN_O.jpg,,0,36,36,42,,,,,,,,,,,None,None,ANG,3.374,None,None,None,None,,,,,,,,,,,,,,,2015_Sep_28_1232,G,facesParametric,12,59.5393628302,
./basicStim/24M_FE_O.jpg,,0,37,37,58,,,,,,,,,,,None,None,FEA,5.636,None,None,None,None,,,,,,,,,,,,,,,2015_Sep_28_1232,G,facesParametric,12,59.5393628302,
./basicStim/02F_NE_C.jpg,,0,38,38,13,,,,,,,,,,,None,None,None,None,None,None,NTR,4.121,,,,,,,,,,,,,,,2015_Sep_28_1232,G,facesParametric,12,59.5393628302,
./basicStim/23M_SA_C.jpg,,0,39,39,53,,,,,,,,,,,None,None,None,None,DIS,3.558,None,None,,,,,,,,,,,,,,,2015_Sep_28_1232,G,facesParametric,12,59.5393628302,
./basicStim/21M_HA_O.jpg,,0,40,40,45,,,,,,,,,,,None,None,None,None,SUP,9.675,None,None,,,,,,,,,,,,,,,2015_Sep_28_1232,G,facesParametric,12,59.5393628302,
./basicStim/01F_AN_O.jpg,,0,41,41,0,,,,,,,,,,,None,None,ANG,4.643,None,None,None,None,,,,,,,,,,,,,,,2015_Sep_28_1232,G,facesParametric,12,59.5393628302,
./basicStim/21M_SA_C.jpg,,0,42,42,46,,,,,,,,,,,None,None,None,None,DIS,6.216,None,None,,,,,,,,,,,,,,,2015_Sep_28_1232,G,facesParametric,12,59.5393628302,
./basicStim/06F_SP_O.jpg,,0,43,43,26,,,,,,,,,,,None,None,None,None,SUP,4.664,None,None,,,,,,,,,,,,,,,2015_Sep_28_1232,G,facesParametric,12,59.5393628302,
./basicStim/02F_SA_C.jpg,,0,44,44,11,,,,,,,,,,,SAD,5.07,None,None,None,None,None,None,,,,,,,,,,,,,,,2015_Sep_28_1232,G,facesParametric,12,59.5393628302,
./basicStim/01F_SP_O.jpg,,0,45,45,5,,,,,,,,,,,None,None,None,None,SUP,6.96,None,None,,,,,,,,,,,,,,,2015_Sep_28_1232,G,facesParametric,12,59.5393628302,
./basicStim/03F_NE_C.jpg,,0,46,46,20,,,,,,,,,,,None,None,None,None,None,None,NTR,3.289,,,,,,,,,,,,,,,2015_Sep_28_1232,G,facesParametric,12,59.5393628302,
./basicStim/23M_DI_O.jpg,,0,47,47,50,,,,,,,,,,,SAD,2.803,None,None,None,None,None,None,,,,,,,,,,,,,,,2015_Sep_28_1232,G,facesParametric,12,59.5393628302,
./basicStim/34M_SA_C.jpg,,0,48,48,74,,,,,,,,,,,SAD,0.899,None,None,None,None,None,None,,,,,,,,,,,,,,,2015_Sep_28_1232,G,facesParametric,12,59.5393628302,
./basicStim/21M_NE_C.jpg,,0,49,49,48,,,,,,,,,,,None,None,None,None,None,None,NTR,1.645,,,,,,,,,,,,,,,2015_Sep_28_1232,G,facesParametric,12,59.5393628302,
./basicStim/06F_NE_C.jpg,,0,50,50,27,,,,,,,,,,,None,None,None,None,None,None,NTR,2.736,,,,,,,,,,,,,,,2015_Sep_28_1232,G,facesParametric,12,59.5393628302,
./basicStim/23M_HA_O.jpg,,0,51,51,52,,,,,,,,,,,HAP,3.696,None,None,None,None,None,None,,,,,,,,,,,,,,,2015_Sep_28_1232,G,facesParametric,12,59.5393628302,
./basicStim/03F_FE_O.jpg,,0,52,52,16,,,,,,,,,,,None,None,FEA,3.32,None,None,None,None,,,,,,,,,,,,,,,2015_Sep_28_1232,G,facesParametric,12,59.5393628302,
./basicStim/24M_NE_C.jpg,,0,53,53,62,,,,,,,,,,,None,None,None,None,None,None,NTR,1.795,,,,,,,,,,,,,,,2015_Sep_28_1232,G,facesParametric,12,59.5393628302,
./basicStim/07F_SP_O.jpg,,0,54,54,33,,,,,,,,,,,None,None,None,None,SUP,4.82,None,None,,,,,,,,,,,,,,,2015_Sep_28_1232,G,facesParametric,12,59.5393628302,
./basicStim/07F_NE_C.jpg,,0,55,55,34,,,,,,,,,,,None,None,None,None,None,None,NTR,5.738,,,,,,,,,,,,,,,2015_Sep_28_1232,G,facesParametric,12,59.5393628302,
./basicStim/09F_DI_O.jpg,,0,56,56,36,,,,,,,,,,,None,None,None,None,DIS,3.659,None,None,,,,,,,,,,,,,,,2015_Sep_28_1232,G,facesParametric,12,59.5393628302,
./basicStim/21M_SP_O.jpg,,0,57,57,47,,,,,,,,,,,None,None,None,None,SUP,1.945,None,None,,,,,,,,,,,,,,,2015_Sep_28_1232,G,facesParametric,12,59.5393628302,
./basicStim/23M_FE_O.jpg,,0,58,58,51,,,,,,,,,,,None,None,FEA,6.657,None,None,None,None,,,,,,,,,,,,,,,2015_Sep_28_1232,G,facesParametric,12,59.5393628302,
./basicStim/36M_FE_O.jpg,,0,59,59,79,,,,,,,,,,,None,None,None,None,DIS,6.707,None,None,,,,,,,,,,,,,,,2015_Sep_28_1232,G,facesParametric,12,59.5393628302,
./basicStim/02F_FE_O.jpg,,0,60,60,9,,,,,,,,,,,None,None,FEA,4.899,None,None,None,None,,,,,,,,,,,,,,,2015_Sep_28_1232,G,facesParametric,12,59.5393628302,
./basicStim/07F_HA_O.jpg,,0,61,61,31,,,,,,,,,,,HAP,1.923,None,None,None,None,None,None,,,,,,,,,,,,,,,2015_Sep_28_1232,G,facesParametric,12,59.5393628302,
./basicStim/23M_AN_O.jpg,,0,62,62,49,,,,,,,,,,,None,None,ANG,0.941,None,None,None,None,,,,,,,,,,,,,,,2015_Sep_28_1232,G,facesParametric,12,59.5393628302,
./basicStim/01F_SA_C.jpg,,0,63,63,4,,,,,,,,,,,SAD,2.522,None,None,None,None,None,None,,,,,,,,,,,,,,,2015_Sep_28_1232,G,facesParametric,12,59.5393628302,
./basicStim/24M_HA_O.jpg,,0,64,64,59,,,,,,,,,,,HAP,1.245,None,None,None,None,None,None,,,,,,,,,,,,,,,2015_Sep_28_1232,G,facesParametric,12,59.5393628302,
./basicStim/21M_FE_O.jpg,,0,65,65,44,,,,,,,,,,,None,None,FEA,1.468,None,None,None,None,,,,,,,,,,,,,,,2015_Sep_28_1232,G,facesParametric,12,59.5393628302,
./basicStim/06F_SA_C.jpg,,0,66,66,25,,,,,,,,,,,SAD,5.319,None,None,None,None,None,None,,,,,,,,,,,,,,,2015_Sep_28_1232,G,facesParametric,12,59.5393628302,
./basicStim/01F_HA_O.jpg,,0,67,67,3,,,,,,,,,,,HAP,1.276,None,None,None,None,None,None,,,,,,,,,,,,,,,2015_Sep_28_1232,G,facesParametric,12,59.5393628302,
./basicStim/07F_DI_O.jpg,,0,68,68,29,,,,,,,,,,,None,None,None,None,DIS,5.634,None,None,,,,,,,,,,,,,,,2015_Sep_28_1232,G,facesParametric,12,59.5393628302,
./basicStim/28M_AN_O.jpg,,0,69,69,63,,,,,,,,,,,SAD,5.186,None,None,None,None,None,None,,,,,,,,,,,,,,,2015_Sep_28_1232,G,facesParametric,12,59.5393628302,
./basicStim/01F_FE_O.jpg,,0,70,70,2,,,,,,,,,,,None,None,None,None,SUP,3.723,None,None,,,,,,,,,,,,,,,2015_Sep_28_1232,G,facesParametric,12,59.5393628302,
./basicStim/06F_DI_O.jpg,,0,71,71,22,,,,,,,,,,,None,None,None,None,DIS,1.731,None,None,,,,,,,,,,,,,,,2015_Sep_28_1232,G,facesParametric,12,59.5393628302,
./basicStim/03F_DI_O.jpg,,0,72,72,15,,,,,,,,,,,None,None,None,None,DIS,4.257,None,None,,,,,,,,,,,,,,,2015_Sep_28_1232,G,facesParametric,12,59.5393628302,
./basicStim/23M_NE_C.jpg,,0,73,73,55,,,,,,,,,,,None,None,None,None,None,None,NTR,1.78,,,,,,,,,,,,,,,2015_Sep_28_1232,G,facesParametric,12,59.5393628302,
./basicStim/06F_AN_O.jpg,,0,74,74,21,,,,,,,,,,,None,None,ANG,2.671,None,None,None,None,,,,,,,,,,,,,,,2015_Sep_28_1232,G,facesParametric,12,59.5393628302,
./basicStim/28M_NE_C.jpg,,0,75,75,69,,,,,,,,,,,None,None,None,None,None,None,NTR,3.709,,,,,,,,,,,,,,,2015_Sep_28_1232,G,facesParametric,12,59.5393628302,
./basicStim/09F_SP_O.jpg,,0,76,76,40,,,,,,,,,,,None,None,FEA,4.347,None,None,None,None,,,,,,,,,,,,,,,2015_Sep_28_1232,G,facesParametric,12,59.5393628302,
./basicStim/36M_DI_O.jpg,,0,77,77,78,,,,,,,,,,,None,None,None,None,DIS,2.818,None,None,,,,,,,,,,,,,,,2015_Sep_28_1232,G,facesParametric,12,59.5393628302,
./basicStim/34M_DI_O.jpg,,0,78,78,71,,,,,,,,,,,None,None,None,None,DIS,1.511,None,None,,,,,,,,,,,,,,,2015_Sep_28_1232,G,facesParametric,12,59.5393628302,
./basicStim/03F_AN_O.jpg,,0,79,79,14,,,,,,,,,,,None,None,ANG,3.052,None,None,None,None,,,,,,,,,,,,,,,2015_Sep_28_1232,G,facesParametric,12,59.5393628302,
./basicStim/24M_DI_O.jpg,,0,80,80,57,,,,,,,,,,,SAD,4.149,None,None,None,None,None,None,,,,,,,,,,,,,,,2015_Sep_28_1232,G,facesParametric,12,59.5393628302,
./basicStim/01F_NE_C.jpg,,0,81,81,6,,,,,,,,,,,None,None,None,None,None,None,NTR,2.601,,,,,,,,,,,,,,,2015_Sep_28_1232,G,facesParametric,12,59.5393628302,
./basicStim/03F_SP_O.jpg,,0,82,82,19,,,,,,,,,,,HAP,3.039,None,None,None,None,None,None,,,,,,,,,,,,,,,2015_Sep_28_1232,G,facesParametric,12,59.5393628302,
./basicStim/36M_SA_C.jpg,,0,83,83,81,,,,,,,,,,,SAD,4.852,None,None,None,None,None,None,,,,,,,,,,,,,,,2015_Sep_28_1232,G,facesParametric,12,59.5393628302,
,,,,,,,,,,,,,,,,,,,,,,,,return,3.4368429184,,,,,,,,,,,,,2015_Sep_28_1232,G,facesParametric,12,59.5393628302,
,,,,,,,,,,,,,,return,53.3627209663,,,,,,,,,,,,,,,,,,,,,,,2015_Sep_28_1232,G,facesParametric,12,59.5393628302,
,,,,,,,,,,,,,,,,,,,,,,,,return,9.43564891815,,,,,,,,,,,,,2015_Sep_28_1232,G,facesParametric,12,59.5393628302,
,,,,,,,,,,,,,,,,,,,,,,,,,,return,1.10605597496,,,,,,,,,,,2015_Sep_28_1232,G,facesParametric,12,59.5393628302,
./stim/MorphF9_01_orig.jpg,0,,,,,0,0,0,0,,,,,,,,,,,,,,,,,,,-6.708984375,-8.14453125,0,0,1,18.2538759708,,,,,2015_Sep_28_1232,G,facesParametric,12,59.5393628302,
./stim/MorphM1_02_orig.jpg,1,,,,,0,1,1,1,,,,,,,,,,,,,,,,,,,-11.484375,-11.54296875,1,0,0,9.784512043,,,,,2015_Sep_28_1232,G,facesParametric,12,59.5393628302,
./stim/MorphM2_01_orig.jpg,2,,,,,0,2,2,2,,,,,,,,,,,,,,,,,,,-10.6640625,-13.154296875,0,0,1,7.92583489418,,,,,2015_Sep_28_1232,G,facesParametric,12,59.5393628302,
./stim/MorphF2_07_orig.jpg,3,,,,,0,3,3,3,,,,,,,,,,,,,,,,,,,-10.751953125,-13.154296875,1,0,0,1.80940008163,,,,,2015_Sep_28_1232,G,facesParametric,12,59.5393628302,
./stim/MorphF9_02_orig.jpg,4,,,,,0,4,4,4,,,,,,,,,,,,,,,,,,,-10.751953125,-13.154296875,0,0,1,2.20912909508,,,,,2015_Sep_28_1232,G,facesParametric,12,59.5393628302,
./stim/MorphF6_05_orig.jpg,5,,,,,0,5,5,5,,,,,,,,,,,,,,,,,,,-10.8984375,-13.154296875,0,0,1,3.60009813309,,,,,2015_Sep_28_1232,G,facesParametric,12,59.5393628302,
./stim/MorphM5_05_orig.jpg,6,,,,,0,6,6,6,,,,,,,,,,,,,,,,,,,-10.8984375,-13.154296875,1,0,0,2.54463005066,,,,,2015_Sep_28_1232,G,facesParametric,12,59.5393628302,
./stim/MorphF10_02_orig.jpg,7,,,,,0,7,7,7,,,,,,,,,,,,,,,,,,,-10.8984375,-13.154296875,1,0,0,6.08305120468,,,,,2015_Sep_28_1232,G,facesParametric,12,59.5393628302,
./stim/MorphM6_02_orig.jpg,8,,,,,0,8,8,8,,,,,,,,,,,,,,,,,,,-10.8984375,-13.154296875,0,0,1,1.4900829792,,,,,2015_Sep_28_1232,G,facesParametric,12,59.5393628302,
./stim/MorphM4_01_orig.jpg,9,,,,,0,9,9,9,,,,,,,,,,,,,,,,,,,-10.986328125,-13.154296875,0,0,1,1.52367806435,,,,,2015_Sep_28_1232,G,facesParametric,12,59.5393628302,
./stim/MorphM8_05_orig.jpg,10,,,,,0,10,10,10,,,,,,,,,,,,,,,,,,,-10.986328125,-13.154296875,1,0,0,2.32732987404,,,,,2015_Sep_28_1232,G,facesParametric,12,59.5393628302,
./stim/MorphF10_06_orig.jpg,11,,,,,0,11,11,11,,,,,,,,,,,,,,,,,,,-10.986328125,-13.154296875,1,0,0,1.77490997314,,,,,2015_Sep_28_1232,G,facesParametric,12,59.5393628302,
./stim/MorphM3_05_orig.jpg,12,,,,,0,12,12,12,,,,,,,,,,,,,,,,,,,-10.986328125,-13.154296875,0,0,1,4.48998999596,,,,,2015_Sep_28_1232,G,facesParametric,12,59.5393628302,
./stim/MorphM4_03_orig.jpg,13,,,,,0,13,13,13,,,,,,,,,,,,,,,,,,,-10.986328125,-13.154296875,0,0,1,3.66930198669,,,,,2015_Sep_28_1232,G,facesParametric,12,59.5393628302,
./stim/MorphF10_10_orig.jpg,14,,,,,0,14,14,14,,,,,,,,,,,,,,,,,,,-10.986328125,-13.154296875,1,0,0,1.13687992096,,,,,2015_Sep_28_1232,G,facesParametric,12,59.5393628302,
./stim/MorphF1_02_orig.jpg,15,,,,,0,15,15,15,,,,,,,,,,,,,,,,,,,-10.986328125,-13.154296875,0,0,1,1.33887386322,,,,,2015_Sep_28_1232,G,facesParametric,12,59.5393628302,
./stim/MorphM9_07_orig.jpg,16,,,,,0,16,16,16,,,,,,,,,,,,,,,,,,,-10.986328125,-13.095703125,1,0,0,1.77340602875,,,,,2015_Sep_28_1232,G,facesParametric,12,59.5393628302,
./stim/MorphF4_07_orig.jpg,17,,,,,0,17,17,17,,,,,,,,,,,,,,,,,,,-10.986328125,-13.095703125,1,0,0,1.60765004158,,,,,2015_Sep_28_1232,G,facesParametric,12,59.5393628302,
./stim/MorphF10_05_orig.jpg,18,,,,,0,18,18,18,,,,,,,,,,,,,,,,,,,-10.986328125,-13.095703125,0,0,1,1.32296800613,,,,,2015_Sep_28_1232,G,facesParametric,12,59.5393628302,
./stim/MorphM3_03_orig.jpg,19,,,,,0,19,19,19,,,,,,,,,,,,,,,,,,,-10.986328125,-13.06640625,1,0,0,2.49577713013,,,,,2015_Sep_28_1232,G,facesParametric,12,59.5393628302,
./stim/MorphF3_05_orig.jpg,20,,,,,0,20,20,20,,,,,,,,,,,,,,,,,,,-10.95703125,-13.037109375,0,0,1,2.00994801521,,,,,2015_Sep_28_1232,G,facesParametric,12,59.5393628302,
./stim/MorphM5_10_orig.jpg,21,,,,,0,21,21,21,,,,,,,,,,,,,,,,,,,-10.986328125,-13.0078125,1,0,0,2.3952870369,,,,,2015_Sep_28_1232,G,facesParametric,12,59.5393628302,
./stim/MorphF5_09_orig.jpg,22,,,,,0,22,22,22,,,,,,,,,,,,,,,,,,,-10.986328125,-13.0078125,1,0,0,1.87670207024,,,,,2015_Sep_28_1232,G,facesParametric,12,59.5393628302,
./stim/MorphF3_01_orig.jpg,23,,,,,0,23,23,23,,,,,,,,,,,,,,,,,,,-10.986328125,-13.0078125,0,0,1,0.934161901474,,,,,2015_Sep_28_1232,G,facesParametric,12,59.5393628302,
./stim/MorphM5_00_orig.jpg,24,,,,,0,24,24,24,,,,,,,,,,,,,,,,,,,-10.986328125,-13.0078125,1,0,0,2.04359197617,,,,,2015_Sep_28_1232,G,facesParametric,12,59.5393628302,
./stim/MorphF5_04_orig.jpg,25,,,,,0,25,25,25,,,,,,,,,,,,,,,,,,,-11.015625,-12.94921875,0,0,1,2.26052093506,,,,,2015_Sep_28_1232,G,facesParametric,12,59.5393628302,
./stim/MorphF2_08_orig.jpg,26,,,,,0,26,26,26,,,,,,,,,,,,,,,,,,,-11.015625,-12.94921875,1,0,0,2.53013300896,,,,,2015_Sep_28_1232,G,facesParametric,12,59.5393628302,
./stim/MorphF7_04_orig.jpg,27,,,,,0,27,27,27,,,,,,,,,,,,,,,,,,,-10.95703125,-12.890625,0,0,1,5.7278380394,,,,,2015_Sep_28_1232,G,facesParametric,12,59.5393628302,
./stim/MorphF4_06_orig.jpg,28,,,,,0,28,28,28,,,,,,,,,,,,,,,,,,,-10.95703125,-12.890625,0,0,1,1.75736904144,,,,,2015_Sep_28_1232,G,facesParametric,12,59.5393628302,
./stim/MorphM5_07_orig.jpg,29,,,,,0,29,29,29,,,,,,,,,,,,,,,,,,,-10.95703125,-12.890625,1,0,0,2.34365320206,,,,,2015_Sep_28_1232,G,facesParametric,12,59.5393628302,
./stim/MorphF9_08_orig.jpg,30,,,,,0,30,30,30,,,,,,,,,,,,,,,,,,,-10.95703125,-12.890625,1,0,0,1.64116597176,,,,,2015_Sep_28_1232,G,facesParametric,12,59.5393628302,
./stim/MorphM8_07_orig.jpg,31,,,,,0,31,31,31,,,,,,,,,,,,,,,,,,,-10.95703125,-12.83203125,1,0,0,1.70635604858,,,,,2015_Sep_28_1232,G,facesParametric,12,59.5393628302,
./stim/MorphM4_08_orig.jpg,32,,,,,0,32,32,32,,,,,,,,,,,,,,,,,,,-10.95703125,-12.71484375,1,0,0,4.23934984207,,,,,2015_Sep_28_1232,G,facesParametric,12,59.5393628302,
./stim/MorphF1_06_orig.jpg,33,,,,,0,33,33,33,,,,,,,,,,,,,,,,,,,-10.95703125,-12.71484375,0,0,1,0.953891038895,,,,,2015_Sep_28_1232,G,facesParametric,12,59.5393628302,
./stim/MorphM6_08_orig.jpg,34,,,,,0,34,34,34,,,,,,,,,,,,,,,,,,,-10.986328125,-12.744140625,0,0,1,2.99859786034,,,,,2015_Sep_28_1232,G,facesParametric,12,59.5393628302,
./stim/MorphM4_07_orig.jpg,35,,,,,0,35,35,35,,,,,,,,,,,,,,,,,,,-10.986328125,-12.744140625,1,0,0,2.09365200996,,,,,2015_Sep_28_1232,G,facesParametric,12,59.5393628302,
./stim/MorphM6_10_orig.jpg,36,,,,,0,36,36,36,,,,,,,,,,,,,,,,,,,-11.07421875,-12.71484375,1,0,0,1.43981099129,,,,,2015_Sep_28_1232,G,facesParametric,12,59.5393628302,
./stim/MorphM2_06_orig.jpg,37,,,,,0,37,37,37,,,,,,,,,,,,,,,,,,,-10.986328125,-12.65625,0,0,1,1.55764913559,,,,,2015_Sep_28_1232,G,facesParametric,12,59.5393628302,
./stim/MorphF6_10_orig.jpg,38,,,,,0,38,38,38,,,,,,,,,,,,,,,,,,,-10.986328125,-12.65625,1,0,0,1.33781290054,,,,,2015_Sep_28_1232,G,facesParametric,12,59.5393628302,
./stim/MorphF3_09_orig.jpg,39,,,,,0,39,39,39,,,,,,,,,,,,,,,,,,,-11.015625,-12.59765625,1,0,0,3.51785206795,,,,,2015_Sep_28_1232,G,facesParametric,12,59.5393628302,
./stim/MorphM7_00_orig.jpg,40,,,,,0,40,40,40,,,,,,,,,,,,,,,,,,,-11.015625,-12.59765625,0,0,1,3.73583698273,,,,,2015_Sep_28_1232,G,facesParametric,12,59.5393628302,
./stim/MorphM9_10_orig.jpg,41,,,,,0,41,41,41,,,,,,,,,,,,,,,,,,,-10.986328125,-12.59765625,1,0,0,2.26112008095,,,,,2015_Sep_28_1232,G,facesParametric,12,59.5393628302,
./stim/MorphF4_04_orig.jpg,42,,,,,0,42,42,42,,,,,,,,,,,,,,,,,,,-10.927734375,-12.59765625,0,0,1,4.87549805641,,,,,2015_Sep_28_1232,G,facesParametric,12,59.5393628302,
./stim/MorphM3_01_orig.jpg,43,,,,,0,43,43,43,,,,,,,,,,,,,,,,,,,-10.927734375,-12.568359375,0,0,1,1.70819187164,,,,,2015_Sep_28_1232,G,facesParametric,12,59.5393628302,
./stim/MorphF1_03_orig.jpg,44,,,,,0,44,44,44,,,,,,,,,,,,,,,,,,,-10.927734375,-12.568359375,0,0,1,0.919569015503,,,,,2015_Sep_28_1232,G,facesParametric,12,59.5393628302,
./stim/MorphM8_10_orig.jpg,45,,,,,0,45,45,45,,,,,,,,,,,,,,,,,,,-10.927734375,-12.568359375,1,0,0,1.17180585861,,,,,2015_Sep_28_1232,G,facesParametric,12,59.5393628302,
./stim/MorphM1_05_orig.jpg,46,,,,,0,46,46,46,,,,,,,,,,,,,,,,,,,-10.927734375,-12.568359375,1,0,0,2.99886393547,,,,,2015_Sep_28_1232,G,facesParametric,12,59.5393628302,
./stim/MorphF4_10_orig.jpg,47,,,,,0,47,47,47,,,,,,,,,,,,,,,,,,,-10.927734375,-12.568359375,1,0,0,1.23908805847,,,,,2015_Sep_28_1232,G,facesParametric,12,59.5393628302,
./stim/MorphF2_02_orig.jpg,48,,,,,0,48,48,48,,,,,,,,,,,,,,,,,,,-10.95703125,-12.509765625,0,0,1,1.22207212448,,,,,2015_Sep_28_1232,G,facesParametric,12,59.5393628302,
./stim/MorphM5_03_orig.jpg,49,,,,,0,49,49,49,,,,,,,,,,,,,,,,,,,-10.927734375,-12.392578125,1,0,0,2.29473209381,,,,,2015_Sep_28_1232,G,facesParametric,12,59.5393628302,
./stim/MorphM2_05_orig.jpg,50,,,,,0,50,50,50,,,,,,,,,,,,,,,,,,,-10.927734375,-12.392578125,0,0,1,2.73066496849,,,,,2015_Sep_28_1232,G,facesParametric,12,59.5393628302,
./stim/MorphF6_06_orig.jpg,51,,,,,0,51,51,51,,,,,,,,,,,,,,,,,,,-10.869140625,-12.36328125,0,0,1,1.05407118797,,,,,2015_Sep_28_1232,G,facesParametric,12,59.5393628302,
./stim/MorphM9_02_orig.jpg,52,,,,,0,52,52,52,,,,,,,,,,,,,,,,,,,-10.986328125,-12.421875,0,0,1,2.64702796936,,,,,2015_Sep_28_1232,G,facesParametric,12,59.5393628302,
./stim/MorphM10_10_orig.jpg,53,,,,,0,53,53,53,,,,,,,,,,,,,,,,,,,-10.95703125,-12.48046875,1,0,0,0.820116043091,,,,,2015_Sep_28_1232,G,facesParametric,12,59.5393628302,
./stim/MorphF7_07_orig.jpg,54,,,,,0,54,54,54,,,,,,,,,,,,,,,,,,,-10.986328125,-12.509765625,1,0,0,1.35578083992,,,,,2015_Sep_28_1232,G,facesParametric,12,59.5393628302,
./stim/MorphF9_03_orig.jpg,55,,,,,0,55,55,55,,,,,,,,,,,,,,,,,,,-11.044921875,-12.5390625,0,0,1,0.938319921494,,,,,2015_Sep_28_1232,G,facesParametric,12,59.5393628302,
./stim/MorphM6_01_orig.jpg,56,,,,,0,56,56,56,,,,,,,,,,,,,,,,,,,-11.044921875,-12.48046875,1,0,0,3.36500501633,,,,,2015_Sep_28_1232,G,facesParametric,12,59.5393628302,
./stim/MorphM10_03_orig.jpg,57,,,,,0,57,57,57,,,,,,,,,,,,,,,,,,,-11.044921875,-12.48046875,0,0,1,2.07665300369,,,,,2015_Sep_28_1232,G,facesParametric,12,59.5393628302,
./stim/MorphF1_07_orig.jpg,58,,,,,0,58,58,58,,,,,,,,,,,,,,,,,,,-11.044921875,-12.48046875,0,0,1,1.97685790062,,,,,2015_Sep_28_1232,G,facesParametric,12,59.5393628302,
./stim/MorphM2_07_orig.jpg,59,,,,,0,59,59,59,,,,,,,,,,,,,,,,,,,-11.103515625,-12.421875,0,0,1,3.02961587906,,,,,2015_Sep_28_1232,G,facesParametric,12,59.5393628302,
./stim/MorphF8_03_orig.jpg,60,,,,,0,60,60,60,,,,,,,,,,,,,,,,,,,-11.1328125,-12.451171875,0,0,1,0.819859027863,,,,,2015_Sep_28_1232,G,facesParametric,12,59.5393628302,
./stim/MorphF2_10_orig.jpg,61,,,,,0,61,61,61,,,,,,,,,,,,,,,,,,,-11.162109375,-12.48046875,0,0,1,1.02060484886,,,,,2015_Sep_28_1232,G,facesParametric,12,59.5393628302,
./stim/MorphM9_06_orig.jpg,62,,,,,0,62,62,62,,,,,,,,,,,,,,,,,,,-11.162109375,-12.5390625,0,0,1,0.920495986938,,,,,2015_Sep_28_1232,G,facesParametric,12,59.5393628302,
./stim/MorphF7_10_orig.jpg,63,,,,,0,63,63,63,,,,,,,,,,,,,,,,,,,-11.19140625,-12.392578125,1,0,0,2.51287102699,,,,,2015_Sep_28_1232,G,facesParametric,12,59.5393628302,
./stim/MorphF9_07_orig.jpg,64,,,,,0,64,64,64,,,,,,,,,,,,,,,,,,,-11.19140625,-12.392578125,1,0,0,2.57791805267,,,,,2015_Sep_28_1232,G,facesParametric,12,59.5393628302,
./stim/MorphF4_08_orig.jpg,65,,,,,0,65,65,65,,,,,,,,,,,,,,,,,,,-11.19140625,-12.392578125,1,0,0,2.31133008003,,,,,2015_Sep_28_1232,G,facesParametric,12,59.5393628302,
./stim/MorphF7_02_orig.jpg,66,,,,,0,66,66,66,,,,,,,,,,,,,,,,,,,-11.19140625,-12.392578125,0,0,1,1.20523285866,,,,,2015_Sep_28_1232,G,facesParametric,12,59.5393628302,
./stim/MorphM1_10_orig.jpg,67,,,,,0,67,67,67,,,,,,,,,,,,,,,,,,,-11.25,-12.333984375,1,0,0,2.96495604515,,,,,2015_Sep_28_1232,G,facesParametric,12,59.5393628302,
./stim/MorphM10_05_orig.jpg,68,,,,,0,68,68,68,,,,,,,,,,,,,,,,,,,-11.220703125,-12.275390625,1,0,0,4.23896694183,,,,,2015_Sep_28_1232,G,facesParametric,12,59.5393628302,
./stim/MorphF4_09_orig.jpg,69,,,,,0,69,69,69,,,,,,,,,,,,,,,,,,,-11.220703125,-12.275390625,1,0,0,1.30595612526,,,,,2015_Sep_28_1232,G,facesParametric,12,59.5393628302,
./stim/MorphM4_04_orig.jpg,70,,,,,0,70,70,70,,,,,,,,,,,,,,,,,,,-11.220703125,-12.275390625,0,0,1,1.26987314224,,,,,2015_Sep_28_1232,G,facesParametric,12,59.5393628302,
./stim/MorphF10_04_orig.jpg,71,,,,,0,71,71,71,,,,,,,,,,,,,,,,,,,-11.220703125,-12.275390625,0,0,1,1.69184494019,,,,,2015_Sep_28_1232,G,facesParametric,12,59.5393628302,
./stim/MorphM4_06_orig.jpg,72,,,,,0,72,72,72,,,,,,,,,,,,,,,,,,,-11.220703125,-12.275390625,0,0,1,1.25534415245,,,,,2015_Sep_28_1232,G,facesParametric,12,59.5393628302,
./stim/MorphM6_04_orig.jpg,73,,,,,0,73,73,73,,,,,,,,,,,,,,,,,,,-11.220703125,-12.275390625,0,0,1,0.970581054688,,,,,2015_Sep_28_1232,G,facesParametric,12,59.5393628302,
./stim/MorphF8_10_orig.jpg,74,,,,,0,74,74,74,,,,,,,,,,,,,,,,,,,-11.162109375,-12.3046875,1,0,0,3.31744503975,,,,,2015_Sep_28_1232,G,facesParametric,12,59.5393628302,
./stim/MorphM8_01_orig.jpg,75,,,,,0,75,75,75,,,,,,,,,,,,,,,,,,,-11.162109375,-12.3046875,0,0,1,1.43978095055,,,,,2015_Sep_28_1232,G,facesParametric,12,59.5393628302,
./stim/MorphF10_00_orig.jpg,76,,,,,0,76,76,76,,,,,,,,,,,,,,,,,,,-11.103515625,-11.25,0,0,1,4.13865280151,,,,,2015_Sep_28_1232,G,facesParametric,12,59.5393628302,
./stim/MorphM8_02_orig.jpg,77,,,,,0,77,77,77,,,,,,,,,,,,,,,,,,,-11.1328125,-11.279296875,0,0,1,2.31147003174,,,,,2015_Sep_28_1232,G,facesParametric,12,59.5393628302,
./stim/MorphM3_07_orig.jpg,78,,,,,0,78,78,78,,,,,,,,,,,,,,,,,,,-11.1328125,-11.279296875,0,0,1,1.97667908669,,,,,2015_Sep_28_1232,G,facesParametric,12,59.5393628302,
./stim/MorphF2_04_orig.jpg,79,,,,,0,79,79,79,,,,,,,,,,,,,,,,,,,-11.1328125,-11.279296875,0,0,1,1.25361990929,,,,,2015_Sep_28_1232,G,facesParametric,12,59.5393628302,
./stim/MorphF8_04_orig.jpg,80,,,,,0,80,80,80,,,,,,,,,,,,,,,,,,,-11.19140625,-11.103515625,0,0,1,3.80323696136,,,,,2015_Sep_28_1232,G,facesParametric,12,59.5393628302,
./stim/MorphM10_07_orig.jpg,81,,,,,0,81,81,81,,,,,,,,,,,,,,,,,,,-11.103515625,-11.07421875,1,0,0,3.0654759407,,,,,2015_Sep_28_1232,G,facesParametric,12,59.5393628302,
./stim/MorphF9_10_orig.jpg,82,,,,,0,82,82,82,,,,,,,,,,,,,,,,,,,-11.07421875,-11.044921875,1,0,0,0.937467098236,,,,,2015_Sep_28_1232,G,facesParametric,12,59.5393628302,
./stim/MorphF6_00_orig.jpg,83,,,,,0,83,83,83,,,,,,,,,,,,,,,,,,,-11.07421875,-11.044921875,0,0,1,1.47318887711,,,,,2015_Sep_28_1232,G,facesParametric,12,59.5393628302,
./stim/MorphF5_06_orig.jpg,84,,,,,0,84,84,84,,,,,,,,,,,,,,,,,,,-11.07421875,-11.07421875,0,0,1,1.38938498497,,,,,2015_Sep_28_1232,G,facesParametric,12,59.5393628302,
./stim/MorphM7_08_orig.jpg,85,,,,,0,85,85,85,,,,,,,,,,,,,,,,,,,-11.103515625,-11.103515625,1,0,0,1.08789610863,,,,,2015_Sep_28_1232,G,facesParametric,12,59.5393628302,
./stim/MorphF3_00_orig.jpg,86,,,,,0,86,86,86,,,,,,,,,,,,,,,,,,,-11.103515625,-11.103515625,0,0,1,2.19462800026,,,,,2015_Sep_28_1232,G,facesParametric,12,59.5393628302,
./stim/MorphF9_06_orig.jpg,87,,,,,0,87,87,87,,,,,,,,,,,,,,,,,,,-11.1328125,-11.07421875,1,0,0,3.25013613701,,,,,2015_Sep_28_1232,G,facesParametric,12,59.5393628302,
./stim/MorphM1_06_orig.jpg,88,,,,,0,88,88,88,,,,,,,,,,,,,,,,,,,-11.1328125,-11.07421875,1,0,0,2.96493601799,,,,,2015_Sep_28_1232,G,facesParametric,12,59.5393628302,
./stim/MorphF5_07_orig.jpg,89,,,,,0,89,89,89,,,,,,,,,,,,,,,,,,,-11.19140625,-11.103515625,1,0,0,0.869173049927,,,,,2015_Sep_28_1232,G,facesParametric,12,59.5393628302,
./stim/MorphM10_01_orig.jpg,90,,,,,0,90,90,90,,,,,,,,,,,,,,,,,,,-11.19140625,-11.103515625,0,0,1,1.27203893661,,,,,2015_Sep_28_1232,G,facesParametric,12,59.5393628302,
./stim/MorphF7_06_orig.jpg,91,,,,,0,91,91,91,,,,,,,,,,,,,,,,,,,-11.19140625,-11.103515625,1,0,0,2.36177206039,,,,,2015_Sep_28_1232,G,facesParametric,12,59.5393628302,
./stim/MorphF3_06_orig.jpg,92,,,,,0,92,92,92,,,,,,,,,,,,,,,,,,,-11.19140625,-11.103515625,0,0,1,1.42125105858,,,,,2015_Sep_28_1232,G,facesParametric,12,59.5393628302,
./stim/MorphM7_09_orig.jpg,93,,,,,0,93,93,93,,,,,,,,,,,,,,,,,,,-11.220703125,-11.1328125,1,0,0,1.60776901245,,,,,2015_Sep_28_1232,G,facesParametric,12,59.5393628302,
./stim/MorphM9_05_orig.jpg,94,,,,,0,94,94,94,,,,,,,,,,,,,,,,,,,-11.220703125,-11.1328125,0,0,1,1.7418589592,,,,,2015_Sep_28_1232,G,facesParametric,12,59.5393628302,
./stim/MorphF1_01_orig.jpg,95,,,,,0,95,95,95,,,,,,,,,,,,,,,,,,,-11.19140625,-11.103515625,0,0,1,0.76975107193,,,,,2015_Sep_28_1232,G,facesParametric,12,59.5393628302,
./stim/MorphM5_02_orig.jpg,96,,,,,0,96,96,96,,,,,,,,,,,,,,,,,,,-11.162109375,-11.07421875,0,0,1,1.75698804855,,,,,2015_Sep_28_1232,G,facesParametric,12,59.5393628302,
./stim/MorphF10_09_orig.jpg,97,,,,,0,97,97,97,,,,,,,,,,,,,,,,,,,-11.162109375,-11.07421875,1,0,0,3.45058298111,,,,,2015_Sep_28_1232,G,facesParametric,12,59.5393628302,
./stim/MorphF3_07_orig.jpg,98,,,,,0,98,98,98,,,,,,,,,,,,,,,,,,,-11.19140625,-11.044921875,0,0,1,0.986037015915,,,,,2015_Sep_28_1232,G,facesParametric,12,59.5393628302,
./stim/MorphM10_06_orig.jpg,99,,,,,0,99,99,99,,,,,,,,,,,,,,,,,,,-11.220703125,-11.015625,1,0,0,2.46228313446,,,,,2015_Sep_28_1232,G,facesParametric,12,59.5393628302,
./stim/MorphF5_05_orig.jpg,100,,,,,0,100,100,100,,,,,,,,,,,,,,,,,,,-11.25,-11.044921875,1,0,0,1.67259597778,,,,,2015_Sep_28_1232,G,facesParametric,12,59.5393628302,
./stim/MorphF9_00_orig.jpg,101,,,,,0,101,101,101,,,,,,,,,,,,,,,,,,,-11.25,-11.044921875,0,0,1,1.06921601295,,,,,2015_Sep_28_1232,G,facesParametric,12,59.5393628302,
./stim/MorphM3_08_orig.jpg,102,,,,,0,102,102,102,,,,,,,,,,,,,,,,,,,-11.25,-11.044921875,1,0,0,1.60801410675,,,,,2015_Sep_28_1232,G,facesParametric,12,59.5393628302,
./stim/MorphF8_00_orig.jpg,103,,,,,0,103,103,103,,,,,,,,,,,,,,,,,,,-11.25,-11.044921875,0,0,1,1.08821201324,,,,,2015_Sep_28_1232,G,facesParametric,12,59.5393628302,
./stim/MorphF4_02_orig.jpg,104,,,,,0,104,104,104,,,,,,,,,,,,,,,,,,,-10.986328125,-11.19140625,1,0,0,3.46696305275,,,,,2015_Sep_28_1232,G,facesParametric,12,59.5393628302,
./stim/MorphF3_04_orig.jpg,105,,,,,0,105,105,105,,,,,,,,,,,,,,,,,,,-10.986328125,-11.19140625,0,0,1,1.47283887863,,,,,2015_Sep_28_1232,G,facesParametric,12,59.5393628302,
./stim/MorphF8_07_orig.jpg,106,,,,,0,106,106,106,,,,,,,,,,,,,,,,,,,-10.986328125,-11.19140625,1,0,0,1.79187202454,,,,,2015_Sep_28_1232,G,facesParametric,12,59.5393628302,
./stim/MorphM7_06_orig.jpg,107,,,,,0,107,107,107,,,,,,,,,,,,,,,,,,,-10.95703125,-11.220703125,1,0,0,1.00436115265,,,,,2015_Sep_28_1232,G,facesParametric,12,59.5393628302,
./stim/MorphF8_08_orig.jpg,108,,,,,0,108,108,108,,,,,,,,,,,,,,,,,,,-10.95703125,-11.220703125,1,0,0,1.54045796394,,,,,2015_Sep_28_1232,G,facesParametric,12,59.5393628302,
./stim/MorphF9_05_orig.jpg,109,,,,,0,109,109,109,,,,,,,,,,,,,,,,,,,-10.95703125,-11.220703125,1,0,0,4.8242661953,,,,,2015_Sep_28_1232,G,facesParametric,12,59.5393628302,
./stim/MorphM10_00_orig.jpg,110,,,,,0,110,110,110,,,,,,,,,,,,,,,,,,,-10.95703125,-11.220703125,0,0,1,3.41711997986,,,,,2015_Sep_28_1232,G,facesParametric,12,59.5393628302,
./stim/MorphM3_02_orig.jpg,111,,,,,0,111,111,111,,,,,,,,,,,,,,,,,,,-10.8984375,-11.1328125,1,0,0,2.71361088753,,,,,2015_Sep_28_1232,G,facesParametric,12,59.5393628302,
./stim/MorphF5_08_orig.jpg,112,,,,,0,112,112,112,,,,,,,,,,,,,,,,,,,-10.8984375,-11.1328125,1,0,0,1.17322492599,,,,,2015_Sep_28_1232,G,facesParametric,12,59.5393628302,
./stim/MorphF1_05_orig.jpg,113,,,,,0,113,113,113,,,,,,,,,,,,,,,,,,,-10.869140625,-11.103515625,0,0,1,1.06943893433,,,,,2015_Sep_28_1232,G,facesParametric,12,59.5393628302,
./stim/MorphM1_08_orig.jpg,114,,,,,0,114,114,114,,,,,,,,,,,,,,,,,,,-10.869140625,-11.103515625,1,0,0,2.79762411118,,,,,2015_Sep_28_1232,G,facesParametric,12,59.5393628302,
./stim/MorphF4_03_orig.jpg,115,,,,,0,115,115,115,,,,,,,,,,,,,,,,,,,-10.869140625,-11.103515625,0,0,1,1.42405891418,,,,,2015_Sep_28_1232,G,facesParametric,12,59.5393628302,
./stim/MorphM8_03_orig.jpg,116,,,,,0,116,116,116,,,,,,,,,,,,,,,,,,,-10.869140625,-11.103515625,0,0,1,1.63950181007,,,,,2015_Sep_28_1232,G,facesParametric,12,59.5393628302,
./stim/MorphF6_07_orig.jpg,117,,,,,0,117,117,117,,,,,,,,,,,,,,,,,,,-10.83984375,-11.1328125,1,0,0,2.71379685402,,,,,2015_Sep_28_1232,G,facesParametric,12,59.5393628302,
./stim/MorphF2_09_orig.jpg,118,,,,,0,118,118,118,,,,,,,,,,,,,,,,,,,-10.810546875,-11.103515625,1,0,0,3.14875197411,,,,,2015_Sep_28_1232,G,facesParametric,12,59.5393628302,
./stim/MorphM5_06_orig.jpg,119,,,,,0,119,119,119,,,,,,,,,,,,,,,,,,,-10.810546875,-11.103515625,1,0,0,2.52956986427,,,,,2015_Sep_28_1232,G,facesParametric,12,59.5393628302,
./stim/MorphM9_08_orig.jpg,120,,,,,0,120,120,120,,,,,,,,,,,,,,,,,,,-10.83984375,-11.07421875,1,0,0,4.33904790878,,,,,2015_Sep_28_1232,G,facesParametric,12,59.5393628302,
./stim/MorphM6_05_orig.jpg,121,,,,,0,121,121,121,,,,,,,,,,,,,,,,,,,-10.810546875,-11.103515625,1,0,0,1.30636382103,,,,,2015_Sep_28_1232,G,facesParametric,12,59.5393628302,
./stim/MorphM9_01_orig.jpg,122,,,,,0,122,122,122,,,,,,,,,,,,,,,,,,,-10.810546875,-11.1328125,1,0,0,1.50676608086,,,,,2015_Sep_28_1232,G,facesParametric,12,59.5393628302,
./stim/MorphF7_03_orig.jpg,123,,,,,0,123,123,123,,,,,,,,,,,,,,,,,,,-10.83984375,-11.19140625,0,0,1,2.3614859581,,,,,2015_Sep_28_1232,G,facesParametric,12,59.5393628302,
./stim/MorphM7_03_orig.jpg,124,,,,,0,124,124,124,,,,,,,,,,,,,,,,,,,-10.83984375,-11.19140625,1,0,0,1.77515101433,,,,,2015_Sep_28_1232,G,facesParametric,12,59.5393628302,
./stim/MorphM10_09_orig.jpg,125,,,,,0,125,125,125,,,,,,,,,,,,,,,,,,,-11.103515625,-11.1328125,1,0,0,6.13303995132,,,,,2015_Sep_28_1232,G,facesParametric,12,59.5393628302,
./stim/MorphF5_02_orig.jpg,126,,,,,0,126,126,126,,,,,,,,,,,,,,,,,,,-11.07421875,-11.162109375,0,0,1,2.89696884155,,,,,2015_Sep_28_1232,G,facesParametric,12,59.5393628302,
./stim/MorphF6_03_orig.jpg,127,,,,,0,127,127,127,,,,,,,,,,,,,,,,,,,-11.044921875,-11.1328125,1,0,0,5.88097906113,,,,,2015_Sep_28_1232,G,facesParametric,12,59.5393628302,
./stim/MorphF4_00_orig.jpg,128,,,,,0,128,128,128,,,,,,,,,,,,,,,,,,,-10.95703125,-11.103515625,1,0,0,2.32844519615,,,,,2015_Sep_28_1232,G,facesParametric,12,59.5393628302,
./stim/MorphM5_04_orig.jpg,129,,,,,0,129,129,129,,,,,,,,,,,,,,,,,,,-10.95703125,-11.103515625,1,0,0,3.13174915314,,,,,2015_Sep_28_1232,G,facesParametric,12,59.5393628302,
./stim/MorphM1_01_orig.jpg,130,,,,,0,130,130,130,,,,,,,,,,,,,,,,,,,-10.95703125,-11.103515625,0,0,1,2.93252682686,,,,,2015_Sep_28_1232,G,facesParametric,12,59.5393628302,
./stim/MorphM7_04_orig.jpg,131,,,,,0,131,131,131,,,,,,,,,,,,,,,,,,,-11.1328125,-11.25,1,0,0,5.49455308914,,,,,2015_Sep_28_1232,G,facesParametric,12,59.5393628302,
./stim/MorphF7_08_orig.jpg,132,,,,,0,132,132,132,,,,,,,,,,,,,,,,,,,-10.869140625,-11.044921875,1,0,0,7.05458712578,,,,,2015_Sep_28_1232,G,facesParametric,12,59.5393628302,
./stim/MorphF4_05_orig.jpg,133,,,,,0,133,133,133,,,,,,,,,,,,,,,,,,,-10.869140625,-11.044921875,0,0,1,1.64046406746,,,,,2015_Sep_28_1232,G,facesParametric,12,59.5393628302,
./stim/MorphF3_02_orig.jpg,134,,,,,0,134,134,134,,,,,,,,,,,,,,,,,,,-10.927734375,-11.19140625,0,0,1,2.2444870472,,,,,2015_Sep_28_1232,G,facesParametric,12,59.5393628302,
./stim/MorphM7_05_orig.jpg,135,,,,,0,135,135,135,,,,,,,,,,,,,,,,,,,-10.8984375,-11.25,1,0,0,2.22734713554,,,,,2015_Sep_28_1232,G,facesParametric,12,59.5393628302,
./stim/MorphM1_00_orig.jpg,136,,,,,0,136,136,136,,,,,,,,,,,,,,,,,,,-10.751953125,-11.25,0,0,1,7.64091682434,,,,,2015_Sep_28_1232,G,facesParametric,12,59.5393628302,
./stim/MorphM4_05_orig.jpg,137,,,,,0,137,137,137,,,,,,,,,,,,,,,,,,,-10.751953125,-11.30859375,0,0,1,2.0101108551,,,,,2015_Sep_28_1232,G,facesParametric,12,59.5393628302,
./stim/MorphF2_06_orig.jpg,138,,,,,0,138,138,138,,,,,,,,,,,,,,,,,,,-10.751953125,-11.30859375,0,0,1,1.38965892792,,,,,2015_Sep_28_1232,G,facesParametric,12,59.5393628302,
./stim/MorphF7_01_orig.jpg,139,,,,,0,139,139,139,,,,,,,,,,,,,,,,,,,-10.751953125,-11.30859375,0,0,1,0.9542760849,,,,,2015_Sep_28_1232,G,facesParametric,12,59.5393628302,
./stim/MorphF1_08_orig.jpg,140,,,,,0,140,140,140,,,,,,,,,,,,,,,,,,,-10.810546875,-11.30859375,0,0,1,2.20885014534,,,,,2015_Sep_28_1232,G,facesParametric,12,59.5393628302,
./stim/MorphM8_08_orig.jpg,141,,,,,0,141,141,141,,,,,,,,,,,,,,,,,,,-10.810546875,-11.30859375,1,0,0,5.09356188774,,,,,2015_Sep_28_1232,G,facesParametric,12,59.5393628302,
./stim/MorphM6_06_orig.jpg,142,,,,,0,142,142,142,,,,,,,,,,,,,,,,,,,-10.810546875,-11.3671875,0,0,1,1.02031493187,,,,,2015_Sep_28_1232,G,facesParametric,12,59.5393628302,
./stim/MorphM3_00_orig.jpg,143,,,,,0,143,143,143,,,,,,,,,,,,,,,,,,,-10.810546875,-11.3671875,0,0,1,1.28886294365,,,,,2015_Sep_28_1232,G,facesParametric,12,59.5393628302,
./stim/MorphM5_08_orig.jpg,144,,,,,0,144,144,144,,,,,,,,,,,,,,,,,,,-10.810546875,-11.3671875,1,0,0,1.72468996048,,,,,2015_Sep_28_1232,G,facesParametric,12,59.5393628302,
./stim/MorphF6_02_orig.jpg,145,,,,,0,145,145,145,,,,,,,,,,,,,,,,,,,-10.810546875,-11.3671875,0,0,1,1.52397799492,,,,,2015_Sep_28_1232,G,facesParametric,12,59.5393628302,
./stim/MorphF8_02_orig.jpg,146,,,,,0,146,146,146,,,,,,,,,,,,,,,,,,,-10.810546875,-11.3671875,0,0,1,1.28758001328,,,,,2015_Sep_28_1232,G,facesParametric,12,59.5393628302,
./stim/MorphF2_03_orig.jpg,147,,,,,0,147,147,147,,,,,,,,,,,,,,,,,,,-10.810546875,-11.3671875,0,0,1,0.887051105499,,,,,2015_Sep_28_1232,G,facesParametric,12,59.5393628302,
./stim/MorphF8_06_orig.jpg,148,,,,,0,148,148,148,,,,,,,,,,,,,,,,,,,-10.83984375,-11.337890625,0,0,1,1.67449116707,,,,,2015_Sep_28_1232,G,facesParametric,12,59.5393628302,
./stim/MorphM8_00_orig.jpg,149,,,,,0,149,149,149,,,,,,,,,,,,,,,,,,,-11.015625,-11.42578125,0,0,1,1.20545101166,,,,,2015_Sep_28_1232,G,facesParametric,12,59.5393628302,
./stim/MorphF8_09_orig.jpg,150,,,,,0,150,150,150,,,,,,,,,,,,,,,,,,,-11.044921875,-11.396484375,1,0,0,1.77544999123,,,,,2015_Sep_28_1232,G,facesParametric,12,59.5393628302,
./stim/MorphF10_01_orig.jpg,151,,,,,0,151,151,151,,,,,,,,,,,,,,,,,,,-11.044921875,-11.396484375,0,0,1,1.47354793549,,,,,2015_Sep_28_1232,G,facesParametric,12,59.5393628302,
./stim/MorphM7_07_orig.jpg,152,,,,,0,152,152,152,,,,,,,,,,,,,,,,,,,-11.103515625,-11.3671875,1,0,0,1.50735497475,,,,,2015_Sep_28_1232,G,facesParametric,12,59.5393628302,
./stim/MorphM1_07_orig.jpg,153,,,,,0,153,153,153,,,,,,,,,,,,,,,,,,,-11.1328125,-11.3671875,1,0,0,2.31141114235,,,,,2015_Sep_28_1232,G,facesParametric,12,59.5393628302,
./stim/MorphM3_10_orig.jpg,154,,,,,0,154,154,154,,,,,,,,,,,,,,,,,,,-11.1328125,-11.3671875,1,0,0,1.50702810287,,,,,2015_Sep_28_1232,G,facesParametric,12,59.5393628302,
./stim/MorphM6_03_orig.jpg,155,,,,,0,155,155,155,,,,,,,,,,,,,,,,,,,-11.1328125,-11.3671875,0,0,1,1.03769111633,,,,,2015_Sep_28_1232,G,facesParametric,12,59.5393628302,
./stim/MorphM4_10_orig.jpg,156,,,,,0,156,156,156,,,,,,,,,,,,,,,,,,,-11.1328125,-11.3671875,1,0,0,3.80347394943,,,,,2015_Sep_28_1232,G,facesParametric,12,59.5393628302,
./stim/MorphF6_08_orig.jpg,157,,,,,0,157,157,157,,,,,,,,,,,,,,,,,,,-11.162109375,-11.42578125,1,0,0,1.03784704208,,,,,2015_Sep_28_1232,G,facesParametric,12,59.5393628302,
./stim/MorphM5_01_orig.jpg,158,,,,,0,158,158,158,,,,,,,,,,,,,,,,,,,-11.162109375,-11.42578125,0,0,1,1.74152517319,,,,,2015_Sep_28_1232,G,facesParametric,12,59.5393628302,
./stim/MorphF2_05_orig.jpg,159,,,,,0,159,159,159,,,,,,,,,,,,,,,,,,,-11.103515625,-11.455078125,1,0,0,3.88461494446,,,,,2015_Sep_28_1232,G,facesParametric,12,59.5393628302,
./stim/MorphF3_03_orig.jpg,160,,,,,0,160,160,160,,,,,,,,,,,,,,,,,,,-11.103515625,-11.455078125,0,0,1,2.02490282059,,,,,2015_Sep_28_1232,G,facesParametric,12,59.5393628302,
./stim/MorphF1_10_orig.jpg,161,,,,,0,161,161,161,,,,,,,,,,,,,,,,,,,-11.103515625,-11.484375,1,0,0,1.2376999855,,,,,2015_Sep_28_1232,G,facesParametric,12,59.5393628302,
./stim/MorphF7_05_orig.jpg,162,,,,,0,162,162,162,,,,,,,,,,,,,,,,,,,-11.103515625,-11.484375,1,0,0,1.18859410286,,,,,2015_Sep_28_1232,G,facesParametric,12,59.5393628302,
./stim/MorphF3_10_orig.jpg,163,,,,,0,163,163,163,,,,,,,,,,,,,,,,,,,-11.1328125,-11.513671875,1,0,0,3.08252501488,,,,,2015_Sep_28_1232,G,facesParametric,12,59.5393628302,
./stim/MorphM2_02_orig.jpg,164,,,,,0,164,164,164,,,,,,,,,,,,,,,,,,,-11.1328125,-11.513671875,0,0,1,3.46767306328,,,,,2015_Sep_28_1232,G,facesParametric,12,59.5393628302,
./stim/MorphM9_04_orig.jpg,165,,,,,0,165,165,165,,,,,,,,,,,,,,,,,,,-11.1328125,-11.513671875,0,0,1,1.95974397659,,,,,2015_Sep_28_1232,G,facesParametric,12,59.5393628302,
./stim/MorphF6_09_orig.jpg,166,,,,,0,166,166,166,,,,,,,,,,,,,,,,,,,-11.1328125,-11.513671875,1,0,0,1.103069067,,,,,2015_Sep_28_1232,G,facesParametric,12,59.5393628302,
./stim/MorphM2_00_orig.jpg,167,,,,,0,167,167,167,,,,,,,,,,,,,,,,,,,-11.1328125,-11.513671875,1,0,0,2.67966508865,,,,,2015_Sep_28_1232,G,facesParametric,12,59.5393628302,
./stim/MorphM1_04_orig.jpg,168,,,,,0,168,168,168,,,,,,,,,,,,,,,,,,,-11.1328125,-11.513671875,0,0,1,1.52290892601,,,,,2015_Sep_28_1232,G,facesParametric,12,59.5393628302,
./stim/MorphM7_02_orig.jpg,169,,,,,0,169,169,169,,,,,,,,,,,,,,,,,,,-11.1328125,-11.513671875,1,0,0,1.12176799774,,,,,2015_Sep_28_1232,G,facesParametric,12,59.5393628302,
./stim/MorphF4_01_orig.jpg,170,,,,,0,170,170,170,,,,,,,,,,,,,,,,,,,-21.005859375,-8.408203125,1,0,0,3.51579213142,,,,,2015_Sep_28_1232,G,facesParametric,12,59.5393628302,
./stim/MorphF7_09_orig.jpg,171,,,,,0,171,171,171,,,,,,,,,,,,,,,,,,,-21.03515625,-8.37890625,1,0,0,1.25581789017,,,,,2015_Sep_28_1232,G,facesParametric,12,59.5393628302,
./stim/MorphF2_00_orig.jpg,172,,,,,0,172,172,172,,,,,,,,,,,,,,,,,,,-21.03515625,-8.37890625,1,0,0,1.69261789322,,,,,2015_Sep_28_1232,G,facesParametric,12,59.5393628302,
./stim/MorphM1_09_orig.jpg,173,,,,,0,173,173,173,,,,,,,,,,,,,,,,,,,-21.03515625,-8.37890625,1,0,0,1.90829801559,,,,,2015_Sep_28_1232,G,facesParametric,12,59.5393628302,
./stim/MorphM10_08_orig.jpg,174,,,,,0,174,174,174,,,,,,,,,,,,,,,,,,,-21.005859375,-8.349609375,1,0,0,0.768239021301,,,,,2015_Sep_28_1232,G,facesParametric,12,59.5393628302,
./stim/MorphF6_04_orig.jpg,175,,,,,0,175,175,175,,,,,,,,,,,,,,,,,,,-21.005859375,-8.349609375,0,0,1,1.17166686058,,,,,2015_Sep_28_1232,G,facesParametric,12,59.5393628302,
./stim/MorphF10_03_orig.jpg,176,,,,,0,176,176,176,,,,,,,,,,,,,,,,,,,-21.005859375,-8.349609375,0,0,1,2.8969950676,,,,,2015_Sep_28_1232,G,facesParametric,12,59.5393628302,
./stim/MorphF1_09_orig.jpg,177,,,,,0,177,177,177,,,,,,,,,,,,,,,,,,,-21.005859375,-8.349609375,1,0,0,2.29376578331,,,,,2015_Sep_28_1232,G,facesParametric,12,59.5393628302,
./stim/MorphM2_04_orig.jpg,178,,,,,0,178,178,178,,,,,,,,,,,,,,,,,,,-21.005859375,-8.349609375,0,0,1,2.32770705223,,,,,2015_Sep_28_1232,G,facesParametric,12,59.5393628302,
./stim/MorphM9_03_orig.jpg,179,,,,,0,179,179,179,,,,,,,,,,,,,,,,,,,-21.005859375,-8.349609375,0,0,1,1.35632491112,,,,,2015_Sep_28_1232,G,facesParametric,12,59.5393628302,
./stim/MorphF10_08_orig.jpg,180,,,,,0,180,180,180,,,,,,,,,,,,,,,,,,,-21.005859375,-8.349609375,1,0,0,2.69699001312,,,,,2015_Sep_28_1232,G,facesParametric,12,59.5393628302,
./stim/MorphM4_02_orig.jpg,181,,,,,0,181,181,181,,,,,,,,,,,,,,,,,,,-21.005859375,-8.349609375,1,0,0,2.81407785416,,,,,2015_Sep_28_1232,G,facesParametric,12,59.5393628302,
./stim/MorphF8_05_orig.jpg,182,,,,,0,182,182,182,,,,,,,,,,,,,,,,,,,-21.005859375,-8.349609375,0,0,1,1.72297596931,,,,,2015_Sep_28_1232,G,facesParametric,12,59.5393628302,
./stim/MorphM6_09_orig.jpg,183,,,,,0,183,183,183,,,,,,,,,,,,,,,,,,,-21.005859375,-8.349609375,1,0,0,3.51846694946,,,,,2015_Sep_28_1232,G,facesParametric,12,59.5393628302,
./stim/MorphM9_00_orig.jpg,184,,,,,0,184,184,184,,,,,,,,,,,,,,,,,,,-21.005859375,-8.349609375,1,0,0,1.62444186211,,,,,2015_Sep_28_1232,G,facesParametric,12,59.5393628302,
./stim/MorphF1_04_orig.jpg,185,,,,,0,185,185,185,,,,,,,,,,,,,,,,,,,-21.005859375,-8.349609375,1,0,0,2.94616723061,,,,,2015_Sep_28_1232,G,facesParametric,12,59.5393628302,
./stim/MorphF9_09_orig.jpg,186,,,,,0,186,186,186,,,,,,,,,,,,,,,,,,,-21.005859375,-8.349609375,1,0,0,1.87624502182,,,,,2015_Sep_28_1232,G,facesParametric,12,59.5393628302,
./stim/MorphF5_01_orig.jpg,187,,,,,0,187,187,187,,,,,,,,,,,,,,,,,,,-21.005859375,-8.349609375,1,0,0,4.37299203873,,,,,2015_Sep_28_1232,G,facesParametric,12,59.5393628302,
./stim/MorphF8_01_orig.jpg,188,,,,,0,188,188,188,,,,,,,,,,,,,,,,,,,-21.03515625,-8.3203125,1,0,0,4.85980415344,,,,,2015_Sep_28_1232,G,facesParametric,12,59.5393628302,
./stim/MorphM2_09_orig.jpg,189,,,,,0,189,189,189,,,,,,,,,,,,,,,,,,,-21.03515625,-8.3203125,1,0,0,1.52287697792,,,,,2015_Sep_28_1232,G,facesParametric,12,59.5393628302,
./stim/MorphM3_06_orig.jpg,190,,,,,0,190,190,190,,,,,,,,,,,,,,,,,,,-21.09375,-8.26171875,1,0,0,1.92610883713,,,,,2015_Sep_28_1232,G,facesParametric,12,59.5393628302,
./stim/MorphM1_03_orig.jpg,191,,,,,0,191,191,191,,,,,,,,,,,,,,,,,,,-21.09375,-8.26171875,1,0,0,2.68049192429,,,,,2015_Sep_28_1232,G,facesParametric,12,59.5393628302,
./stim/MorphF5_03_orig.jpg,192,,,,,0,192,192,192,,,,,,,,,,,,,,,,,,,-21.09375,-8.26171875,0,0,1,4.62403011322,,,,,2015_Sep_28_1232,G,facesParametric,12,59.5393628302,
./stim/MorphM8_09_orig.jpg,193,,,,,0,193,193,193,,,,,,,,,,,,,,,,,,,-21.09375,-8.26171875,1,0,0,2.54532384872,,,,,2015_Sep_28_1232,G,facesParametric,12,59.5393628302,
./stim/MorphM3_09_orig.jpg,194,,,,,0,194,194,194,,,,,,,,,,,,,,,,,,,-21.09375,-8.26171875,1,0,0,1.22159194946,,,,,2015_Sep_28_1232,G,facesParametric,12,59.5393628302,
./stim/MorphM2_10_orig.jpg,195,,,,,0,195,195,195,,,,,,,,,,,,,,,,,,,-21.09375,-8.26171875,1,0,0,2.26022100449,,,,,2015_Sep_28_1232,G,facesParametric,12,59.5393628302,
./stim/MorphF3_08_orig.jpg,196,,,,,0,196,196,196,,,,,,,,,,,,,,,,,,,-21.09375,-8.26171875,0,0,1,1.35641002655,,,,,2015_Sep_28_1232,G,facesParametric,12,59.5393628302,
./stim/MorphF5_00_orig.jpg,197,,,,,0,197,197,197,,,,,,,,,,,,,,,,,,,-21.09375,-8.26171875,0,0,1,2.67781591415,,,,,2015_Sep_28_1232,G,facesParametric,12,59.5393628302,
./stim/MorphM4_00_orig.jpg,198,,,,,0,198,198,198,,,,,,,,,,,,,,,,,,,-21.123046875,-8.26171875,1,0,0,2.16091394424,,,,,2015_Sep_28_1232,G,facesParametric,12,59.5393628302,
./stim/MorphM2_03_orig.jpg,199,,,,,0,199,199,199,,,,,,,,,,,,,,,,,,,-21.123046875,-8.26171875,1,0,0,2.19296813011,,,,,2015_Sep_28_1232,G,facesParametric,12,59.5393628302,
./stim/MorphF9_04_orig.jpg,200,,,,,0,200,200,200,,,,,,,,,,,,,,,,,,,-21.123046875,-8.26171875,0,0,1,2.84743285179,,,,,2015_Sep_28_1232,G,facesParametric,12,59.5393628302,
./stim/MorphM8_04_orig.jpg,201,,,,,0,201,201,201,,,,,,,,,,,,,,,,,,,-21.123046875,-8.26171875,1,0,0,4.10278201103,,,,,2015_Sep_28_1232,G,facesParametric,12,59.5393628302,
./stim/MorphM7_01_orig.jpg,202,,,,,0,202,202,202,,,,,,,,,,,,,,,,,,,-21.123046875,-8.26171875,1,0,0,2.479377985,,,,,2015_Sep_28_1232,G,facesParametric,12,59.5393628302,
./stim/MorphF6_01_orig.jpg,203,,,,,0,203,203,203,,,,,,,,,,,,,,,,,,,-21.123046875,-8.26171875,0,0,1,1.92552304268,,,,,2015_Sep_28_1232,G,facesParametric,12,59.5393628302,
./stim/MorphM5_09_orig.jpg,204,,,,,0,204,204,204,,,,,,,,,,,,,,,,,,,-21.123046875,-8.26171875,1,0,0,2.16038393974,,,,,2015_Sep_28_1232,G,facesParametric,12,59.5393628302,
./stim/MorphM10_02_orig.jpg,205,,,,,0,205,205,205,,,,,,,,,,,,,,,,,,,-21.123046875,-8.26171875,0,0,1,4.89102697372,,,,,2015_Sep_28_1232,G,facesParametric,12,59.5393628302,
./stim/MorphM6_07_orig.jpg,206,,,,,0,206,206,206,,,,,,,,,,,,,,,,,,,-21.123046875,-8.26171875,0,0,1,3.7864780426,,,,,2015_Sep_28_1232,G,facesParametric,12,59.5393628302,
./stim/MorphF5_10_orig.jpg,207,,,,,0,207,207,207,,,,,,,,,,,,,,,,,,,-21.123046875,-8.26171875,1,0,0,2.41198587418,,,,,2015_Sep_28_1232,G,facesParametric,12,59.5393628302,
./stim/MorphF10_07_orig.jpg,208,,,,,0,208,208,208,,,,,,,,,,,,,,,,,,,-21.123046875,-8.26171875,1,0,0,1.6567440033,,,,,2015_Sep_28_1232,G,facesParametric,12,59.5393628302,
./stim/MorphF1_00_orig.jpg,209,,,,,0,209,209,209,,,,,,,,,,,,,,,,,,,-21.09375,-8.232421875,0,0,1,2.42897200584,,,,,2015_Sep_28_1232,G,facesParametric,12,59.5393628302,
./stim/MorphM8_06_orig.jpg,210,,,,,0,210,210,210,,,,,,,,,,,,,,,,,,,-21.09375,-8.232421875,0,0,1,1.72480893135,,,,,2015_Sep_28_1232,G,facesParametric,12,59.5393628302,
./stim/MorphM10_04_orig.jpg,211,,,,,0,211,211,211,,,,,,,,,,,,,,,,,,,-21.09375,-8.232421875,1,0,0,1.05459022522,,,,,2015_Sep_28_1232,G,facesParametric,12,59.5393628302,
./stim/MorphM9_09_orig.jpg,212,,,,,0,212,212,212,,,,,,,,,,,,,,,,,,,-21.09375,-8.232421875,1,0,0,0.971197843552,,,,,2015_Sep_28_1232,G,facesParametric,12,59.5393628302,
./stim/MorphM6_00_orig.jpg,213,,,,,0,213,213,213,,,,,,,,,,,,,,,,,,,-21.09375,-8.232421875,0,0,1,1.37221908569,,,,,2015_Sep_28_1232,G,facesParametric,12,59.5393628302,
./stim/MorphF7_00_orig.jpg,214,,,,,0,214,214,214,,,,,,,,,,,,,,,,,,,-21.09375,-8.232421875,0,0,1,2.83120799065,,,,,2015_Sep_28_1232,G,facesParametric,12,59.5393628302,
./stim/MorphM2_08_orig.jpg,215,,,,,0,215,215,215,,,,,,,,,,,,,,,,,,,-21.03515625,-8.173828125,0,0,1,4.3398680687,,,,,2015_Sep_28_1232,G,facesParametric,12,59.5393628302,
./stim/MorphM3_04_orig.jpg,216,,,,,0,216,216,216,,,,,,,,,,,,,,,,,,,-21.064453125,-8.203125,0,0,1,3.14929795265,,,,,2015_Sep_28_1232,G,facesParametric,12,59.5393628302,
./stim/MorphM4_09_orig.jpg,217,,,,,0,217,217,217,,,,,,,,,,,,,,,,,,,-21.064453125,-8.203125,1,0,0,2.32833504677,,,,,2015_Sep_28_1232,G,facesParametric,12,59.5393628302,
./stim/MorphF2_01_orig.jpg,218,,,,,0,218,218,218,,,,,,,,,,,,,,,,,,,-21.064453125,-8.203125,0,0,1,1.54187583923,,,,,2015_Sep_28_1232,G,facesParametric,12,59.5393628302,
./stim/MorphM7_10_orig.jpg,219,,,,,0,219,219,219,,,,,,,,,,,,,,,,,,,-21.064453125,-8.203125,1,0,0,2.47817492485,,,,,2015_Sep_28_1232,G,facesParametric,12,59.5393628302,
,,,,,,,,,,,,,,,,,,,,,,,,,,,,,,,,,,return,8.88235092163,,,2015_Sep_28_1232,G,facesParametric,12,59.5393628302,
./stim/MorphF10_06_orig.jpg,0,,,,,,,,,0,0,0,0,,,,,,,,,,,,,,,6.73828125,-4.833984375,1,0,0,10.254499197,,,,,2015_Sep_28_1232,G,facesParametric,12,59.5393628302,
./stim/MorphM8_08_orig.jpg,1,,,,,,,,,0,1,1,1,,,,,,,,,,,,,,,6.5625,-4.8046875,1,0,0,3.63492298126,,,,,2015_Sep_28_1232,G,facesParametric,12,59.5393628302,
./stim/MorphF1_08_orig.jpg,2,,,,,,,,,0,2,2,2,,,,,,,,,,,,,,,6.533203125,-4.6875,0,0,1,7.32296895981,,,,,2015_Sep_28_1232,G,facesParametric,12,59.5393628302,
./stim/MorphM1_10_orig.jpg,3,,,,,,,,,0,3,3,3,,,,,,,,,,,,,,,6.533203125,-4.6875,1,0,0,4.35575699806,,,,,2015_Sep_28_1232,G,facesParametric,12,59.5393628302,
./stim/MorphF10_05_orig.jpg,4,,,,,,,,,0,4,4,4,,,,,,,,,,,,,,,6.533203125,-4.6875,0,0,1,1.28785204887,,,,,2015_Sep_28_1232,G,facesParametric,12,59.5393628302,
./stim/MorphF3_08_orig.jpg,5,,,,,,,,,0,5,5,5,,,,,,,,,,,,,,,6.533203125,-4.6875,1,0,0,2.9820868969,,,,,2015_Sep_28_1232,G,facesParametric,12,59.5393628302,
./stim/MorphF2_02_orig.jpg,6,,,,,,,,,0,6,6,6,,,,,,,,,,,,,,,6.533203125,-4.6875,0,0,1,2.6468360424,,,,,2015_Sep_28_1232,G,facesParametric,12,59.5393628302,
./stim/MorphM5_02_orig.jpg,7,,,,,,,,,0,7,7,7,,,,,,,,,,,,,,,6.50390625,-4.658203125,0,0,1,2.09319400787,,,,,2015_Sep_28_1232,G,facesParametric,12,59.5393628302,
./stim/MorphF7_10_orig.jpg,8,,,,,,,,,0,8,8,8,,,,,,,,,,,,,,,6.50390625,-4.658203125,1,0,0,2.41058301926,,,,,2015_Sep_28_1232,G,facesParametric,12,59.5393628302,
./stim/MorphF2_10_orig.jpg,9,,,,,,,,,0,9,9,9,,,,,,,,,,,,,,,6.50390625,-4.658203125,1,0,0,1.70789003372,,,,,2015_Sep_28_1232,G,facesParametric,12,59.5393628302,
./stim/MorphM4_07_orig.jpg,10,,,,,,,,,0,10,10,10,,,,,,,,,,,,,,,6.50390625,-4.658203125,1,0,0,2.16118097305,,,,,2015_Sep_28_1232,G,facesParametric,12,59.5393628302,
./stim/MorphM10_02_orig.jpg,11,,,,,,,,,0,11,11,11,,,,,,,,,,,,,,,6.50390625,-4.658203125,0,0,1,3.25021696091,,,,,2015_Sep_28_1232,G,facesParametric,12,59.5393628302,
./stim/MorphM5_06_orig.jpg,12,,,,,,,,,0,12,12,12,,,,,,,,,,,,,,,6.50390625,-4.658203125,0,0,1,2.7285618782,,,,,2015_Sep_28_1232,G,facesParametric,12,59.5393628302,
./stim/MorphF1_01_orig.jpg,13,,,,,,,,,0,13,13,13,,,,,,,,,,,,,,,6.50390625,-4.658203125,0,0,1,4.48843002319,,,,,2015_Sep_28_1232,G,facesParametric,12,59.5393628302,
./stim/MorphF2_01_orig.jpg,14,,,,,,,,,0,14,14,14,,,,,,,,,,,,,,,6.50390625,-4.658203125,0,0,1,0.952039003372,,,,,2015_Sep_28_1232,G,facesParametric,12,59.5393628302,
./stim/MorphF8_06_orig.jpg,15,,,,,,,,,0,15,15,15,,,,,,,,,,,,,,,6.50390625,-4.658203125,0,0,1,1.79196214676,,,,,2015_Sep_28_1232,G,facesParametric,12,59.5393628302,
./stim/MorphM6_10_orig.jpg,16,,,,,,,,,0,16,16,16,,,,,,,,,,,,,,,6.50390625,-4.658203125,0,0,1,2.22585916519,,,,,2015_Sep_28_1232,G,facesParametric,12,59.5393628302,
./stim/MorphM7_07_orig.jpg,17,,,,,,,,,0,17,17,17,,,,,,,,,,,,,,,6.50390625,-4.658203125,1,0,0,1.33902192116,,,,,2015_Sep_28_1232,G,facesParametric,12,59.5393628302,
./stim/MorphF5_01_orig.jpg,18,,,,,,,,,0,18,18,18,,,,,,,,,,,,,,,6.50390625,-4.658203125,1,0,0,2.89890098572,,,,,2015_Sep_28_1232,G,facesParametric,12,59.5393628302,
./stim/MorphM5_05_orig.jpg,19,,,,,,,,,0,19,19,19,,,,,,,,,,,,,,,6.50390625,-4.658203125,1,0,0,5.09327697754,,,,,2015_Sep_28_1232,G,facesParametric,12,59.5393628302,
./stim/MorphM9_04_orig.jpg,20,,,,,,,,,0,20,20,20,,,,,,,,,,,,,,,8.3203125,-3.896484375,1,0,0,4.92549300194,,,,,2015_Sep_28_1232,G,facesParametric,12,59.5393628302,
./stim/MorphF5_04_orig.jpg,21,,,,,,,,,0,21,21,21,,,,,,,,,,,,,,,7.880859375,-3.984375,1,0,0,3.73538303375,,,,,2015_Sep_28_1232,G,facesParametric,12,59.5393628302,
./stim/MorphF7_08_orig.jpg,22,,,,,,,,,0,22,22,22,,,,,,,,,,,,,,,8.935546875,-3.486328125,1,0,0,4.23877191544,,,,,2015_Sep_28_1232,G,facesParametric,12,59.5393628302,
./stim/MorphM5_04_orig.jpg,23,,,,,,,,,0,23,23,23,,,,,,,,,,,,,,,8.935546875,-3.486328125,0,0,1,1.32263183594,,,,,2015_Sep_28_1232,G,facesParametric,12,59.5393628302,
./stim/MorphM2_08_orig.jpg,24,,,,,,,,,0,24,24,24,,,,,,,,,,,,,,,8.935546875,-3.486328125,0,0,1,1.35634303093,,,,,2015_Sep_28_1232,G,facesParametric,12,59.5393628302,
./stim/MorphF5_09_orig.jpg,25,,,,,,,,,0,25,25,25,,,,,,,,,,,,,,,8.96484375,-3.45703125,0,0,1,2.91415596008,,,,,2015_Sep_28_1232,G,facesParametric,12,59.5393628302,
./stim/MorphF8_08_orig.jpg,26,,,,,,,,,0,26,26,26,,,,,,,,,,,,,,,8.96484375,-3.486328125,0,0,1,1.48931694031,,,,,2015_Sep_28_1232,G,facesParametric,12,59.5393628302,
./stim/MorphM6_08_orig.jpg,27,,,,,,,,,0,27,27,27,,,,,,,,,,,,,,,8.96484375,-3.486328125,1,0,0,2.57958507538,,,,,2015_Sep_28_1232,G,facesParametric,12,59.5393628302,
./stim/MorphM8_01_orig.jpg,28,,,,,,,,,0,28,28,28,,,,,,,,,,,,,,,8.96484375,-3.486328125,0,0,1,1.30390095711,,,,,2015_Sep_28_1232,G,facesParametric,12,59.5393628302,
./stim/MorphF8_07_orig.jpg,29,,,,,,,,,0,29,29,29,,,,,,,,,,,,,,,8.96484375,-3.486328125,0,0,1,3.21664810181,,,,,2015_Sep_28_1232,G,facesParametric,12,59.5393628302,
./stim/MorphF9_01_orig.jpg,30,,,,,,,,,0,30,30,30,,,,,,,,,,,,,,,8.96484375,-3.486328125,0,0,1,2.4292550087,,,,,2015_Sep_28_1232,G,facesParametric,12,59.5393628302,
./stim/MorphM7_02_orig.jpg,31,,,,,,,,,0,31,31,31,,,,,,,,,,,,,,,9.462890625,-4.658203125,1,0,0,4.67403388023,,,,,2015_Sep_28_1232,G,facesParametric,12,59.5393628302,
./stim/MorphM5_10_orig.jpg,32,,,,,,,,,0,32,32,32,,,,,,,,,,,,,,,9.462890625,-4.658203125,1,0,0,0.801933050156,,,,,2015_Sep_28_1232,G,facesParametric,12,59.5393628302,
./stim/MorphM10_09_orig.jpg,33,,,,,,,,,0,33,33,33,,,,,,,,,,,,,,,9.462890625,-4.658203125,1,0,0,0.986577033997,,,,,2015_Sep_28_1232,G,facesParametric,12,59.5393628302,
./stim/MorphF2_06_orig.jpg,34,,,,,,,,,0,34,34,34,,,,,,,,,,,,,,,9.462890625,-4.658203125,0,0,1,1.60594701767,,,,,2015_Sep_28_1232,G,facesParametric,12,59.5393628302,
./stim/MorphF3_10_orig.jpg,35,,,,,,,,,0,35,35,35,,,,,,,,,,,,,,,9.462890625,-4.658203125,0,0,1,1.10480499268,,,,,2015_Sep_28_1232,G,facesParametric,12,59.5393628302,
./stim/MorphM7_04_orig.jpg,36,,,,,,,,,0,36,36,36,,,,,,,,,,,,,,,9.4921875,-4.6875,1,0,0,1.3886051178,,,,,2015_Sep_28_1232,G,facesParametric,12,59.5393628302,
./stim/MorphM9_10_orig.jpg,37,,,,,,,,,0,37,37,37,,,,,,,,,,,,,,,9.4921875,-4.6875,1,0,0,1.97581291199,,,,,2015_Sep_28_1232,G,facesParametric,12,59.5393628302,
./stim/MorphM8_09_orig.jpg,38,,,,,,,,,0,38,38,38,,,,,,,,,,,,,,,9.4921875,-4.6875,1,0,0,1.08655500412,,,,,2015_Sep_28_1232,G,facesParametric,12,59.5393628302,
./stim/MorphM10_07_orig.jpg,39,,,,,,,,,0,39,39,39,,,,,,,,,,,,,,,9.4921875,-4.6875,1,0,0,0.652368068695,,,,,2015_Sep_28_1232,G,facesParametric,12,59.5393628302,
./stim/MorphF3_09_orig.jpg,40,,,,,,,,,0,40,40,40,,,,,,,,,,,,,,,9.4921875,-4.6875,0,0,1,0.903579950333,,,,,2015_Sep_28_1232,G,facesParametric,12,59.5393628302,
./stim/MorphF10_04_orig.jpg,41,,,,,,,,,0,41,41,41,,,,,,,,,,,,,,,9.4921875,-4.6875,0,0,1,1.49005103111,,,,,2015_Sep_28_1232,G,facesParametric,12,59.5393628302,
./stim/MorphF4_00_orig.jpg,42,,,,,,,,,0,42,42,42,,,,,,,,,,,,,,,9.404296875,-4.98046875,0,0,1,5.02483105659,,,,,2015_Sep_28_1232,G,facesParametric,12,59.5393628302,
./stim/MorphM10_06_orig.jpg,43,,,,,,,,,0,43,43,43,,,,,,,,,,,,,,,9.404296875,-4.98046875,1,0,0,0.835805892944,,,,,2015_Sep_28_1232,G,facesParametric,12,59.5393628302,
./stim/MorphF6_09_orig.jpg,44,,,,,,,,,0,44,44,44,,,,,,,,,,,,,,,9.375,-5.009765625,1,0,0,2.98180103302,,,,,2015_Sep_28_1232,G,facesParametric,12,59.5393628302,
./stim/MorphM10_04_orig.jpg,45,,,,,,,,,0,45,45,45,,,,,,,,,,,,,,,9.375,-5.009765625,0,0,1,1.13854598999,,,,,2015_Sep_28_1232,G,facesParametric,12,59.5393628302,
./stim/MorphF6_10_orig.jpg,46,,,,,,,,,0,46,46,46,,,,,,,,,,,,,,,9.375,-5.009765625,1,0,0,1.45664787292,,,,,2015_Sep_28_1232,G,facesParametric,12,59.5393628302,
./stim/MorphF9_10_orig.jpg,47,,,,,,,,,0,47,47,47,,,,,,,,,,,,,,,9.375,-5.009765625,1,0,0,0.886928081512,,,,,2015_Sep_28_1232,G,facesParametric,12,59.5393628302,
./stim/MorphM5_08_orig.jpg,48,,,,,,,,,0,48,48,48,,,,,,,,,,,,,,,9.375,-5.009765625,1,0,0,0.736649990082,,,,,2015_Sep_28_1232,G,facesParametric,12,59.5393628302,
./stim/MorphM1_03_orig.jpg,49,,,,,,,,,0,49,49,49,,,,,,,,,,,,,,,9.375,-5.009765625,1,0,0,1.42111992836,,,,,2015_Sep_28_1232,G,facesParametric,12,59.5393628302,
./stim/MorphF9_09_orig.jpg,50,,,,,,,,,0,50,50,50,,,,,,,,,,,,,,,9.345703125,-4.98046875,1,0,0,1.85935711861,,,,,2015_Sep_28_1232,G,facesParametric,12,59.5393628302,
./stim/MorphF1_07_orig.jpg,51,,,,,,,,,0,51,51,51,,,,,,,,,,,,,,,9.345703125,-4.98046875,0,0,1,2.07705998421,,,,,2015_Sep_28_1232,G,facesParametric,12,59.5393628302,
./stim/MorphM1_06_orig.jpg,52,,,,,,,,,0,52,52,52,,,,,,,,,,,,,,,9.345703125,-4.98046875,1,0,0,1.52208304405,,,,,2015_Sep_28_1232,G,facesParametric,12,59.5393628302,
./stim/MorphM8_06_orig.jpg,53,,,,,,,,,0,53,53,53,,,,,,,,,,,,,,,9.345703125,-4.98046875,0,0,1,1.30645513535,,,,,2015_Sep_28_1232,G,facesParametric,12,59.5393628302,
./stim/MorphM4_08_orig.jpg,54,,,,,,,,,0,54,54,54,,,,,,,,,,,,,,,9.345703125,-4.98046875,1,0,0,2.62896108627,,,,,2015_Sep_28_1232,G,facesParametric,12,59.5393628302,
./stim/MorphM2_01_orig.jpg,55,,,,,,,,,0,55,55,55,,,,,,,,,,,,,,,9.375,-4.951171875,0,0,1,3.64939403534,,,,,2015_Sep_28_1232,G,facesParametric,12,59.5393628302,
./stim/MorphF2_00_orig.jpg,56,,,,,,,,,0,56,56,56,,,,,,,,,,,,,,,9.375,-4.951171875,0,0,1,0.920461177826,,,,,2015_Sep_28_1232,G,facesParametric,12,59.5393628302,
./stim/MorphM10_01_orig.jpg,57,,,,,,,,,0,57,57,57,,,,,,,,,,,,,,,9.375,-4.951171875,0,0,1,0.987961053848,,,,,2015_Sep_28_1232,G,facesParametric,12,59.5393628302,
./stim/MorphF10_07_orig.jpg,58,,,,,,,,,0,58,58,58,,,,,,,,,,,,,,,9.375,-4.951171875,1,0,0,1.23719096184,,,,,2015_Sep_28_1232,G,facesParametric,12,59.5393628302,
./stim/MorphM1_02_orig.jpg,59,,,,,,,,,0,59,59,59,,,,,,,,,,,,,,,9.375,-4.951171875,1,0,0,4.92480802536,,,,,2015_Sep_28_1232,G,facesParametric,12,59.5393628302,
./stim/MorphM4_03_orig.jpg,60,,,,,,,,,0,60,60,60,,,,,,,,,,,,,,,9.375,-4.951171875,0,0,1,2.0435898304,,,,,2015_Sep_28_1232,G,facesParametric,12,59.5393628302,
./stim/MorphF7_04_orig.jpg,61,,,,,,,,,0,61,61,61,,,,,,,,,,,,,,,9.375,-4.951171875,0,0,1,0.886141061783,,,,,2015_Sep_28_1232,G,facesParametric,12,59.5393628302,
./stim/MorphM7_09_orig.jpg,62,,,,,,,,,0,62,62,62,,,,,,,,,,,,,,,9.375,-4.951171875,1,0,0,1.52214694023,,,,,2015_Sep_28_1232,G,facesParametric,12,59.5393628302,
./stim/MorphF5_06_orig.jpg,63,,,,,,,,,0,63,63,63,,,,,,,,,,,,,,,9.462890625,-4.86328125,1,0,0,1.84207320213,,,,,2015_Sep_28_1232,G,facesParametric,12,59.5393628302,
./stim/MorphF6_05_orig.jpg,64,,,,,,,,,0,64,64,64,,,,,,,,,,,,,,,9.462890625,-4.86328125,0,0,1,1.69119310379,,,,,2015_Sep_28_1232,G,facesParametric,12,59.5393628302,
./stim/MorphF1_06_orig.jpg,65,,,,,,,,,0,65,65,65,,,,,,,,,,,,,,,9.462890625,-4.86328125,0,0,1,4.60768294334,,,,,2015_Sep_28_1232,G,facesParametric,12,59.5393628302,
./stim/MorphM1_00_orig.jpg,66,,,,,,,,,0,66,66,66,,,,,,,,,,,,,,,9.462890625,-4.921875,1,0,0,1.0710849762,,,,,2015_Sep_28_1232,G,facesParametric,12,59.5393628302,
./stim/MorphM3_02_orig.jpg,67,,,,,,,,,0,67,67,67,,,,,,,,,,,,,,,9.462890625,-4.921875,1,0,0,1.82580685616,,,,,2015_Sep_28_1232,G,facesParametric,12,59.5393628302,
./stim/MorphM9_09_orig.jpg,68,,,,,,,,,0,68,68,68,,,,,,,,,,,,,,,9.462890625,-4.921875,1,0,0,0.837134122849,,,,,2015_Sep_28_1232,G,facesParametric,12,59.5393628302,
./stim/MorphF1_02_orig.jpg,69,,,,,,,,,0,69,69,69,,,,,,,,,,,,,,,9.462890625,-4.921875,1,0,0,3.96858286858,,,,,2015_Sep_28_1232,G,facesParametric,12,59.5393628302,
./stim/MorphF6_04_orig.jpg,70,,,,,,,,,0,70,70,70,,,,,,,,,,,,,,,9.462890625,-4.921875,1,0,0,1.63919901848,,,,,2015_Sep_28_1232,G,facesParametric,12,59.5393628302,
./stim/MorphM9_07_orig.jpg,71,,,,,,,,,0,71,71,71,,,,,,,,,,,,,,,9.462890625,-4.921875,1,0,0,1.07164096832,,,,,2015_Sep_28_1232,G,facesParametric,12,59.5393628302,
./stim/MorphF8_10_orig.jpg,72,,,,,,,,,0,72,72,72,,,,,,,,,,,,,,,9.462890625,-4.921875,1,0,0,1.13773012161,,,,,2015_Sep_28_1232,G,facesParametric,12,59.5393628302,
./stim/MorphM6_00_orig.jpg,73,,,,,,,,,0,73,73,73,,,,,,,,,,,,,,,9.462890625,-4.921875,0,0,1,1.02130794525,,,,,2015_Sep_28_1232,G,facesParametric,12,59.5393628302,
./stim/MorphF7_03_orig.jpg,74,,,,,,,,,0,74,74,74,,,,,,,,,,,,,,,9.462890625,-4.921875,0,0,1,1.27253699303,,,,,2015_Sep_28_1232,G,facesParametric,12,59.5393628302,
./stim/MorphM3_09_orig.jpg,75,,,,,,,,,0,75,75,75,,,,,,,,,,,,,,,9.462890625,-4.921875,1,0,0,2.06037187576,,,,,2015_Sep_28_1232,G,facesParametric,12,59.5393628302,
./stim/MorphF3_02_orig.jpg,76,,,,,,,,,0,76,76,76,,,,,,,,,,,,,,,9.462890625,-4.921875,0,0,1,2.12507414818,,,,,2015_Sep_28_1232,G,facesParametric,12,59.5393628302,
./stim/MorphF5_05_orig.jpg,77,,,,,,,,,0,77,77,77,,,,,,,,,,,,,,,9.462890625,-4.921875,0,0,1,1.12130689621,,,,,2015_Sep_28_1232,G,facesParametric,12,59.5393628302,
./stim/MorphM4_06_orig.jpg,78,,,,,,,,,0,78,78,78,,,,,,,,,,,,,,,9.404296875,-4.98046875,1,0,0,2.29381513596,,,,,2015_Sep_28_1232,G,facesParametric,12,59.5393628302,
./stim/MorphF7_09_orig.jpg,79,,,,,,,,,0,79,79,79,,,,,,,,,,,,,,,9.404296875,-4.98046875,1,0,0,0.668509960175,,,,,2015_Sep_28_1232,G,facesParametric,12,59.5393628302,
./stim/MorphF5_08_orig.jpg,80,,,,,,,,,0,80,80,80,,,,,,,,,,,,,,,9.404296875,-4.98046875,1,0,0,1.99312496185,,,,,2015_Sep_28_1232,G,facesParametric,12,59.5393628302,
./stim/MorphM2_07_orig.jpg,81,,,,,,,,,0,81,81,81,,,,,,,,,,,,,,,9.404296875,-4.98046875,1,0,0,3.33386707306,,,,,2015_Sep_28_1232,G,facesParametric,12,59.5393628302,
./stim/MorphF5_03_orig.jpg,82,,,,,,,,,0,82,82,82,,,,,,,,,,,,,,,9.404296875,-4.98046875,0,0,1,2.12584495544,,,,,2015_Sep_28_1232,G,facesParametric,12,59.5393628302,
./stim/MorphF9_04_orig.jpg,83,,,,,,,,,0,83,83,83,,,,,,,,,,,,,,,9.404296875,-4.98046875,0,0,1,1.28753685951,,,,,2015_Sep_28_1232,G,facesParametric,12,59.5393628302,
./stim/MorphF10_08_orig.jpg,84,,,,,,,,,0,84,84,84,,,,,,,,,,,,,,,9.404296875,-5.009765625,1,0,0,0.803340911865,,,,,2015_Sep_28_1232,G,facesParametric,12,59.5393628302,
./stim/MorphF3_00_orig.jpg,85,,,,,,,,,0,85,85,85,,,,,,,,,,,,,,,9.404296875,-5.009765625,0,0,1,1.87510704994,,,,,2015_Sep_28_1232,G,facesParametric,12,59.5393628302,
./stim/MorphF5_00_orig.jpg,86,,,,,,,,,0,86,86,86,,,,,,,,,,,,,,,9.404296875,-5.009765625,1,0,0,0.751692056656,,,,,2015_Sep_28_1232,G,facesParametric,12,59.5393628302,
./stim/MorphF1_03_orig.jpg,87,,,,,,,,,0,87,87,87,,,,,,,,,,,,,,,9.43359375,-5.0390625,1,0,0,1.47381019592,,,,,2015_Sep_28_1232,G,facesParametric,12,59.5393628302,
./stim/MorphF10_10_orig.jpg,88,,,,,,,,,0,88,88,88,,,,,,,,,,,,,,,9.43359375,-5.0390625,1,0,0,2.16143703461,,,,,2015_Sep_28_1232,G,facesParametric,12,59.5393628302,
./stim/MorphF4_04_orig.jpg,89,,,,,,,,,0,89,89,89,,,,,,,,,,,,,,,9.43359375,-5.0390625,1,0,0,2.96317100525,,,,,2015_Sep_28_1232,G,facesParametric,12,59.5393628302,
./stim/MorphF8_05_orig.jpg,90,,,,,,,,,0,90,90,90,,,,,,,,,,,,,,,9.43359375,-5.0390625,0,0,1,2.32859802246,,,,,2015_Sep_28_1232,G,facesParametric,12,59.5393628302,
./stim/MorphM8_04_orig.jpg,91,,,,,,,,,0,91,91,91,,,,,,,,,,,,,,,9.462890625,-5.009765625,0,0,1,1.08641505241,,,,,2015_Sep_28_1232,G,facesParametric,12,59.5393628302,
./stim/MorphM1_04_orig.jpg,92,,,,,,,,,0,92,92,92,,,,,,,,,,,,,,,9.462890625,-5.009765625,0,0,1,4.32283902168,,,,,2015_Sep_28_1232,G,facesParametric,12,59.5393628302,
./stim/MorphM8_05_orig.jpg,93,,,,,,,,,0,93,93,93,,,,,,,,,,,,,,,9.580078125,-5.361328125,0,0,1,3.01523399353,,,,,2015_Sep_28_1232,G,facesParametric,12,59.5393628302,
./stim/MorphM5_01_orig.jpg,94,,,,,,,,,0,94,94,94,,,,,,,,,,,,,,,9.638671875,-5.361328125,0,0,1,3.4347410202,,,,,2015_Sep_28_1232,G,facesParametric,12,59.5393628302,
./stim/MorphF9_07_orig.jpg,95,,,,,,,,,0,95,95,95,,,,,,,,,,,,,,,9.755859375,-5.302734375,1,0,0,1.69148111343,,,,,2015_Sep_28_1232,G,facesParametric,12,59.5393628302,
./stim/MorphM4_00_orig.jpg,96,,,,,,,,,0,96,96,96,,,,,,,,,,,,,,,9.78515625,-5.302734375,1,0,0,1.82528591156,,,,,2015_Sep_28_1232,G,facesParametric,12,59.5393628302,
./stim/MorphF4_01_orig.jpg,97,,,,,,,,,0,97,97,97,,,,,,,,,,,,,,,9.78515625,-5.302734375,0,0,1,1.9598698616,,,,,2015_Sep_28_1232,G,facesParametric,12,59.5393628302,
./stim/MorphF9_08_orig.jpg,98,,,,,,,,,0,98,98,98,,,,,,,,,,,,,,,9.78515625,-5.302734375,1,0,0,2.04355788231,,,,,2015_Sep_28_1232,G,facesParametric,12,59.5393628302,
./stim/MorphM9_02_orig.jpg,99,,,,,,,,,0,99,99,99,,,,,,,,,,,,,,,9.78515625,-5.302734375,0,0,1,1.27250480652,,,,,2015_Sep_28_1232,G,facesParametric,12,59.5393628302,
./stim/MorphF1_09_orig.jpg,100,,,,,,,,,0,100,100,100,,,,,,,,,,,,,,,9.84375,-5.2734375,0,0,1,1.1198849678,,,,,2015_Sep_28_1232,G,facesParametric,12,59.5393628302,
./stim/MorphF9_03_orig.jpg,101,,,,,,,,,0,101,101,101,,,,,,,,,,,,,,,9.873046875,-5.244140625,0,0,1,1.27166604996,,,,,2015_Sep_28_1232,G,facesParametric,12,59.5393628302,
./stim/MorphF7_06_orig.jpg,102,,,,,,,,,0,102,102,102,,,,,,,,,,,,,,,9.873046875,-5.244140625,1,0,0,4.6725730896,,,,,2015_Sep_28_1232,G,facesParametric,12,59.5393628302,
./stim/MorphF1_00_orig.jpg,103,,,,,,,,,0,103,103,103,,,,,,,,,,,,,,,9.9609375,-5.21484375,0,0,1,1.35649895668,,,,,2015_Sep_28_1232,G,facesParametric,12,59.5393628302,
./stim/MorphF7_02_orig.jpg,104,,,,,,,,,0,104,104,104,,,,,,,,,,,,,,,9.9609375,-5.21484375,0,0,1,1.52374792099,,,,,2015_Sep_28_1232,G,facesParametric,12,59.5393628302,
./stim/MorphM3_05_orig.jpg,105,,,,,,,,,0,105,105,105,,,,,,,,,,,,,,,9.9609375,-5.21484375,0,0,1,2.00922584534,,,,,2015_Sep_28_1232,G,facesParametric,12,59.5393628302,
./stim/MorphM5_09_orig.jpg,106,,,,,,,,,0,106,106,106,,,,,,,,,,,,,,,9.9609375,-5.21484375,1,0,0,3.38419508934,,,,,2015_Sep_28_1232,G,facesParametric,12,59.5393628302,
./stim/MorphM10_00_orig.jpg,107,,,,,,,,,0,107,107,107,,,,,,,,,,,,,,,9.9609375,-5.21484375,1,0,0,2.12612581253,,,,,2015_Sep_28_1232,G,facesParametric,12,59.5393628302,
./stim/MorphM4_10_orig.jpg,108,,,,,,,,,0,108,108,108,,,,,,,,,,,,,,,9.9609375,-5.21484375,1,0,0,1.70580601692,,,,,2015_Sep_28_1232,G,facesParametric,12,59.5393628302,
./stim/MorphM7_05_orig.jpg,109,,,,,,,,,0,109,109,109,,,,,,,,,,,,,,,9.9609375,-5.21484375,1,0,0,0.836815834045,,,,,2015_Sep_28_1232,G,facesParametric,12,59.5393628302,
./stim/MorphM9_01_orig.jpg,110,,,,,,,,,0,110,110,110,,,,,,,,,,,,,,,9.9609375,-5.2734375,0,0,1,2.713078022,,,,,2015_Sep_28_1232,G,facesParametric,12,59.5393628302,
./stim/MorphF4_06_orig.jpg,111,,,,,,,,,0,111,111,111,,,,,,,,,,,,,,,9.638671875,-5.244140625,1,0,0,4.70565080643,,,,,2015_Sep_28_1232,G,facesParametric,12,59.5393628302,
./stim/MorphF6_02_orig.jpg,112,,,,,,,,,0,112,112,112,,,,,,,,,,,,,,,9.638671875,-4.86328125,0,0,1,1.50456190109,,,,,2015_Sep_28_1232,G,facesParametric,12,59.5393628302,
./stim/MorphF8_02_orig.jpg,113,,,,,,,,,0,113,113,113,,,,,,,,,,,,,,,9.638671875,-4.86328125,1,0,0,3.20002484322,,,,,2015_Sep_28_1232,G,facesParametric,12,59.5393628302,
./stim/MorphM8_00_orig.jpg,114,,,,,,,,,0,114,114,114,,,,,,,,,,,,,,,9.609375,-4.833984375,0,0,1,1.13842797279,,,,,2015_Sep_28_1232,G,facesParametric,12,59.5393628302,
./stim/MorphM3_03_orig.jpg,115,,,,,,,,,0,115,115,115,,,,,,,,,,,,,,,9.580078125,-4.86328125,1,0,0,0.886734962463,,,,,2015_Sep_28_1232,G,facesParametric,12,59.5393628302,
./stim/MorphF10_03_orig.jpg,116,,,,,,,,,0,116,116,116,,,,,,,,,,,,,,,9.580078125,-4.86328125,0,0,1,1.77527713776,,,,,2015_Sep_28_1232,G,facesParametric,12,59.5393628302,
./stim/MorphF7_00_orig.jpg,117,,,,,,,,,0,117,117,117,,,,,,,,,,,,,,,9.580078125,-4.86328125,0,0,1,2.69715094566,,,,,2015_Sep_28_1232,G,facesParametric,12,59.5393628302,
./stim/MorphF9_06_orig.jpg,118,,,,,,,,,0,118,118,118,,,,,,,,,,,,,,,9.580078125,-4.86328125,1,0,0,0.854039907455,,,,,2015_Sep_28_1232,G,facesParametric,12,59.5393628302,
./stim/MorphM2_05_orig.jpg,119,,,,,,,,,0,119,119,119,,,,,,,,,,,,,,,9.580078125,-4.86328125,1,0,0,2.84585285187,,,,,2015_Sep_28_1232,G,facesParametric,12,59.5393628302,
./stim/MorphM6_03_orig.jpg,120,,,,,,,,,0,120,120,120,,,,,,,,,,,,,,,9.580078125,-4.86328125,0,0,1,3.09749698639,,,,,2015_Sep_28_1232,G,facesParametric,12,59.5393628302,
./stim/MorphM3_07_orig.jpg,121,,,,,,,,,0,121,121,121,,,,,,,,,,,,,,,9.55078125,-4.892578125,1,0,0,1.80917406082,,,,,2015_Sep_28_1232,G,facesParametric,12,59.5393628302,
./stim/MorphF4_09_orig.jpg,122,,,,,,,,,0,122,122,122,,,,,,,,,,,,,,,9.55078125,-4.892578125,1,0,0,1.22023797035,,,,,2015_Sep_28_1232,G,facesParametric,12,59.5393628302,
./stim/MorphF3_01_orig.jpg,123,,,,,,,,,0,123,123,123,,,,,,,,,,,,,,,9.55078125,-4.892578125,0,0,1,4.77523708344,,,,,2015_Sep_28_1232,G,facesParametric,12,59.5393628302,
./stim/MorphF2_08_orig.jpg,124,,,,,,,,,0,124,124,124,,,,,,,,,,,,,,,9.55078125,-4.892578125,1,0,0,3.03201413155,,,,,2015_Sep_28_1232,G,facesParametric,12,59.5393628302,
./stim/MorphM5_03_orig.jpg,125,,,,,,,,,0,125,125,125,,,,,,,,,,,,,,,9.55078125,-4.892578125,1,0,0,1.69166612625,,,,,2015_Sep_28_1232,G,facesParametric,12,59.5393628302,
./stim/MorphM1_09_orig.jpg,126,,,,,,,,,0,126,126,126,,,,,,,,,,,,,,,9.55078125,-4.892578125,1,0,0,3.3337328434,,,,,2015_Sep_28_1232,G,facesParametric,12,59.5393628302,
./stim/MorphF1_10_orig.jpg,127,,,,,,,,,0,127,127,127,,,,,,,,,,,,,,,9.55078125,-4.892578125,0,0,1,3.75273299217,,,,,2015_Sep_28_1232,G,facesParametric,12,59.5393628302,
./stim/MorphM6_06_orig.jpg,128,,,,,,,,,0,128,128,128,,,,,,,,,,,,,,,9.580078125,-4.365234375,1,0,0,1.64137601852,,,,,2015_Sep_28_1232,G,facesParametric,12,59.5393628302,
./stim/MorphF1_04_orig.jpg,129,,,,,,,,,0,129,129,129,,,,,,,,,,,,,,,9.990234375,-4.482421875,0,0,1,3.18326878548,,,,,2015_Sep_28_1232,G,facesParametric,12,59.5393628302,
./stim/MorphF6_08_orig.jpg,130,,,,,,,,,0,130,130,130,,,,,,,,,,,,,,,9.9609375,-4.453125,0,0,1,1.6241710186,,,,,2015_Sep_28_1232,G,facesParametric,12,59.5393628302,
./stim/MorphM6_02_orig.jpg,131,,,,,,,,,0,131,131,131,,,,,,,,,,,,,,,9.9609375,-4.453125,1,0,0,3.97003698349,,,,,2015_Sep_28_1232,G,facesParametric,12,59.5393628302,
./stim/MorphF7_01_orig.jpg,132,,,,,,,,,0,132,132,132,,,,,,,,,,,,,,,9.990234375,-4.423828125,1,0,0,2.46203899384,,,,,2015_Sep_28_1232,G,facesParametric,12,59.5393628302,
./stim/MorphM8_03_orig.jpg,133,,,,,,,,,0,133,133,133,,,,,,,,,,,,,,,9.990234375,-4.423828125,0,0,1,2.17756319046,,,,,2015_Sep_28_1232,G,facesParametric,12,59.5393628302,
./stim/MorphF6_06_orig.jpg,134,,,,,,,,,0,134,134,134,,,,,,,,,,,,,,,9.9609375,-4.423828125,0,0,1,1.02092599869,,,,,2015_Sep_28_1232,G,facesParametric,12,59.5393628302,
./stim/MorphF8_00_orig.jpg,135,,,,,,,,,0,135,135,135,,,,,,,,,,,,,,,9.9609375,-4.423828125,0,0,1,0.868567943573,,,,,2015_Sep_28_1232,G,facesParametric,12,59.5393628302,
./stim/MorphF4_02_orig.jpg,136,,,,,,,,,0,136,136,136,,,,,,,,,,,,,,,9.9609375,-4.423828125,0,0,1,1.4735519886,,,,,2015_Sep_28_1232,G,facesParametric,12,59.5393628302,
./stim/MorphM10_05_orig.jpg,137,,,,,,,,,0,137,137,137,,,,,,,,,,,,,,,9.9609375,-4.423828125,1,0,0,0.920432806015,,,,,2015_Sep_28_1232,G,facesParametric,12,59.5393628302,
./stim/MorphF4_07_orig.jpg,138,,,,,,,,,0,138,138,138,,,,,,,,,,,,,,,9.931640625,-4.423828125,1,0,0,1.90809202194,,,,,2015_Sep_28_1232,G,facesParametric,12,59.5393628302,
./stim/MorphM7_10_orig.jpg,139,,,,,,,,,0,139,139,139,,,,,,,,,,,,,,,9.90234375,-4.423828125,1,0,0,0.685636997223,,,,,2015_Sep_28_1232,G,facesParametric,12,59.5393628302,
./stim/MorphF3_05_orig.jpg,140,,,,,,,,,0,140,140,140,,,,,,,,,,,,,,,9.90234375,-4.423828125,0,0,1,1.50820803642,,,,,2015_Sep_28_1232,G,facesParametric,12,59.5393628302,
./stim/MorphF6_01_orig.jpg,141,,,,,,,,,0,141,141,141,,,,,,,,,,,,,,,9.90234375,-4.423828125,0,0,1,1.32142901421,,,,,2015_Sep_28_1232,G,facesParametric,12,59.5393628302,
./stim/MorphM2_04_orig.jpg,142,,,,,,,,,0,142,142,142,,,,,,,,,,,,,,,9.90234375,-4.423828125,1,0,0,3.26768517494,,,,,2015_Sep_28_1232,G,facesParametric,12,59.5393628302,
./stim/MorphM1_05_orig.jpg,143,,,,,,,,,0,143,143,143,,,,,,,,,,,,,,,9.873046875,-4.39453125,1,0,0,2.87976288795,,,,,2015_Sep_28_1232,G,facesParametric,12,59.5393628302,
./stim/MorphF9_02_orig.jpg,144,,,,,,,,,0,144,144,144,,,,,,,,,,,,,,,9.873046875,-4.39453125,0,0,1,1.75855493546,,,,,2015_Sep_28_1232,G,facesParametric,12,59.5393628302,
./stim/MorphM3_06_orig.jpg,145,,,,,,,,,0,145,145,145,,,,,,,,,,,,,,,9.84375,-4.39453125,1,0,0,1.38966798782,,,,,2015_Sep_28_1232,G,facesParametric,12,59.5393628302,
./stim/MorphF3_03_orig.jpg,146,,,,,,,,,0,146,146,146,,,,,,,,,,,,,,,9.814453125,-4.423828125,1,0,0,3.26584911346,,,,,2015_Sep_28_1232,G,facesParametric,12,59.5393628302,
./stim/MorphM6_04_orig.jpg,147,,,,,,,,,0,147,147,147,,,,,,,,,,,,,,,9.814453125,-4.423828125,0,0,1,1.70740103722,,,,,2015_Sep_28_1232,G,facesParametric,12,59.5393628302,
./stim/MorphM7_08_orig.jpg,148,,,,,,,,,0,148,148,148,,,,,,,,,,,,,,,9.78515625,-4.423828125,1,0,0,1.49025702477,,,,,2015_Sep_28_1232,G,facesParametric,12,59.5393628302,
./stim/MorphM3_08_orig.jpg,149,,,,,,,,,0,149,149,149,,,,,,,,,,,,,,,9.755859375,-4.423828125,1,0,0,0.970757961273,,,,,2015_Sep_28_1232,G,facesParametric,12,59.5393628302,
./stim/MorphM8_07_orig.jpg,150,,,,,,,,,0,150,150,150,,,,,,,,,,,,,,,9.755859375,-4.423828125,1,0,0,4.32296204567,,,,,2015_Sep_28_1232,G,facesParametric,12,59.5393628302,
./stim/MorphM1_07_orig.jpg,151,,,,,,,,,0,151,151,151,,,,,,,,,,,,,,,9.7265625,-4.453125,1,0,0,0.719264984131,,,,,2015_Sep_28_1232,G,facesParametric,12,59.5393628302,
./stim/MorphF4_03_orig.jpg,152,,,,,,,,,0,152,152,152,,,,,,,,,,,,,,,9.7265625,-4.453125,0,0,1,1.05415987968,,,,,2015_Sep_28_1232,G,facesParametric,12,59.5393628302,
./stim/MorphM5_07_orig.jpg,153,,,,,,,,,0,153,153,153,,,,,,,,,,,,,,,9.55078125,-4.453125,0,0,1,2.12736392021,,,,,2015_Sep_28_1232,G,facesParametric,12,59.5393628302,
./stim/MorphM9_06_orig.jpg,154,,,,,,,,,0,154,154,154,,,,,,,,,,,,,,,9.55078125,-4.453125,1,0,0,2.71362614632,,,,,2015_Sep_28_1232,G,facesParametric,12,59.5393628302,
./stim/MorphF8_09_orig.jpg,155,,,,,,,,,0,155,155,155,,,,,,,,,,,,,,,9.55078125,-4.453125,1,0,0,1.34087610245,,,,,2015_Sep_28_1232,G,facesParametric,12,59.5393628302,
./stim/MorphM6_01_orig.jpg,156,,,,,,,,,0,156,156,156,,,,,,,,,,,,,,,9.521484375,-4.423828125,0,0,1,4.40481901169,,,,,2015_Sep_28_1232,G,facesParametric,12,59.5393628302,
./stim/MorphM7_06_orig.jpg,157,,,,,,,,,0,157,157,157,,,,,,,,,,,,,,,9.638671875,-4.3359375,1,0,0,4.90928912163,,,,,2015_Sep_28_1232,G,facesParametric,12,59.5393628302,
./stim/MorphM10_08_orig.jpg,158,,,,,,,,,0,158,158,158,,,,,,,,,,,,,,,9.638671875,-4.3359375,1,0,0,0.768029928207,,,,,2015_Sep_28_1232,G,facesParametric,12,59.5393628302,
./stim/MorphF10_02_orig.jpg,159,,,,,,,,,0,159,159,159,,,,,,,,,,,,,,,9.638671875,-4.3359375,0,0,1,3.25013017654,,,,,2015_Sep_28_1232,G,facesParametric,12,59.5393628302,
./stim/MorphM9_08_orig.jpg,160,,,,,,,,,0,160,160,160,,,,,,,,,,,,,,,9.638671875,-4.3359375,1,0,0,3.16675496101,,,,,2015_Sep_28_1232,G,facesParametric,12,59.5393628302,
./stim/MorphM4_09_orig.jpg,161,,,,,,,,,0,161,161,161,,,,,,,,,,,,,,,9.638671875,-4.3359375,1,0,0,1.22198796272,,,,,2015_Sep_28_1232,G,facesParametric,12,59.5393628302,
./stim/MorphM2_03_orig.jpg,162,,,,,,,,,0,162,162,162,,,,,,,,,,,,,,,9.66796875,-4.306640625,0,0,1,2.89771604538,,,,,2015_Sep_28_1232,G,facesParametric,12,59.5393628302,
./stim/MorphM1_08_orig.jpg,163,,,,,,,,,0,163,163,163,,,,,,,,,,,,,,,9.66796875,-4.306640625,0,0,1,1.08810997009,,,,,2015_Sep_28_1232,G,facesParametric,12,59.5393628302,
./stim/MorphF10_01_orig.jpg,164,,,,,,,,,0,164,164,164,,,,,,,,,,,,,,,9.66796875,-4.306640625,0,0,1,1.6412498951,,,,,2015_Sep_28_1232,G,facesParametric,12,59.5393628302,
./stim/MorphM6_07_orig.jpg,165,,,,,,,,,0,165,165,165,,,,,,,,,,,,,,,9.66796875,-4.306640625,1,0,0,1.49042701721,,,,,2015_Sep_28_1232,G,facesParametric,12,59.5393628302,
./stim/MorphM3_00_orig.jpg,166,,,,,,,,,0,166,166,166,,,,,,,,,,,,,,,9.66796875,-4.306640625,1,0,0,1.3558921814,,,,,2015_Sep_28_1232,G,facesParametric,12,59.5393628302,
./stim/MorphF8_01_orig.jpg,167,,,,,,,,,0,167,167,167,,,,,,,,,,,,,,,9.66796875,-4.306640625,0,0,1,3.26743102074,,,,,2015_Sep_28_1232,G,facesParametric,12,59.5393628302,
./stim/MorphF2_07_orig.jpg,168,,,,,,,,,0,168,168,168,,,,,,,,,,,,,,,9.638671875,-4.306640625,0,0,1,1.10439300537,,,,,2015_Sep_28_1232,G,facesParametric,12,59.5393628302,
./stim/MorphM9_05_orig.jpg,169,,,,,,,,,0,169,169,169,,,,,,,,,,,,,,,9.638671875,-4.306640625,1,0,0,1.65636992455,,,,,2015_Sep_28_1232,G,facesParametric,12,59.5393628302,
./stim/MorphF5_07_orig.jpg,170,,,,,,,,,0,170,170,170,,,,,,,,,,,,,,,9.638671875,-4.306640625,1,0,0,1.32148694992,,,,,2015_Sep_28_1232,G,facesParametric,12,59.5393628302,
./stim/MorphM2_06_orig.jpg,171,,,,,,,,,0,171,171,171,,,,,,,,,,,,,,,9.609375,-4.3359375,1,0,0,1.8921020031,,,,,2015_Sep_28_1232,G,facesParametric,12,59.5393628302,
./stim/MorphM7_01_orig.jpg,172,,,,,,,,,0,172,172,172,,,,,,,,,,,,,,,9.609375,-4.3359375,1,0,0,1.82586288452,,,,,2015_Sep_28_1232,G,facesParametric,12,59.5393628302,
./stim/MorphF2_09_orig.jpg,173,,,,,,,,,0,173,173,173,,,,,,,,,,,,,,,9.609375,-4.3359375,0,0,1,5.35980510712,,,,,2015_Sep_28_1232,G,facesParametric,12,59.5393628302,
./stim/MorphF6_07_orig.jpg,174,,,,,,,,,0,174,174,174,,,,,,,,,,,,,,,9.609375,-4.365234375,1,0,0,2.00866913795,,,,,2015_Sep_28_1232,G,facesParametric,12,59.5393628302,
./stim/MorphM3_01_orig.jpg,175,,,,,,,,,0,175,175,175,,,,,,,,,,,,,,,9.609375,-4.365234375,1,0,0,2.1610751152,,,,,2015_Sep_28_1232,G,facesParametric,12,59.5393628302,
./stim/MorphF4_10_orig.jpg,176,,,,,,,,,0,176,176,176,,,,,,,,,,,,,,,9.609375,-4.365234375,1,0,0,0.96865105629,,,,,2015_Sep_28_1232,G,facesParametric,12,59.5393628302,
./stim/MorphM2_10_orig.jpg,177,,,,,,,,,0,177,177,177,,,,,,,,,,,,,,,9.580078125,-4.423828125,1,0,0,1.54071116447,,,,,2015_Sep_28_1232,G,facesParametric,12,59.5393628302,
./stim/MorphM6_09_orig.jpg,178,,,,,,,,,0,178,178,178,,,,,,,,,,,,,,,9.4921875,-4.21875,0,0,1,4.02086281776,,,,,2015_Sep_28_1232,G,facesParametric,12,59.5393628302,
./stim/MorphF3_06_orig.jpg,179,,,,,,,,,0,179,179,179,,,,,,,,,,,,,,,9.4921875,-4.21875,0,0,1,0.853854894638,,,,,2015_Sep_28_1232,G,facesParametric,12,59.5393628302,
./stim/MorphM4_02_orig.jpg,180,,,,,,,,,0,180,180,180,,,,,,,,,,,,,,,9.4921875,-4.21875,0,0,1,1.8581430912,,,,,2015_Sep_28_1232,G,facesParametric,12,59.5393628302,
./stim/MorphM7_00_orig.jpg,181,,,,,,,,,0,181,181,181,,,,,,,,,,,,,,,9.4921875,-4.21875,0,0,1,2.40958094597,,,,,2015_Sep_28_1232,G,facesParametric,12,59.5393628302,
./stim/MorphM2_09_orig.jpg,182,,,,,,,,,0,182,182,182,,,,,,,,,,,,,,,9.4921875,-4.21875,1,0,0,2.34541606903,,,,,2015_Sep_28_1232,G,facesParametric,12,59.5393628302,
./stim/MorphF4_08_orig.jpg,183,,,,,,,,,0,183,183,183,,,,,,,,,,,,,,,9.4921875,-4.21875,1,0,0,0.851794958115,,,,,2015_Sep_28_1232,G,facesParametric,12,59.5393628302,
./stim/MorphM2_02_orig.jpg,184,,,,,,,,,0,184,184,184,,,,,,,,,,,,,,,9.4921875,-4.248046875,1,0,0,3.01545405388,,,,,2015_Sep_28_1232,G,facesParametric,12,59.5393628302,
./stim/MorphF4_05_orig.jpg,185,,,,,,,,,0,185,185,185,,,,,,,,,,,,,,,9.78515625,-4.248046875,1,0,0,7.17114186287,,,,,2015_Sep_28_1232,G,facesParametric,12,59.5393628302,
./stim/MorphM4_01_orig.jpg,186,,,,,,,,,0,186,186,186,,,,,,,,,,,,,,,9.7265625,-4.248046875,1,0,0,6.39837908745,,,,,2015_Sep_28_1232,G,facesParametric,12,59.5393628302,
./stim/MorphM8_10_orig.jpg,187,,,,,,,,,0,187,187,187,,,,,,,,,,,,,,,9.7265625,-4.248046875,1,0,0,3.76984000206,,,,,2015_Sep_28_1232,G,facesParametric,12,59.5393628302,
./stim/MorphM4_04_orig.jpg,188,,,,,,,,,0,188,188,188,,,,,,,,,,,,,,,9.7265625,-4.248046875,1,0,0,0.836908817291,,,,,2015_Sep_28_1232,G,facesParametric,12,59.5393628302,
./stim/MorphF2_04_orig.jpg,189,,,,,,,,,0,189,189,189,,,,,,,,,,,,,,,9.7265625,-4.248046875,0,0,1,1.17026185989,,,,,2015_Sep_28_1232,G,facesParametric,12,59.5393628302,
./stim/MorphF8_03_orig.jpg,190,,,,,,,,,0,190,190,190,,,,,,,,,,,,,,,9.697265625,-4.21875,0,0,1,2.21128177643,,,,,2015_Sep_28_1232,G,facesParametric,12,59.5393628302,
./stim/MorphM5_00_orig.jpg,191,,,,,,,,,0,191,191,191,,,,,,,,,,,,,,,9.697265625,-4.21875,1,0,0,4.43996310234,,,,,2015_Sep_28_1232,G,facesParametric,12,59.5393628302,
./stim/MorphM4_05_orig.jpg,192,,,,,,,,,0,192,192,192,,,,,,,,,,,,,,,9.697265625,-4.21875,1,0,0,3.48474502563,,,,,2015_Sep_28_1232,G,facesParametric,12,59.5393628302,
./stim/MorphM1_01_orig.jpg,193,,,,,,,,,0,193,193,193,,,,,,,,,,,,,,,9.521484375,-4.189453125,1,0,0,3.65100193024,,,,,2015_Sep_28_1232,G,facesParametric,12,59.5393628302,
./stim/MorphF7_07_orig.jpg,194,,,,,,,,,0,194,194,194,,,,,,,,,,,,,,,9.521484375,-4.189453125,0,0,1,3.23320293427,,,,,2015_Sep_28_1232,G,facesParametric,12,59.5393628302,
./stim/MorphM10_10_orig.jpg,195,,,,,,,,,0,195,195,195,,,,,,,,,,,,,,,9.521484375,-4.189453125,1,0,0,1.68979310989,,,,,2015_Sep_28_1232,G,facesParametric,12,59.5393628302,
./stim/MorphM9_00_orig.jpg,196,,,,,,,,,0,196,196,196,,,,,,,,,,,,,,,9.521484375,-4.16015625,0,0,1,1.3731110096,,,,,2015_Sep_28_1232,G,facesParametric,12,59.5393628302,
./stim/MorphM8_02_orig.jpg,197,,,,,,,,,0,197,197,197,,,,,,,,,,,,,,,9.345703125,-4.16015625,0,0,1,3.1821501255,,,,,2015_Sep_28_1232,G,facesParametric,12,59.5393628302,
./stim/MorphF9_05_orig.jpg,198,,,,,,,,,0,198,198,198,,,,,,,,,,,,,,,9.345703125,-4.16015625,0,0,1,1.70640802383,,,,,2015_Sep_28_1232,G,facesParametric,12,59.5393628302,
./stim/MorphM7_03_orig.jpg,199,,,,,,,,,0,199,199,199,,,,,,,,,,,,,,,9.345703125,-4.16015625,1,0,0,3.81976914406,,,,,2015_Sep_28_1232,G,facesParametric,12,59.5393628302,
./stim/MorphF8_04_orig.jpg,200,,,,,,,,,0,200,200,200,,,,,,,,,,,,,,,9.345703125,-4.16015625,0,0,1,1.90958809853,,,,,2015_Sep_28_1232,G,facesParametric,12,59.5393628302,
./stim/MorphF2_03_orig.jpg,201,,,,,,,,,0,201,201,201,,,,,,,,,,,,,,,9.287109375,-4.21875,0,0,1,1.57363796234,,,,,2015_Sep_28_1232,G,facesParametric,12,59.5393628302,
./stim/MorphF9_00_orig.jpg,202,,,,,,,,,0,202,202,202,,,,,,,,,,,,,,,9.287109375,-4.21875,0,0,1,3.4161798954,,,,,2015_Sep_28_1232,G,facesParametric,12,59.5393628302,
./stim/MorphF10_00_orig.jpg,203,,,,,,,,,0,203,203,203,,,,,,,,,,,,,,,9.287109375,-4.21875,1,0,0,5.29408717155,,,,,2015_Sep_28_1232,G,facesParametric,12,59.5393628302,
./stim/MorphM3_04_orig.jpg,204,,,,,,,,,0,204,204,204,,,,,,,,,,,,,,,9.287109375,-4.21875,1,0,0,1.20348215103,,,,,2015_Sep_28_1232,G,facesParametric,12,59.5393628302,
./stim/MorphM9_03_orig.jpg,205,,,,,,,,,0,205,205,205,,,,,,,,,,,,,,,9.287109375,-4.21875,0,0,1,3.63609004021,,,,,2015_Sep_28_1232,G,facesParametric,12,59.5393628302,
./stim/MorphF6_03_orig.jpg,206,,,,,,,,,0,206,206,206,,,,,,,,,,,,,,,9.287109375,-4.21875,0,0,1,1.33884310722,,,,,2015_Sep_28_1232,G,facesParametric,12,59.5393628302,
./stim/MorphM10_03_orig.jpg,207,,,,,,,,,0,207,207,207,,,,,,,,,,,,,,,9.287109375,-4.21875,1,0,0,4.97480511665,,,,,2015_Sep_28_1232,G,facesParametric,12,59.5393628302,
./stim/MorphF2_05_orig.jpg,208,,,,,,,,,0,208,208,208,,,,,,,,,,,,,,,9.287109375,-4.21875,1,0,0,2.59653186798,,,,,2015_Sep_28_1232,G,facesParametric,12,59.5393628302,
./stim/MorphM2_00_orig.jpg,209,,,,,,,,,0,209,209,209,,,,,,,,,,,,,,,9.287109375,-4.21875,0,0,1,2.00850892067,,,,,2015_Sep_28_1232,G,facesParametric,12,59.5393628302,
./stim/MorphF7_05_orig.jpg,210,,,,,,,,,0,210,210,210,,,,,,,,,,,,,,,9.19921875,-4.189453125,1,0,0,1.70824289322,,,,,2015_Sep_28_1232,G,facesParametric,12,59.5393628302,
./stim/MorphM6_05_orig.jpg,211,,,,,,,,,0,211,211,211,,,,,,,,,,,,,,,9.19921875,-4.189453125,1,0,0,2.29280090332,,,,,2015_Sep_28_1232,G,facesParametric,12,59.5393628302,
./stim/MorphF5_02_orig.jpg,212,,,,,,,,,0,212,212,212,,,,,,,,,,,,,,,9.375,-4.716796875,0,0,1,3.78429508209,,,,,2015_Sep_28_1232,G,facesParametric,12,59.5393628302,
./stim/MorphF3_07_orig.jpg,213,,,,,,,,,0,213,213,213,,,,,,,,,,,,,,,9.31640625,-4.716796875,0,0,1,0.885993003845,,,,,2015_Sep_28_1232,G,facesParametric,12,59.5393628302,
./stim/MorphF5_10_orig.jpg,214,,,,,,,,,0,214,214,214,,,,,,,,,,,,,,,9.31640625,-4.716796875,1,0,0,1.28768491745,,,,,2015_Sep_28_1232,G,facesParametric,12,59.5393628302,
./stim/MorphF3_04_orig.jpg,215,,,,,,,,,0,215,215,215,,,,,,,,,,,,,,,9.31640625,-4.716796875,0,0,1,0.970589876175,,,,,2015_Sep_28_1232,G,facesParametric,12,59.5393628302,
./stim/MorphF10_09_orig.jpg,216,,,,,,,,,0,216,216,216,,,,,,,,,,,,,,,9.31640625,-4.716796875,1,0,0,0.95410490036,,,,,2015_Sep_28_1232,G,facesParametric,12,59.5393628302,
./stim/MorphF6_00_orig.jpg,217,,,,,,,,,0,217,217,217,,,,,,,,,,,,,,,9.31640625,-4.716796875,0,0,1,1.95942306519,,,,,2015_Sep_28_1232,G,facesParametric,12,59.5393628302,
./stim/MorphF1_05_orig.jpg,218,,,,,,,,,0,218,218,218,,,,,,,,,,,,,,,9.31640625,-4.716796875,0,0,1,1.15577316284,,,,,2015_Sep_28_1232,G,facesParametric,12,59.5393628302,
./stim/MorphM3_10_orig.jpg,219,,,,,,,,,0,219,219,219,,,,,,,,,,,,,,,9.2578125,-4.716796875,1,0,0,2.37768387794,,,,,2015_Sep_28_1232,G,facesParametric,12,59.5393628302,
,,,,,,,,,,,,,,,,,,,,,,,,,,,,,,,,,,,,return,50.8879239559,2015_Sep_28_1232,G,facesParametric,12,59.5393628302,
