img,num,basicLoop.thisRepN,basicLoop.thisTrialN,basicLoop.thisN,basicLoop.thisIndex,trials.thisRepN,trials.thisTrialN,trials.thisN,trials.thisIndex,trials2.thisRepN,trials2.thisTrialN,trials2.thisN,trials2.thisIndex,key_resp_2.keys,key_resp_2.rt,basicRating1.response,basicRating1.rt,basicRating2.response,basicRating2.rt,basicRating3.response,basicRating3.rt,basicRating4.response,basicRating4.rt,key_resp_3.keys,key_resp_3.rt,key_resp_4.keys,key_resp_4.rt,mouseResp.x,mouseResp.y,mouseResp.leftButton,mouseResp.midButton,mouseResp.rightButton,mouseResp.time,key_resp_5.keys,key_resp_5.rt,key_resp_7.keys,key_resp_7.rt,date,group,expName,participant,frameRate,
,,,,,,,,,,,,,,return,48.8375859261,,,,,,,,,,,,,,,,,,,,,,,2015_Sep_28_1414,G,facesParametric,13,59.6982567209,
./basicStim/02F_DI_O.jpg,,0,0,0,8,,,,,,,,,,,None,None,None,None,SUP,22.512,None,None,,,,,,,,,,,,,,,2015_Sep_28_1414,G,facesParametric,13,59.6982567209,
./basicStim/21M_NE_C.jpg,,0,1,1,48,,,,,,,,,,,None,None,None,None,None,None,NTR,27.829,,,,,,,,,,,,,,,2015_Sep_28_1414,G,facesParametric,13,59.6982567209,
./basicStim/36M_DI_O.jpg,,0,2,2,78,,,,,,,,,,,None,None,None,None,None,None,NTR,13.646,,,,,,,,,,,,,,,2015_Sep_28_1414,G,facesParametric,13,59.6982567209,
./basicStim/07F_DI_O.jpg,,0,3,3,29,,,,,,,,,,,SAD,9.306,None,None,None,None,None,None,,,,,,,,,,,,,,,2015_Sep_28_1414,G,facesParametric,13,59.6982567209,
./basicStim/34M_AN_O.jpg,,0,4,4,70,,,,,,,,,,,None,None,ANG,3.043,None,None,None,None,,,,,,,,,,,,,,,2015_Sep_28_1414,G,facesParametric,13,59.6982567209,
./basicStim/09F_HA_O.jpg,,0,5,5,38,,,,,,,,,,,HAP,3.492,None,None,None,None,None,None,,,,,,,,,,,,,,,2015_Sep_28_1414,G,facesParametric,13,59.6982567209,
./basicStim/06F_SP_O.jpg,,0,6,6,26,,,,,,,,,,,None,None,None,None,SUP,3.724,None,None,,,,,,,,,,,,,,,2015_Sep_28_1414,G,facesParametric,13,59.6982567209,
./basicStim/02F_SP_O.jpg,,0,7,7,12,,,,,,,,,,,None,None,None,None,SUP,1.884,None,None,,,,,,,,,,,,,,,2015_Sep_28_1414,G,facesParametric,13,59.6982567209,
./basicStim/06F_SA_C.jpg,,0,8,8,25,,,,,,,,,,,None,None,None,None,SUP,11.162,None,None,,,,,,,,,,,,,,,2015_Sep_28_1414,G,facesParametric,13,59.6982567209,
./basicStim/28M_FE_O.jpg,,0,9,9,65,,,,,,,,,,,None,None,None,None,SUP,1.654,None,None,,,,,,,,,,,,,,,2015_Sep_28_1414,G,facesParametric,13,59.6982567209,
./basicStim/34M_SA_C.jpg,,0,10,10,74,,,,,,,,,,,SAD,2.288,None,None,None,None,None,None,,,,,,,,,,,,,,,2015_Sep_28_1414,G,facesParametric,13,59.6982567209,
./basicStim/02F_HA_O.jpg,,0,11,11,10,,,,,,,,,,,HAP,4.262,None,None,None,None,None,None,,,,,,,,,,,,,,,2015_Sep_28_1414,G,facesParametric,13,59.6982567209,
./basicStim/03F_SA_C.jpg,,0,12,12,18,,,,,,,,,,,None,None,None,None,None,None,NTR,2.505,,,,,,,,,,,,,,,2015_Sep_28_1414,G,facesParametric,13,59.6982567209,
./basicStim/36M_SP_O.jpg,,0,13,13,82,,,,,,,,,,,None,None,None,None,SUP,3.261,None,None,,,,,,,,,,,,,,,2015_Sep_28_1414,G,facesParametric,13,59.6982567209,
./basicStim/06F_AN_O.jpg,,0,14,14,21,,,,,,,,,,,None,None,None,None,DIS,5.915,None,None,,,,,,,,,,,,,,,2015_Sep_28_1414,G,facesParametric,13,59.6982567209,
./basicStim/07F_HA_O.jpg,,0,15,15,31,,,,,,,,,,,HAP,6.707,None,None,None,None,None,None,,,,,,,,,,,,,,,2015_Sep_28_1414,G,facesParametric,13,59.6982567209,
./basicStim/02F_FE_O.jpg,,0,16,16,9,,,,,,,,,,,None,None,None,None,None,None,NTR,17.199,,,,,,,,,,,,,,,2015_Sep_28_1414,G,facesParametric,13,59.6982567209,
./basicStim/03F_DI_O.jpg,,0,17,17,15,,,,,,,,,,,None,None,None,None,DIS,6.173,None,None,,,,,,,,,,,,,,,2015_Sep_28_1414,G,facesParametric,13,59.6982567209,
./basicStim/36M_AN_O.jpg,,0,18,18,77,,,,,,,,,,,None,None,None,None,DIS,4.368,None,None,,,,,,,,,,,,,,,2015_Sep_28_1414,G,facesParametric,13,59.6982567209,
./basicStim/01F_DI_O.jpg,,0,19,19,1,,,,,,,,,,,None,None,None,None,DIS,5.547,None,None,,,,,,,,,,,,,,,2015_Sep_28_1414,G,facesParametric,13,59.6982567209,
./basicStim/01F_SP_O.jpg,,0,20,20,5,,,,,,,,,,,HAP,3.442,None,None,None,None,None,None,,,,,,,,,,,,,,,2015_Sep_28_1414,G,facesParametric,13,59.6982567209,
./basicStim/21M_FE_O.jpg,,0,21,21,44,,,,,,,,,,,None,None,None,None,SUP,3.743,None,None,,,,,,,,,,,,,,,2015_Sep_28_1414,G,facesParametric,13,59.6982567209,
./basicStim/07F_NE_C.jpg,,0,22,22,34,,,,,,,,,,,None,None,None,None,None,None,NTR,2.484,,,,,,,,,,,,,,,2015_Sep_28_1414,G,facesParametric,13,59.6982567209,
./basicStim/07F_AN_O.jpg,,0,23,23,28,,,,,,,,,,,None,None,None,None,SUP,7.012,None,None,,,,,,,,,,,,,,,2015_Sep_28_1414,G,facesParametric,13,59.6982567209,
./basicStim/03F_SP_O.jpg,,0,24,24,19,,,,,,,,,,,None,None,None,None,SUP,1.513,None,None,,,,,,,,,,,,,,,2015_Sep_28_1414,G,facesParametric,13,59.6982567209,
./basicStim/21M_SA_C.jpg,,0,25,25,46,,,,,,,,,,,None,None,ANG,3.461,None,None,None,None,,,,,,,,,,,,,,,2015_Sep_28_1414,G,facesParametric,13,59.6982567209,
./basicStim/07F_SA_C.jpg,,0,26,26,32,,,,,,,,,,,SAD,2.138,None,None,None,None,None,None,,,,,,,,,,,,,,,2015_Sep_28_1414,G,facesParametric,13,59.6982567209,
./basicStim/36M_FE_O.jpg,,0,27,27,79,,,,,,,,,,,None,None,None,None,SUP,4.178,None,None,,,,,,,,,,,,,,,2015_Sep_28_1414,G,facesParametric,13,59.6982567209,
./basicStim/34M_SP_O.jpg,,0,28,28,75,,,,,,,,,,,None,None,None,None,SUP,1.965,None,None,,,,,,,,,,,,,,,2015_Sep_28_1414,G,facesParametric,13,59.6982567209,
./basicStim/23M_SA_C.jpg,,0,29,29,53,,,,,,,,,,,None,None,None,None,None,None,NTR,6.492,,,,,,,,,,,,,,,2015_Sep_28_1414,G,facesParametric,13,59.6982567209,
./basicStim/24M_DI_O.jpg,,0,30,30,57,,,,,,,,,,,None,None,None,None,None,None,NTR,38.257,,,,,,,,,,,,,,,2015_Sep_28_1414,G,facesParametric,13,59.6982567209,
./basicStim/06F_DI_O.jpg,,0,31,31,22,,,,,,,,,,,None,None,None,None,DIS,4.469,None,None,,,,,,,,,,,,,,,2015_Sep_28_1414,G,facesParametric,13,59.6982567209,
./basicStim/03F_FE_O.jpg,,0,32,32,16,,,,,,,,,,,None,None,None,None,SUP,5.404,None,None,,,,,,,,,,,,,,,2015_Sep_28_1414,G,facesParametric,13,59.6982567209,
./basicStim/24M_SP_O.jpg,,0,33,33,61,,,,,,,,,,,None,None,None,None,SUP,12.211,None,None,,,,,,,,,,,,,,,2015_Sep_28_1414,G,facesParametric,13,59.6982567209,
./basicStim/23M_DI_O.jpg,,0,34,34,50,,,,,,,,,,,SAD,2.307,None,None,None,None,None,None,,,,,,,,,,,,,,,2015_Sep_28_1414,G,facesParametric,13,59.6982567209,
./basicStim/28M_HA_O.jpg,,0,35,35,66,,,,,,,,,,,HAP,3.928,None,None,None,None,None,None,,,,,,,,,,,,,,,2015_Sep_28_1414,G,facesParametric,13,59.6982567209,
./basicStim/09F_DI_O.jpg,,0,36,36,36,,,,,,,,,,,None,None,None,None,DIS,2.316,None,None,,,,,,,,,,,,,,,2015_Sep_28_1414,G,facesParametric,13,59.6982567209,
./basicStim/07F_FE_O.jpg,,0,37,37,30,,,,,,,,,,,HAP,4.722,None,None,None,None,None,None,,,,,,,,,,,,,,,2015_Sep_28_1414,G,facesParametric,13,59.6982567209,
./basicStim/21M_AN_O.jpg,,0,38,38,42,,,,,,,,,,,None,None,ANG,7.61,None,None,None,None,,,,,,,,,,,,,,,2015_Sep_28_1414,G,facesParametric,13,59.6982567209,
./basicStim/06F_FE_O.jpg,,0,39,39,23,,,,,,,,,,,None,None,None,None,SUP,2.786,None,None,,,,,,,,,,,,,,,2015_Sep_28_1414,G,facesParametric,13,59.6982567209,
./basicStim/02F_AN_O.jpg,,0,40,40,7,,,,,,,,,,,None,None,ANG,3.041,None,None,None,None,,,,,,,,,,,,,,,2015_Sep_28_1414,G,facesParametric,13,59.6982567209,
./basicStim/36M_NE_C.jpg,,0,41,41,83,,,,,,,,,,,None,None,None,None,None,None,NTR,2.216,,,,,,,,,,,,,,,2015_Sep_28_1414,G,facesParametric,13,59.6982567209,
./basicStim/02F_NE_C.jpg,,0,42,42,13,,,,,,,,,,,None,None,None,None,None,None,NTR,1.261,,,,,,,,,,,,,,,2015_Sep_28_1414,G,facesParametric,13,59.6982567209,
./basicStim/34M_HA_O.jpg,,0,43,43,73,,,,,,,,,,,HAP,2.185,None,None,None,None,None,None,,,,,,,,,,,,,,,2015_Sep_28_1414,G,facesParametric,13,59.6982567209,
./basicStim/36M_SA_C.jpg,,0,44,44,81,,,,,,,,,,,SAD,7.615,None,None,None,None,None,None,,,,,,,,,,,,,,,2015_Sep_28_1414,G,facesParametric,13,59.6982567209,
./basicStim/01F_NE_C.jpg,,0,45,45,6,,,,,,,,,,,None,None,None,None,None,None,NTR,2.015,,,,,,,,,,,,,,,2015_Sep_28_1414,G,facesParametric,13,59.6982567209,
./basicStim/24M_AN_O.jpg,,0,46,46,56,,,,,,,,,,,None,None,ANG,2.569,None,None,None,None,,,,,,,,,,,,,,,2015_Sep_28_1414,G,facesParametric,13,59.6982567209,
./basicStim/24M_SA_C.jpg,,0,47,47,60,,,,,,,,,,,None,None,ANG,5.985,None,None,None,None,,,,,,,,,,,,,,,2015_Sep_28_1414,G,facesParametric,13,59.6982567209,
./basicStim/21M_DI_O.jpg,,0,48,48,43,,,,,,,,,,,None,None,ANG,2.75,None,None,None,None,,,,,,,,,,,,,,,2015_Sep_28_1414,G,facesParametric,13,59.6982567209,
./basicStim/03F_AN_O.jpg,,0,49,49,14,,,,,,,,,,,None,None,ANG,2.667,None,None,None,None,,,,,,,,,,,,,,,2015_Sep_28_1414,G,facesParametric,13,59.6982567209,
./basicStim/34M_FE_O.jpg,,0,50,50,72,,,,,,,,,,,None,None,None,None,SUP,7.551,None,None,,,,,,,,,,,,,,,2015_Sep_28_1414,G,facesParametric,13,59.6982567209,
./basicStim/01F_FE_O.jpg,,0,51,51,2,,,,,,,,,,,HAP,5.418,None,None,None,None,None,None,,,,,,,,,,,,,,,2015_Sep_28_1414,G,facesParametric,13,59.6982567209,
./basicStim/01F_SA_C.jpg,,0,52,52,4,,,,,,,,,,,None,None,None,None,SUP,9.034,None,None,,,,,,,,,,,,,,,2015_Sep_28_1414,G,facesParametric,13,59.6982567209,
./basicStim/28M_SA_C.jpg,,0,53,53,67,,,,,,,,,,,None,None,None,None,None,None,NTR,2.782,,,,,,,,,,,,,,,2015_Sep_28_1414,G,facesParametric,13,59.6982567209,
./basicStim/02F_SA_C.jpg,,0,54,54,11,,,,,,,,,,,SAD,3.798,None,None,None,None,None,None,,,,,,,,,,,,,,,2015_Sep_28_1414,G,facesParametric,13,59.6982567209,
./basicStim/24M_NE_C.jpg,,0,55,55,62,,,,,,,,,,,None,None,None,None,None,None,NTR,2.317,,,,,,,,,,,,,,,2015_Sep_28_1414,G,facesParametric,13,59.6982567209,
./basicStim/24M_FE_O.jpg,,0,56,56,58,,,,,,,,,,,None,None,None,None,DIS,7.048,None,None,,,,,,,,,,,,,,,2015_Sep_28_1414,G,facesParametric,13,59.6982567209,
./basicStim/09F_SA_C.jpg,,0,57,57,39,,,,,,,,,,,None,None,None,None,SUP,5.989,None,None,,,,,,,,,,,,,,,2015_Sep_28_1414,G,facesParametric,13,59.6982567209,
./basicStim/34M_DI_O.jpg,,0,58,58,71,,,,,,,,,,,None,None,ANG,5.868,None,None,None,None,,,,,,,,,,,,,,,2015_Sep_28_1414,G,facesParametric,13,59.6982567209,
./basicStim/09F_NE_C.jpg,,0,59,59,41,,,,,,,,,,,None,None,None,None,None,None,NTR,2.425,,,,,,,,,,,,,,,2015_Sep_28_1414,G,facesParametric,13,59.6982567209,
./basicStim/06F_HA_O.jpg,,0,60,60,24,,,,,,,,,,,HAP,2.805,None,None,None,None,None,None,,,,,,,,,,,,,,,2015_Sep_28_1414,G,facesParametric,13,59.6982567209,
./basicStim/21M_SP_O.jpg,,0,61,61,47,,,,,,,,,,,HAP,4.403,None,None,None,None,None,None,,,,,,,,,,,,,,,2015_Sep_28_1414,G,facesParametric,13,59.6982567209,
./basicStim/28M_SP_O.jpg,,0,62,62,68,,,,,,,,,,,HAP,3.344,None,None,None,None,None,None,,,,,,,,,,,,,,,2015_Sep_28_1414,G,facesParametric,13,59.6982567209,
./basicStim/09F_FE_O.jpg,,0,63,63,37,,,,,,,,,,,None,None,None,None,SUP,8.337,None,None,,,,,,,,,,,,,,,2015_Sep_28_1414,G,facesParametric,13,59.6982567209,
./basicStim/23M_AN_O.jpg,,0,64,64,49,,,,,,,,,,,None,None,ANG,2.722,None,None,None,None,,,,,,,,,,,,,,,2015_Sep_28_1414,G,facesParametric,13,59.6982567209,
./basicStim/28M_NE_C.jpg,,0,65,65,69,,,,,,,,,,,None,None,None,None,None,None,NTR,8.312,,,,,,,,,,,,,,,2015_Sep_28_1414,G,facesParametric,13,59.6982567209,
./basicStim/03F_NE_C.jpg,,0,66,66,20,,,,,,,,,,,None,None,None,None,None,None,NTR,1.542,,,,,,,,,,,,,,,2015_Sep_28_1414,G,facesParametric,13,59.6982567209,
./basicStim/03F_HA_O.jpg,,0,67,67,17,,,,,,,,,,,HAP,2.087,None,None,None,None,None,None,,,,,,,,,,,,,,,2015_Sep_28_1414,G,facesParametric,13,59.6982567209,
./basicStim/09F_SP_O.jpg,,0,68,68,40,,,,,,,,,,,None,None,None,None,SUP,3.158,None,None,,,,,,,,,,,,,,,2015_Sep_28_1414,G,facesParametric,13,59.6982567209,
./basicStim/28M_DI_O.jpg,,0,69,69,64,,,,,,,,,,,None,None,None,None,DIS,2.67,None,None,,,,,,,,,,,,,,,2015_Sep_28_1414,G,facesParametric,13,59.6982567209,
./basicStim/23M_HA_O.jpg,,0,70,70,52,,,,,,,,,,,HAP,2.006,None,None,None,None,None,None,,,,,,,,,,,,,,,2015_Sep_28_1414,G,facesParametric,13,59.6982567209,
./basicStim/23M_NE_C.jpg,,0,71,71,55,,,,,,,,,,,None,None,None,None,None,None,NTR,4.466,,,,,,,,,,,,,,,2015_Sep_28_1414,G,facesParametric,13,59.6982567209,
./basicStim/34M_NE_C.jpg,,0,72,72,76,,,,,,,,,,,None,None,None,None,None,None,NTR,1.125,,,,,,,,,,,,,,,2015_Sep_28_1414,G,facesParametric,13,59.6982567209,
./basicStim/24M_HA_O.jpg,,0,73,73,59,,,,,,,,,,,HAP,2.257,None,None,None,None,None,None,,,,,,,,,,,,,,,2015_Sep_28_1414,G,facesParametric,13,59.6982567209,
./basicStim/07F_SP_O.jpg,,0,74,74,33,,,,,,,,,,,None,None,None,None,SUP,3.137,None,None,,,,,,,,,,,,,,,2015_Sep_28_1414,G,facesParametric,13,59.6982567209,
./basicStim/21M_HA_O.jpg,,0,75,75,45,,,,,,,,,,,None,None,None,None,SUP,3.977,None,None,,,,,,,,,,,,,,,2015_Sep_28_1414,G,facesParametric,13,59.6982567209,
./basicStim/01F_HA_O.jpg,,0,76,76,3,,,,,,,,,,,HAP,2.198,None,None,None,None,None,None,,,,,,,,,,,,,,,2015_Sep_28_1414,G,facesParametric,13,59.6982567209,
./basicStim/06F_NE_C.jpg,,0,77,77,27,,,,,,,,,,,None,None,None,None,None,None,NTR,1.78,,,,,,,,,,,,,,,2015_Sep_28_1414,G,facesParametric,13,59.6982567209,
./basicStim/23M_FE_O.jpg,,0,78,78,51,,,,,,,,,,,None,None,None,None,SUP,2.942,None,None,,,,,,,,,,,,,,,2015_Sep_28_1414,G,facesParametric,13,59.6982567209,
./basicStim/01F_AN_O.jpg,,0,79,79,0,,,,,,,,,,,None,None,ANG,2.601,None,None,None,None,,,,,,,,,,,,,,,2015_Sep_28_1414,G,facesParametric,13,59.6982567209,
./basicStim/23M_SP_O.jpg,,0,80,80,54,,,,,,,,,,,None,None,None,None,SUP,4.56,None,None,,,,,,,,,,,,,,,2015_Sep_28_1414,G,facesParametric,13,59.6982567209,
./basicStim/28M_AN_O.jpg,,0,81,81,63,,,,,,,,,,,None,None,None,None,DIS,2.585,None,None,,,,,,,,,,,,,,,2015_Sep_28_1414,G,facesParametric,13,59.6982567209,
./basicStim/09F_AN_O.jpg,,0,82,82,35,,,,,,,,,,,None,None,None,None,SUP,3.607,None,None,,,,,,,,,,,,,,,2015_Sep_28_1414,G,facesParametric,13,59.6982567209,
./basicStim/36M_HA_O.jpg,,0,83,83,80,,,,,,,,,,,HAP,2.115,None,None,None,None,None,None,,,,,,,,,,,,,,,2015_Sep_28_1414,G,facesParametric,13,59.6982567209,
,,,,,,,,,,,,,,,,,,,,,,,,return,3.73819494247,,,,,,,,,,,,,2015_Sep_28_1414,G,facesParametric,13,59.6982567209,
,,,,,,,,,,,,,,return,8.54691100121,,,,,,,,,,,,,,,,,,,,,,,2015_Sep_28_1414,G,facesParametric,13,59.6982567209,
,,,,,,,,,,,,,,,,,,,,,,,,return,30.1339559555,,,,,,,,,,,,,2015_Sep_28_1414,G,facesParametric,13,59.6982567209,
,,,,,,,,,,,,,,,,,,,,,,,,,,return,14.7152569294,,,,,,,,,,,2015_Sep_28_1414,G,facesParametric,13,59.6982567209,
./stim/MorphM9_09_orig.jpg,0,,,,,0,0,0,0,,,,,,,,,,,,,,,,,,,-13.564453125,9.19921875,1,0,0,3.10148906708,,,,,2015_Sep_28_1414,G,facesParametric,13,59.6982567209,
./stim/MorphM4_08_orig.jpg,1,,,,,0,1,1,1,,,,,,,,,,,,,,,,,,,-13.388671875,8.671875,0,0,1,3.76950716972,,,,,2015_Sep_28_1414,G,facesParametric,13,59.6982567209,
./stim/MorphF9_06_orig.jpg,2,,,,,0,2,2,2,,,,,,,,,,,,,,,,,,,23.291015625,4.453125,1,0,0,6.19991898537,,,,,2015_Sep_28_1414,G,facesParametric,13,59.6982567209,
./stim/MorphF7_10_orig.jpg,3,,,,,0,3,3,3,,,,,,,,,,,,,,,,,,,23.408203125,4.27734375,0,0,1,2.44566392899,,,,,2015_Sep_28_1414,G,facesParametric,13,59.6982567209,
./stim/MorphM3_04_orig.jpg,4,,,,,0,4,4,4,,,,,,,,,,,,,,,,,,,4.62890625,-8.84765625,0,0,1,9.66868209839,,,,,2015_Sep_28_1414,G,facesParametric,13,59.6982567209,
./stim/MorphF1_10_orig.jpg,5,,,,,0,5,5,5,,,,,,,,,,,,,,,,,,,6.357421875,-10.3125,1,0,0,4.67481994629,,,,,2015_Sep_28_1414,G,facesParametric,13,59.6982567209,
./stim/MorphM4_06_orig.jpg,6,,,,,0,6,6,6,,,,,,,,,,,,,,,,,,,6.73828125,-11.923828125,1,0,0,2.22779989243,,,,,2015_Sep_28_1414,G,facesParametric,13,59.6982567209,
./stim/MorphF7_02_orig.jpg,7,,,,,0,7,7,7,,,,,,,,,,,,,,,,,,,6.826171875,-11.89453125,1,0,0,4.27190685272,,,,,2015_Sep_28_1414,G,facesParametric,13,59.6982567209,
./stim/MorphM3_00_orig.jpg,8,,,,,0,8,8,8,,,,,,,,,,,,,,,,,,,6.9140625,-11.865234375,1,0,0,3.73548197746,,,,,2015_Sep_28_1414,G,facesParametric,13,59.6982567209,
./stim/MorphM1_02_orig.jpg,9,,,,,0,9,9,9,,,,,,,,,,,,,,,,,,,7.08984375,-12.041015625,0,0,1,1.27223014832,,,,,2015_Sep_28_1414,G,facesParametric,13,59.6982567209,
./stim/MorphM6_03_orig.jpg,10,,,,,0,10,10,10,,,,,,,,,,,,,,,,,,,6.62109375,-11.77734375,1,0,0,1.7415599823,,,,,2015_Sep_28_1414,G,facesParametric,13,59.6982567209,
./stim/MorphM7_01_orig.jpg,11,,,,,0,11,11,11,,,,,,,,,,,,,,,,,,,7.939453125,-12.216796875,1,0,0,3.45004081726,,,,,2015_Sep_28_1414,G,facesParametric,13,59.6982567209,
./stim/MorphM5_02_orig.jpg,12,,,,,0,12,12,12,,,,,,,,,,,,,,,,,,,7.587890625,-11.953125,0,0,1,1.40452218056,,,,,2015_Sep_28_1414,G,facesParametric,13,59.6982567209,
./stim/MorphF5_09_orig.jpg,13,,,,,0,13,13,13,,,,,,,,,,,,,,,,,,,7.412109375,-12.0703125,0,0,1,2.86397600174,,,,,2015_Sep_28_1414,G,facesParametric,13,59.6982567209,
./stim/MorphF10_04_orig.jpg,14,,,,,0,14,14,14,,,,,,,,,,,,,,,,,,,7.236328125,-12.0703125,0,0,1,1.62368583679,,,,,2015_Sep_28_1414,G,facesParametric,13,59.6982567209,
./stim/MorphM5_00_orig.jpg,15,,,,,0,15,15,15,,,,,,,,,,,,,,,,,,,6.533203125,-12.333984375,1,0,0,0.935970067978,,,,,2015_Sep_28_1414,G,facesParametric,13,59.6982567209,
./stim/MorphF8_08_orig.jpg,16,,,,,0,16,16,16,,,,,,,,,,,,,,,,,,,6.533203125,-12.24609375,0,0,1,1.12135791779,,,,,2015_Sep_28_1414,G,facesParametric,13,59.6982567209,
./stim/MorphF9_04_orig.jpg,17,,,,,0,17,17,17,,,,,,,,,,,,,,,,,,,6.005859375,-11.77734375,1,0,0,0.334439992905,,,,,2015_Sep_28_1414,G,facesParametric,13,59.6982567209,
./stim/MorphM5_09_orig.jpg,18,,,,,0,18,18,18,,,,,,,,,,,,,,,,,,,6.09375,-11.279296875,0,0,1,4.16978001595,,,,,2015_Sep_28_1414,G,facesParametric,13,59.6982567209,
./stim/MorphF8_00_orig.jpg,19,,,,,0,19,19,19,,,,,,,,,,,,,,,,,,,6.298828125,-11.484375,0,0,1,2.51265716553,,,,,2015_Sep_28_1414,G,facesParametric,13,59.6982567209,
./stim/MorphM2_05_orig.jpg,20,,,,,0,20,20,20,,,,,,,,,,,,,,,,,,,-6.357421875,-8.994140625,1,0,0,4.18800401688,,,,,2015_Sep_28_1414,G,facesParametric,13,59.6982567209,
./stim/MorphF10_05_orig.jpg,21,,,,,0,21,21,21,,,,,,,,,,,,,,,,,,,-6.62109375,-9.4921875,1,0,0,1.00398302078,,,,,2015_Sep_28_1414,G,facesParametric,13,59.6982567209,
./stim/MorphF6_00_orig.jpg,22,,,,,0,22,22,22,,,,,,,,,,,,,,,,,,,-6.6796875,-9.55078125,1,0,0,0.769758939743,,,,,2015_Sep_28_1414,G,facesParametric,13,59.6982567209,
./stim/MorphF10_01_orig.jpg,23,,,,,0,23,23,23,,,,,,,,,,,,,,,,,,,-6.6796875,-9.580078125,1,0,0,0.484642982483,,,,,2015_Sep_28_1414,G,facesParametric,13,59.6982567209,
./stim/MorphM1_00_orig.jpg,24,,,,,0,24,24,24,,,,,,,,,,,,,,,,,,,-0.99609375,-11.220703125,0,0,1,2.39430212975,,,,,2015_Sep_28_1414,G,facesParametric,13,59.6982567209,
./stim/MorphF3_05_orig.jpg,25,,,,,0,25,25,25,,,,,,,,,,,,,,,,,,,-4.658203125,-11.953125,1,0,0,1.45650887489,,,,,2015_Sep_28_1414,G,facesParametric,13,59.6982567209,
./stim/MorphF2_00_orig.jpg,26,,,,,0,26,26,26,,,,,,,,,,,,,,,,,,,-5.390625,-12.685546875,1,0,0,1.75925898552,,,,,2015_Sep_28_1414,G,facesParametric,13,59.6982567209,
./stim/MorphF4_02_orig.jpg,27,,,,,0,27,27,27,,,,,,,,,,,,,,,,,,,-5.947265625,-13.154296875,1,0,0,2.57909703255,,,,,2015_Sep_28_1414,G,facesParametric,13,59.6982567209,
./stim/MorphM6_05_orig.jpg,28,,,,,0,28,28,28,,,,,,,,,,,,,,,,,,,-7.001953125,-12.158203125,1,0,0,3.30006194115,,,,,2015_Sep_28_1414,G,facesParametric,13,59.6982567209,
./stim/MorphF7_07_orig.jpg,29,,,,,0,29,29,29,,,,,,,,,,,,,,,,,,,-5.33203125,-12.5390625,0,0,1,1.10463309288,,,,,2015_Sep_28_1414,G,facesParametric,13,59.6982567209,
./stim/MorphF8_03_orig.jpg,30,,,,,0,30,30,30,,,,,,,,,,,,,,,,,,,-6.328125,-11.806640625,1,0,0,4.84194207191,,,,,2015_Sep_28_1414,G,facesParametric,13,59.6982567209,
./stim/MorphM5_03_orig.jpg,31,,,,,0,31,31,31,,,,,,,,,,,,,,,,,,,-5.625,-11.806640625,0,0,1,2.27820897102,,,,,2015_Sep_28_1414,G,facesParametric,13,59.6982567209,
./stim/MorphF4_10_orig.jpg,32,,,,,0,32,32,32,,,,,,,,,,,,,,,,,,,-5.830078125,-12.01171875,0,0,1,1.45708298683,,,,,2015_Sep_28_1414,G,facesParametric,13,59.6982567209,
./stim/MorphM8_03_orig.jpg,33,,,,,0,33,33,33,,,,,,,,,,,,,,,,,,,-4.775390625,-13.154296875,0,0,1,7.0195479393,,,,,2015_Sep_28_1414,G,facesParametric,13,59.6982567209,
./stim/MorphF8_05_orig.jpg,34,,,,,0,34,34,34,,,,,,,,,,,,,,,,,,,-6.884765625,-12.94921875,1,0,0,0.618634939194,,,,,2015_Sep_28_1414,G,facesParametric,13,59.6982567209,
./stim/MorphF9_09_orig.jpg,35,,,,,0,35,35,35,,,,,,,,,,,,,,,,,,,0.17578125,-13.154296875,1,0,0,4.6911919117,,,,,2015_Sep_28_1414,G,facesParametric,13,59.6982567209,
./stim/MorphM1_05_orig.jpg,36,,,,,0,36,36,36,,,,,,,,,,,,,,,,,,,-1.69921875,-12.48046875,0,0,1,2.31118917465,,,,,2015_Sep_28_1414,G,facesParametric,13,59.6982567209,
./stim/MorphF6_06_orig.jpg,37,,,,,0,37,37,37,,,,,,,,,,,,,,,,,,,-2.51953125,-13.06640625,0,0,1,0.85135602951,,,,,2015_Sep_28_1414,G,facesParametric,13,59.6982567209,
./stim/MorphF3_06_orig.jpg,38,,,,,0,38,38,38,,,,,,,,,,,,,,,,,,,-3.779296875,-13.06640625,1,0,0,1.87506198883,,,,,2015_Sep_28_1414,G,facesParametric,13,59.6982567209,
./stim/MorphF6_08_orig.jpg,39,,,,,0,39,39,39,,,,,,,,,,,,,,,,,,,-4.51171875,-12.36328125,1,0,0,3.03120994568,,,,,2015_Sep_28_1414,G,facesParametric,13,59.6982567209,
./stim/MorphF3_07_orig.jpg,40,,,,,0,40,40,40,,,,,,,,,,,,,,,,,,,-4.27734375,-12.978515625,0,0,1,1.62318110466,,,,,2015_Sep_28_1414,G,facesParametric,13,59.6982567209,
./stim/MorphF1_06_orig.jpg,41,,,,,0,41,41,41,,,,,,,,,,,,,,,,,,,-4.365234375,-12.919921875,0,0,1,1.60799121857,,,,,2015_Sep_28_1414,G,facesParametric,13,59.6982567209,
./stim/MorphM4_04_orig.jpg,42,,,,,0,42,42,42,,,,,,,,,,,,,,,,,,,-4.951171875,-12.3046875,1,0,0,1.16956710815,,,,,2015_Sep_28_1414,G,facesParametric,13,59.6982567209,
./stim/MorphM3_01_orig.jpg,43,,,,,0,43,43,43,,,,,,,,,,,,,,,,,,,-4.1015625,-12.36328125,0,0,1,2.34476613998,,,,,2015_Sep_28_1414,G,facesParametric,13,59.6982567209,
./stim/MorphF4_08_orig.jpg,44,,,,,0,44,44,44,,,,,,,,,,,,,,,,,,,-7.470703125,-12.392578125,1,0,0,0.88636803627,,,,,2015_Sep_28_1414,G,facesParametric,13,59.6982567209,
./stim/MorphM3_02_orig.jpg,45,,,,,0,45,45,45,,,,,,,,,,,,,,,,,,,-7.44140625,-12.392578125,1,0,0,0.349123954773,,,,,2015_Sep_28_1414,G,facesParametric,13,59.6982567209,
./stim/MorphM7_07_orig.jpg,46,,,,,0,46,46,46,,,,,,,,,,,,,,,,,,,-6.005859375,-12.48046875,0,0,1,1.90762281418,,,,,2015_Sep_28_1414,G,facesParametric,13,59.6982567209,
./stim/MorphM2_04_orig.jpg,47,,,,,0,47,47,47,,,,,,,,,,,,,,,,,,,-6.240234375,-12.36328125,1,0,0,2.91525292397,,,,,2015_Sep_28_1414,G,facesParametric,13,59.6982567209,
./stim/MorphM3_06_orig.jpg,48,,,,,0,48,48,48,,,,,,,,,,,,,,,,,,,-6.26953125,-12.24609375,1,0,0,1.79187989235,,,,,2015_Sep_28_1414,G,facesParametric,13,59.6982567209,
./stim/MorphM1_01_orig.jpg,49,,,,,0,49,49,49,,,,,,,,,,,,,,,,,,,-6.533203125,-11.982421875,1,0,0,2.22631287575,,,,,2015_Sep_28_1414,G,facesParametric,13,59.6982567209,
./stim/MorphM4_02_orig.jpg,50,,,,,0,50,50,50,,,,,,,,,,,,,,,,,,,-5.68359375,-12.158203125,0,0,1,1.07122015953,,,,,2015_Sep_28_1414,G,facesParametric,13,59.6982567209,
./stim/MorphM7_02_orig.jpg,51,,,,,0,51,51,51,,,,,,,,,,,,,,,,,,,-5.068359375,-12.421875,0,0,1,2.68037986755,,,,,2015_Sep_28_1414,G,facesParametric,13,59.6982567209,
./stim/MorphM1_09_orig.jpg,52,,,,,0,52,52,52,,,,,,,,,,,,,,,,,,,-4.892578125,-12.626953125,0,0,1,1.55727005005,,,,,2015_Sep_28_1414,G,facesParametric,13,59.6982567209,
./stim/MorphM5_05_orig.jpg,53,,,,,0,53,53,53,,,,,,,,,,,,,,,,,,,-5.21484375,-12.861328125,0,0,1,1.07151794434,,,,,2015_Sep_28_1414,G,facesParametric,13,59.6982567209,
./stim/MorphM7_10_orig.jpg,54,,,,,0,54,54,54,,,,,,,,,,,,,,,,,,,-5.712890625,-12.392578125,1,0,0,0.802938938141,,,,,2015_Sep_28_1414,G,facesParametric,13,59.6982567209,
./stim/MorphF4_05_orig.jpg,55,,,,,0,55,55,55,,,,,,,,,,,,,,,,,,,-5.771484375,-12.36328125,1,0,0,0.618581056595,,,,,2015_Sep_28_1414,G,facesParametric,13,59.6982567209,
./stim/MorphF1_07_orig.jpg,56,,,,,0,56,56,56,,,,,,,,,,,,,,,,,,,-5.80078125,-12.451171875,1,0,0,1.28994989395,,,,,2015_Sep_28_1414,G,facesParametric,13,59.6982567209,
./stim/MorphM10_09_orig.jpg,57,,,,,0,57,57,57,,,,,,,,,,,,,,,,,,,-5.7421875,-12.451171875,1,0,0,0.853358983994,,,,,2015_Sep_28_1414,G,facesParametric,13,59.6982567209,
./stim/MorphM9_08_orig.jpg,58,,,,,0,58,58,58,,,,,,,,,,,,,,,,,,,-5.9765625,-12.744140625,1,0,0,0.850718021393,,,,,2015_Sep_28_1414,G,facesParametric,13,59.6982567209,
./stim/MorphM4_00_orig.jpg,59,,,,,0,59,59,59,,,,,,,,,,,,,,,,,,,-5.91796875,-12.978515625,1,0,0,1.77518415451,,,,,2015_Sep_28_1414,G,facesParametric,13,59.6982567209,
./stim/MorphM10_01_orig.jpg,60,,,,,0,60,60,60,,,,,,,,,,,,,,,,,,,-3.69140625,-13.154296875,0,0,1,0.835961818695,,,,,2015_Sep_28_1414,G,facesParametric,13,59.6982567209,
./stim/MorphF1_08_orig.jpg,61,,,,,0,61,61,61,,,,,,,,,,,,,,,,,,,-3.8671875,-13.125,0,0,1,0.384528875351,,,,,2015_Sep_28_1414,G,facesParametric,13,59.6982567209,
./stim/MorphM9_03_orig.jpg,62,,,,,0,62,62,62,,,,,,,,,,,,,,,,,,,-5.478515625,-12.275390625,1,0,0,1.00415492058,,,,,2015_Sep_28_1414,G,facesParametric,13,59.6982567209,
./stim/MorphF3_03_orig.jpg,63,,,,,0,63,63,63,,,,,,,,,,,,,,,,,,,-5.478515625,-12.3046875,1,0,0,0.300496816635,,,,,2015_Sep_28_1414,G,facesParametric,13,59.6982567209,
./stim/MorphM2_01_orig.jpg,64,,,,,0,64,64,64,,,,,,,,,,,,,,,,,,,-3.8671875,-12.12890625,0,0,1,2.11032605171,,,,,2015_Sep_28_1414,G,facesParametric,13,59.6982567209,
./stim/MorphM6_08_orig.jpg,65,,,,,0,65,65,65,,,,,,,,,,,,,,,,,,,-5.33203125,-13.095703125,1,0,0,6.75315690041,,,,,2015_Sep_28_1414,G,facesParametric,13,59.6982567209,
./stim/MorphF1_09_orig.jpg,66,,,,,0,66,66,66,,,,,,,,,,,,,,,,,,,-5.361328125,-13.154296875,1,0,0,1.16979789734,,,,,2015_Sep_28_1414,G,facesParametric,13,59.6982567209,
./stim/MorphM9_02_orig.jpg,67,,,,,0,67,67,67,,,,,,,,,,,,,,,,,,,-5.361328125,-13.154296875,1,0,0,2.39555883408,,,,,2015_Sep_28_1414,G,facesParametric,13,59.6982567209,
./stim/MorphM10_07_orig.jpg,68,,,,,0,68,68,68,,,,,,,,,,,,,,,,,,,-5.390625,-13.154296875,1,0,0,1.08794188499,,,,,2015_Sep_28_1414,G,facesParametric,13,59.6982567209,
./stim/MorphM8_04_orig.jpg,69,,,,,0,69,69,69,,,,,,,,,,,,,,,,,,,-5.44921875,-13.154296875,0,0,1,3.50149011612,,,,,2015_Sep_28_1414,G,facesParametric,13,59.6982567209,
./stim/MorphF3_04_orig.jpg,70,,,,,0,70,70,70,,,,,,,,,,,,,,,,,,,-5.625,-13.154296875,1,0,0,1.54052901268,,,,,2015_Sep_28_1414,G,facesParametric,13,59.6982567209,
./stim/MorphM7_05_orig.jpg,71,,,,,0,71,71,71,,,,,,,,,,,,,,,,,,,-5.68359375,-13.125,0,0,1,1.06963682175,,,,,2015_Sep_28_1414,G,facesParametric,13,59.6982567209,
./stim/MorphM10_04_orig.jpg,72,,,,,0,72,72,72,,,,,,,,,,,,,,,,,,,-6.123046875,-13.0078125,1,0,0,1.63918495178,,,,,2015_Sep_28_1414,G,facesParametric,13,59.6982567209,
./stim/MorphM3_05_orig.jpg,73,,,,,0,73,73,73,,,,,,,,,,,,,,,,,,,-6.123046875,-13.0078125,1,0,0,0.986644029617,,,,,2015_Sep_28_1414,G,facesParametric,13,59.6982567209,
./stim/MorphM7_08_orig.jpg,74,,,,,0,74,74,74,,,,,,,,,,,,,,,,,,,-6.123046875,-13.0078125,0,0,1,1.77444195747,,,,,2015_Sep_28_1414,G,facesParametric,13,59.6982567209,
./stim/MorphM9_07_orig.jpg,75,,,,,0,75,75,75,,,,,,,,,,,,,,,,,,,-6.181640625,-13.037109375,1,0,0,2.52743005753,,,,,2015_Sep_28_1414,G,facesParametric,13,59.6982567209,
./stim/MorphM8_07_orig.jpg,76,,,,,0,76,76,76,,,,,,,,,,,,,,,,,,,-6.2109375,-13.095703125,0,0,1,0.81905412674,,,,,2015_Sep_28_1414,G,facesParametric,13,59.6982567209,
./stim/MorphF8_01_orig.jpg,77,,,,,0,77,77,77,,,,,,,,,,,,,,,,,,,-6.328125,-13.154296875,0,0,1,2.32663297653,,,,,2015_Sep_28_1414,G,facesParametric,13,59.6982567209,
./stim/MorphF5_01_orig.jpg,78,,,,,0,78,78,78,,,,,,,,,,,,,,,,,,,-6.4453125,-13.154296875,1,0,0,1.62425494194,,,,,2015_Sep_28_1414,G,facesParametric,13,59.6982567209,
./stim/MorphF4_09_orig.jpg,79,,,,,0,79,79,79,,,,,,,,,,,,,,,,,,,-6.474609375,-13.154296875,1,0,0,1.12052702904,,,,,2015_Sep_28_1414,G,facesParametric,13,59.6982567209,
./stim/MorphM10_08_orig.jpg,80,,,,,0,80,80,80,,,,,,,,,,,,,,,,,,,-6.474609375,-13.154296875,1,0,0,0.836817026138,,,,,2015_Sep_28_1414,G,facesParametric,13,59.6982567209,
./stim/MorphF6_01_orig.jpg,81,,,,,0,81,81,81,,,,,,,,,,,,,,,,,,,-6.5625,-13.154296875,0,0,1,1.2056210041,,,,,2015_Sep_28_1414,G,facesParametric,13,59.6982567209,
./stim/MorphM8_00_orig.jpg,82,,,,,0,82,82,82,,,,,,,,,,,,,,,,,,,-6.38671875,-13.06640625,0,0,1,1.58994913101,,,,,2015_Sep_28_1414,G,facesParametric,13,59.6982567209,
./stim/MorphM1_08_orig.jpg,83,,,,,0,83,83,83,,,,,,,,,,,,,,,,,,,-6.416015625,-13.125,0,0,1,3.58448219299,,,,,2015_Sep_28_1414,G,facesParametric,13,59.6982567209,
./stim/MorphF6_02_orig.jpg,84,,,,,0,84,84,84,,,,,,,,,,,,,,,,,,,-6.533203125,-13.154296875,0,0,1,1.2390089035,,,,,2015_Sep_28_1414,G,facesParametric,13,59.6982567209,
./stim/MorphF5_10_orig.jpg,85,,,,,0,85,85,85,,,,,,,,,,,,,,,,,,,-7.412109375,-13.125,0,0,1,1.00458192825,,,,,2015_Sep_28_1414,G,facesParametric,13,59.6982567209,
./stim/MorphM9_00_orig.jpg,86,,,,,0,86,86,86,,,,,,,,,,,,,,,,,,,-6.97265625,-12.94921875,1,0,0,1.01962804794,,,,,2015_Sep_28_1414,G,facesParametric,13,59.6982567209,
./stim/MorphM3_10_orig.jpg,87,,,,,0,87,87,87,,,,,,,,,,,,,,,,,,,-6.97265625,-12.978515625,0,0,1,1.4734749794,,,,,2015_Sep_28_1414,G,facesParametric,13,59.6982567209,
./stim/MorphF10_07_orig.jpg,88,,,,,0,88,88,88,,,,,,,,,,,,,,,,,,,-7.001953125,-12.802734375,1,0,0,1.38990283012,,,,,2015_Sep_28_1414,G,facesParametric,13,59.6982567209,
./stim/MorphM4_07_orig.jpg,89,,,,,0,89,89,89,,,,,,,,,,,,,,,,,,,-6.97265625,-12.7734375,1,0,0,0.918960094452,,,,,2015_Sep_28_1414,G,facesParametric,13,59.6982567209,
./stim/MorphM9_04_orig.jpg,90,,,,,0,90,90,90,,,,,,,,,,,,,,,,,,,-6.884765625,-12.744140625,1,0,0,1.08861804008,,,,,2015_Sep_28_1414,G,facesParametric,13,59.6982567209,
./stim/MorphM6_09_orig.jpg,91,,,,,0,91,91,91,,,,,,,,,,,,,,,,,,,-6.85546875,-12.7734375,0,0,1,0.869874000549,,,,,2015_Sep_28_1414,G,facesParametric,13,59.6982567209,
./stim/MorphF10_00_orig.jpg,92,,,,,0,92,92,92,,,,,,,,,,,,,,,,,,,-7.177734375,-12.83203125,1,0,0,2.42865300179,,,,,2015_Sep_28_1414,G,facesParametric,13,59.6982567209,
./stim/MorphM8_10_orig.jpg,93,,,,,0,93,93,93,,,,,,,,,,,,,,,,,,,-7.177734375,-12.83203125,1,0,0,0.769443035126,,,,,2015_Sep_28_1414,G,facesParametric,13,59.6982567209,
./stim/MorphM7_04_orig.jpg,94,,,,,0,94,94,94,,,,,,,,,,,,,,,,,,,-7.177734375,-12.83203125,1,0,0,1.15456986427,,,,,2015_Sep_28_1414,G,facesParametric,13,59.6982567209,
./stim/MorphF10_08_orig.jpg,95,,,,,0,95,95,95,,,,,,,,,,,,,,,,,,,-7.5,-13.154296875,0,0,1,0.886966943741,,,,,2015_Sep_28_1414,G,facesParametric,13,59.6982567209,
./stim/MorphF5_00_orig.jpg,96,,,,,0,96,96,96,,,,,,,,,,,,,,,,,,,-3.017578125,-11.689453125,1,0,0,2.89798212051,,,,,2015_Sep_28_1414,G,facesParametric,13,59.6982567209,
./stim/MorphM10_03_orig.jpg,97,,,,,0,97,97,97,,,,,,,,,,,,,,,,,,,-2.8125,-11.806640625,0,0,1,1.75651097298,,,,,2015_Sep_28_1414,G,facesParametric,13,59.6982567209,
./stim/MorphF8_04_orig.jpg,98,,,,,0,98,98,98,,,,,,,,,,,,,,,,,,,-7.79296875,-10.341796875,1,0,0,3.51793789864,,,,,2015_Sep_28_1414,G,facesParametric,13,59.6982567209,
./stim/MorphF9_00_orig.jpg,99,,,,,0,99,99,99,,,,,,,,,,,,,,,,,,,-7.79296875,-10.341796875,1,0,0,0.70185303688,,,,,2015_Sep_28_1414,G,facesParametric,13,59.6982567209,
./stim/MorphF2_06_orig.jpg,100,,,,,0,100,100,100,,,,,,,,,,,,,,,,,,,-7.6171875,-10.341796875,1,0,0,1.43969106674,,,,,2015_Sep_28_1414,G,facesParametric,13,59.6982567209,
./stim/MorphF7_06_orig.jpg,101,,,,,0,101,101,101,,,,,,,,,,,,,,,,,,,-7.294921875,-10.13671875,1,0,0,2.07487797737,,,,,2015_Sep_28_1414,G,facesParametric,13,59.6982567209,
./stim/MorphF5_08_orig.jpg,102,,,,,0,102,102,102,,,,,,,,,,,,,,,,,,,-7.119140625,-10.048828125,1,0,0,1.22213506699,,,,,2015_Sep_28_1414,G,facesParametric,13,59.6982567209,
./stim/MorphF3_10_orig.jpg,103,,,,,0,103,103,103,,,,,,,,,,,,,,,,,,,-1.494140625,-8.291015625,1,0,0,6.01550102234,,,,,2015_Sep_28_1414,G,facesParametric,13,59.6982567209,
./stim/MorphF2_02_orig.jpg,104,,,,,0,104,104,104,,,,,,,,,,,,,,,,,,,-1.46484375,-8.3203125,1,0,0,0.75337100029,,,,,2015_Sep_28_1414,G,facesParametric,13,59.6982567209,
./stim/MorphF3_02_orig.jpg,105,,,,,0,105,105,105,,,,,,,,,,,,,,,,,,,-1.40625,-8.4375,1,0,0,0.635360002518,,,,,2015_Sep_28_1414,G,facesParametric,13,59.6982567209,
./stim/MorphM8_05_orig.jpg,106,,,,,0,106,106,106,,,,,,,,,,,,,,,,,,,-1.23046875,-8.642578125,1,0,0,1.02157998085,,,,,2015_Sep_28_1414,G,facesParametric,13,59.6982567209,
./stim/MorphF1_04_orig.jpg,107,,,,,0,107,107,107,,,,,,,,,,,,,,,,,,,-1.11328125,-8.671875,1,0,0,1.53800296783,,,,,2015_Sep_28_1414,G,facesParametric,13,59.6982567209,
./stim/MorphM5_01_orig.jpg,108,,,,,0,108,108,108,,,,,,,,,,,,,,,,,,,-1.11328125,-8.671875,1,0,0,1.67470502853,,,,,2015_Sep_28_1414,G,facesParametric,13,59.6982567209,
./stim/MorphM3_08_orig.jpg,109,,,,,0,109,109,109,,,,,,,,,,,,,,,,,,,-1.083984375,-8.671875,1,0,0,0.854408979416,,,,,2015_Sep_28_1414,G,facesParametric,13,59.6982567209,
./stim/MorphF8_06_orig.jpg,110,,,,,0,110,110,110,,,,,,,,,,,,,,,,,,,-1.083984375,-8.671875,1,0,0,0.668768882751,,,,,2015_Sep_28_1414,G,facesParametric,13,59.6982567209,
./stim/MorphM6_01_orig.jpg,111,,,,,0,111,111,111,,,,,,,,,,,,,,,,,,,-1.0546875,-8.642578125,1,0,0,0.483232021332,,,,,2015_Sep_28_1414,G,facesParametric,13,59.6982567209,
./stim/MorphM2_00_orig.jpg,112,,,,,0,112,112,112,,,,,,,,,,,,,,,,,,,0.41015625,-8.876953125,0,0,1,0.937510967255,,,,,2015_Sep_28_1414,G,facesParametric,13,59.6982567209,
./stim/MorphM1_03_orig.jpg,113,,,,,0,113,113,113,,,,,,,,,,,,,,,,,,,0.3515625,-9.0234375,0,0,1,1.12023997307,,,,,2015_Sep_28_1414,G,facesParametric,13,59.6982567209,
./stim/MorphM6_07_orig.jpg,114,,,,,0,114,114,114,,,,,,,,,,,,,,,,,,,4.072265625,-10.576171875,0,0,1,2.1607439518,,,,,2015_Sep_28_1414,G,facesParametric,13,59.6982567209,
./stim/MorphF5_07_orig.jpg,115,,,,,0,115,115,115,,,,,,,,,,,,,,,,,,,4.072265625,-10.576171875,0,0,1,0.702973842621,,,,,2015_Sep_28_1414,G,facesParametric,13,59.6982567209,
./stim/MorphM9_05_orig.jpg,116,,,,,0,116,116,116,,,,,,,,,,,,,,,,,,,4.072265625,-10.576171875,0,0,1,0.451130867004,,,,,2015_Sep_28_1414,G,facesParametric,13,59.6982567209,
./stim/MorphM5_08_orig.jpg,117,,,,,0,117,117,117,,,,,,,,,,,,,,,,,,,1.7578125,-9.697265625,1,0,0,0.819967031479,,,,,2015_Sep_28_1414,G,facesParametric,13,59.6982567209,
./stim/MorphF7_04_orig.jpg,118,,,,,0,118,118,118,,,,,,,,,,,,,,,,,,,1.728515625,-9.66796875,1,0,0,1.94256687164,,,,,2015_Sep_28_1414,G,facesParametric,13,59.6982567209,
./stim/MorphF3_01_orig.jpg,119,,,,,0,119,119,119,,,,,,,,,,,,,,,,,,,1.728515625,-9.66796875,1,0,0,1.07195687294,,,,,2015_Sep_28_1414,G,facesParametric,13,59.6982567209,
./stim/MorphM2_02_orig.jpg,120,,,,,0,120,120,120,,,,,,,,,,,,,,,,,,,1.728515625,-9.66796875,1,0,0,0.802795171738,,,,,2015_Sep_28_1414,G,facesParametric,13,59.6982567209,
./stim/MorphM8_01_orig.jpg,121,,,,,0,121,121,121,,,,,,,,,,,,,,,,,,,1.7578125,-9.697265625,1,0,0,0.919877052307,,,,,2015_Sep_28_1414,G,facesParametric,13,59.6982567209,
./stim/MorphF10_09_orig.jpg,122,,,,,0,122,122,122,,,,,,,,,,,,,,,,,,,1.728515625,-9.7265625,1,0,0,1.17155599594,,,,,2015_Sep_28_1414,G,facesParametric,13,59.6982567209,
./stim/MorphF6_04_orig.jpg,123,,,,,0,123,123,123,,,,,,,,,,,,,,,,,,,1.552734375,-9.66796875,1,0,0,1.2726290226,,,,,2015_Sep_28_1414,G,facesParametric,13,59.6982567209,
./stim/MorphM5_04_orig.jpg,124,,,,,0,124,124,124,,,,,,,,,,,,,,,,,,,1.552734375,-9.66796875,1,0,0,1.55592703819,,,,,2015_Sep_28_1414,G,facesParametric,13,59.6982567209,
./stim/MorphM2_07_orig.jpg,125,,,,,0,125,125,125,,,,,,,,,,,,,,,,,,,1.552734375,-9.66796875,0,0,1,1.22113394737,,,,,2015_Sep_28_1414,G,facesParametric,13,59.6982567209,
./stim/MorphF10_02_orig.jpg,126,,,,,0,126,126,126,,,,,,,,,,,,,,,,,,,1.318359375,-9.66796875,1,0,0,0.468491077423,,,,,2015_Sep_28_1414,G,facesParametric,13,59.6982567209,
./stim/MorphF5_02_orig.jpg,127,,,,,0,127,127,127,,,,,,,,,,,,,,,,,,,1.2890625,-9.697265625,1,0,0,0.633810997009,,,,,2015_Sep_28_1414,G,facesParametric,13,59.6982567209,
./stim/MorphM4_01_orig.jpg,128,,,,,0,128,128,128,,,,,,,,,,,,,,,,,,,1.2890625,-9.755859375,1,0,0,1.03775811195,,,,,2015_Sep_28_1414,G,facesParametric,13,59.6982567209,
./stim/MorphM9_10_orig.jpg,129,,,,,0,129,129,129,,,,,,,,,,,,,,,,,,,1.259765625,-9.78515625,1,0,0,0.68501996994,,,,,2015_Sep_28_1414,G,facesParametric,13,59.6982567209,
./stim/MorphM1_06_orig.jpg,130,,,,,0,130,130,130,,,,,,,,,,,,,,,,,,,1.259765625,-9.78515625,1,0,0,0.853694915771,,,,,2015_Sep_28_1414,G,facesParametric,13,59.6982567209,
./stim/MorphF6_10_orig.jpg,131,,,,,0,131,131,131,,,,,,,,,,,,,,,,,,,1.11328125,-9.90234375,0,0,1,1.12120819092,,,,,2015_Sep_28_1414,G,facesParametric,13,59.6982567209,
./stim/MorphF9_10_orig.jpg,132,,,,,0,132,132,132,,,,,,,,,,,,,,,,,,,1.11328125,-9.90234375,0,0,1,0.80095911026,,,,,2015_Sep_28_1414,G,facesParametric,13,59.6982567209,
./stim/MorphM4_10_orig.jpg,133,,,,,0,133,133,133,,,,,,,,,,,,,,,,,,,-0.234375,-9.697265625,1,0,0,0.954157114029,,,,,2015_Sep_28_1414,G,facesParametric,13,59.6982567209,
./stim/MorphF2_04_orig.jpg,134,,,,,0,134,134,134,,,,,,,,,,,,,,,,,,,-0.29296875,-9.78515625,1,0,0,0.633340120316,,,,,2015_Sep_28_1414,G,facesParametric,13,59.6982567209,
./stim/MorphF10_06_orig.jpg,135,,,,,0,135,135,135,,,,,,,,,,,,,,,,,,,-0.322265625,-9.755859375,1,0,0,0.853245973587,,,,,2015_Sep_28_1414,G,facesParametric,13,59.6982567209,
./stim/MorphM7_06_orig.jpg,136,,,,,0,136,136,136,,,,,,,,,,,,,,,,,,,-0.17578125,-9.9609375,1,0,0,1.25528287888,,,,,2015_Sep_28_1414,G,facesParametric,13,59.6982567209,
./stim/MorphF1_05_orig.jpg,137,,,,,0,137,137,137,,,,,,,,,,,,,,,,,,,-0.234375,-10.166015625,0,0,1,0.970869064331,,,,,2015_Sep_28_1414,G,facesParametric,13,59.6982567209,
./stim/MorphF4_01_orig.jpg,138,,,,,0,138,138,138,,,,,,,,,,,,,,,,,,,-0.41015625,-10.166015625,0,0,1,0.819948911667,,,,,2015_Sep_28_1414,G,facesParametric,13,59.6982567209,
./stim/MorphM6_06_orig.jpg,139,,,,,0,139,139,139,,,,,,,,,,,,,,,,,,,-0.52734375,-10.166015625,0,0,1,1.27259302139,,,,,2015_Sep_28_1414,G,facesParametric,13,59.6982567209,
./stim/MorphF4_00_orig.jpg,140,,,,,0,140,140,140,,,,,,,,,,,,,,,,,,,-0.46875,-10.166015625,0,0,1,0.734070062637,,,,,2015_Sep_28_1414,G,facesParametric,13,59.6982567209,
./stim/MorphM8_06_orig.jpg,141,,,,,0,141,141,141,,,,,,,,,,,,,,,,,,,-0.3515625,-10.13671875,0,0,1,0.669245004654,,,,,2015_Sep_28_1414,G,facesParametric,13,59.6982567209,
./stim/MorphM7_09_orig.jpg,142,,,,,0,142,142,142,,,,,,,,,,,,,,,,,,,-0.29296875,-10.078125,1,0,0,1.18716287613,,,,,2015_Sep_28_1414,G,facesParametric,13,59.6982567209,
./stim/MorphF6_07_orig.jpg,143,,,,,0,143,143,143,,,,,,,,,,,,,,,,,,,-0.3515625,-10.01953125,1,0,0,0.367938995361,,,,,2015_Sep_28_1414,G,facesParametric,13,59.6982567209,
./stim/MorphM6_00_orig.jpg,144,,,,,0,144,144,144,,,,,,,,,,,,,,,,,,,-0.3515625,-10.01953125,1,0,0,0.434386014938,,,,,2015_Sep_28_1414,G,facesParametric,13,59.6982567209,
./stim/MorphM2_03_orig.jpg,145,,,,,0,145,145,145,,,,,,,,,,,,,,,,,,,-0.3515625,-10.01953125,1,0,0,0.602230072021,,,,,2015_Sep_28_1414,G,facesParametric,13,59.6982567209,
./stim/MorphF4_07_orig.jpg,146,,,,,0,146,146,146,,,,,,,,,,,,,,,,,,,-0.380859375,-9.990234375,1,0,0,0.417510032654,,,,,2015_Sep_28_1414,G,facesParametric,13,59.6982567209,
./stim/MorphF5_05_orig.jpg,147,,,,,0,147,147,147,,,,,,,,,,,,,,,,,,,-0.380859375,-9.990234375,1,0,0,0.332257986069,,,,,2015_Sep_28_1414,G,facesParametric,13,59.6982567209,
./stim/MorphF2_03_orig.jpg,148,,,,,0,148,148,148,,,,,,,,,,,,,,,,,,,-0.322265625,-9.90234375,0,0,1,0.483335018158,,,,,2015_Sep_28_1414,G,facesParametric,13,59.6982567209,
./stim/MorphM10_00_orig.jpg,149,,,,,0,149,149,149,,,,,,,,,,,,,,,,,,,-0.380859375,-9.931640625,0,0,1,0.334887981415,,,,,2015_Sep_28_1414,G,facesParametric,13,59.6982567209,
./stim/MorphF10_03_orig.jpg,150,,,,,0,150,150,150,,,,,,,,,,,,,,,,,,,-0.46875,-9.931640625,0,0,1,0.366463899612,,,,,2015_Sep_28_1414,G,facesParametric,13,59.6982567209,
./stim/MorphF4_06_orig.jpg,151,,,,,0,151,151,151,,,,,,,,,,,,,,,,,,,-0.46875,-9.931640625,1,0,0,1.15541219711,,,,,2015_Sep_28_1414,G,facesParametric,13,59.6982567209,
./stim/MorphF7_05_orig.jpg,152,,,,,0,152,152,152,,,,,,,,,,,,,,,,,,,-0.498046875,-9.931640625,1,0,0,0.333207130432,,,,,2015_Sep_28_1414,G,facesParametric,13,59.6982567209,
./stim/MorphM3_03_orig.jpg,153,,,,,0,153,153,153,,,,,,,,,,,,,,,,,,,-0.439453125,-9.755859375,1,0,0,4.57442092896,,,,,2015_Sep_28_1414,G,facesParametric,13,59.6982567209,
./stim/MorphM4_09_orig.jpg,154,,,,,0,154,154,154,,,,,,,,,,,,,,,,,,,-0.439453125,-9.755859375,1,0,0,0.819748878479,,,,,2015_Sep_28_1414,G,facesParametric,13,59.6982567209,
./stim/MorphF7_09_orig.jpg,155,,,,,0,155,155,155,,,,,,,,,,,,,,,,,,,-0.439453125,-9.755859375,1,0,0,0.719246149063,,,,,2015_Sep_28_1414,G,facesParametric,13,59.6982567209,
./stim/MorphF1_00_orig.jpg,156,,,,,0,156,156,156,,,,,,,,,,,,,,,,,,,-0.439453125,-9.755859375,0,0,1,1.20569992065,,,,,2015_Sep_28_1414,G,facesParametric,13,59.6982567209,
./stim/MorphF9_05_orig.jpg,157,,,,,0,157,157,157,,,,,,,,,,,,,,,,,,,-0.46875,-9.7265625,0,0,1,0.73654294014,,,,,2015_Sep_28_1414,G,facesParametric,13,59.6982567209,
./stim/MorphF8_10_orig.jpg,158,,,,,0,158,158,158,,,,,,,,,,,,,,,,,,,-4.21875,-1.2890625,1,0,0,7.23900103569,,,,,2015_Sep_28_1414,G,facesParametric,13,59.6982567209,
./stim/MorphM10_05_orig.jpg,159,,,,,0,159,159,159,,,,,,,,,,,,,,,,,,,-3.22265625,-1.318359375,1,0,0,0.870254993439,,,,,2015_Sep_28_1414,G,facesParametric,13,59.6982567209,
./stim/MorphM2_08_orig.jpg,160,,,,,0,160,160,160,,,,,,,,,,,,,,,,,,,-3.1640625,-1.23046875,1,0,0,1.10499191284,,,,,2015_Sep_28_1414,G,facesParametric,13,59.6982567209,
./stim/MorphM6_02_orig.jpg,161,,,,,0,161,161,161,,,,,,,,,,,,,,,,,,,-2.900390625,-1.318359375,1,0,0,2.24436688423,,,,,2015_Sep_28_1414,G,facesParametric,13,59.6982567209,
./stim/MorphF5_06_orig.jpg,162,,,,,0,162,162,162,,,,,,,,,,,,,,,,,,,-1.81640625,-1.376953125,1,0,0,1.99353384972,,,,,2015_Sep_28_1414,G,facesParametric,13,59.6982567209,
./stim/MorphF10_10_orig.jpg,163,,,,,0,163,163,163,,,,,,,,,,,,,,,,,,,-1.640625,-1.34765625,1,0,0,0.617041110992,,,,,2015_Sep_28_1414,G,facesParametric,13,59.6982567209,
./stim/MorphF9_02_orig.jpg,164,,,,,0,164,164,164,,,,,,,,,,,,,,,,,,,-1.34765625,-1.318359375,1,0,0,0.735915899277,,,,,2015_Sep_28_1414,G,facesParametric,13,59.6982567209,
./stim/MorphM2_06_orig.jpg,165,,,,,0,165,165,165,,,,,,,,,,,,,,,,,,,-1.259765625,-1.259765625,1,0,0,1.10500001907,,,,,2015_Sep_28_1414,G,facesParametric,13,59.6982567209,
./stim/MorphM8_08_orig.jpg,166,,,,,0,166,166,166,,,,,,,,,,,,,,,,,,,-0.205078125,-1.494140625,1,0,0,2.67781400681,,,,,2015_Sep_28_1414,G,facesParametric,13,59.6982567209,
./stim/MorphM10_02_orig.jpg,167,,,,,0,167,167,167,,,,,,,,,,,,,,,,,,,-0.146484375,-1.494140625,1,0,0,0.736613035202,,,,,2015_Sep_28_1414,G,facesParametric,13,59.6982567209,
./stim/MorphM8_09_orig.jpg,168,,,,,0,168,168,168,,,,,,,,,,,,,,,,,,,-0.087890625,-1.46484375,1,0,0,1.65703701973,,,,,2015_Sep_28_1414,G,facesParametric,13,59.6982567209,
./stim/MorphF9_01_orig.jpg,169,,,,,0,169,169,169,,,,,,,,,,,,,,,,,,,-0.029296875,-1.494140625,0,0,1,0.853401184082,,,,,2015_Sep_28_1414,G,facesParametric,13,59.6982567209,
./stim/MorphM7_00_orig.jpg,170,,,,,0,170,170,170,,,,,,,,,,,,,,,,,,,-0.029296875,-1.494140625,0,0,1,0.535031080246,,,,,2015_Sep_28_1414,G,facesParametric,13,59.6982567209,
./stim/MorphM2_10_orig.jpg,171,,,,,0,171,171,171,,,,,,,,,,,,,,,,,,,0.146484375,-1.58203125,0,0,1,0.887064933777,,,,,2015_Sep_28_1414,G,facesParametric,13,59.6982567209,
./stim/MorphF2_07_orig.jpg,172,,,,,0,172,172,172,,,,,,,,,,,,,,,,,,,-0.849609375,-1.875,1,0,0,2.09373903275,,,,,2015_Sep_28_1414,G,facesParametric,13,59.6982567209,
./stim/MorphF5_04_orig.jpg,173,,,,,0,173,173,173,,,,,,,,,,,,,,,,,,,-0.732421875,-1.7578125,1,0,0,0.82014799118,,,,,2015_Sep_28_1414,G,facesParametric,13,59.6982567209,
./stim/MorphF3_08_orig.jpg,174,,,,,0,174,174,174,,,,,,,,,,,,,,,,,,,-0.556640625,-1.728515625,1,0,0,0.953497886658,,,,,2015_Sep_28_1414,G,facesParametric,13,59.6982567209,
./stim/MorphF1_02_orig.jpg,175,,,,,0,175,175,175,,,,,,,,,,,,,,,,,,,-0.52734375,-1.728515625,1,0,0,0.753149986267,,,,,2015_Sep_28_1414,G,facesParametric,13,59.6982567209,
./stim/MorphM5_06_orig.jpg,176,,,,,0,176,176,176,,,,,,,,,,,,,,,,,,,-0.46875,-1.611328125,1,0,0,3.36601901054,,,,,2015_Sep_28_1414,G,facesParametric,13,59.6982567209,
./stim/MorphF1_01_orig.jpg,177,,,,,0,177,177,177,,,,,,,,,,,,,,,,,,,0.205078125,-2.021484375,0,0,1,0.869175195694,,,,,2015_Sep_28_1414,G,facesParametric,13,59.6982567209,
./stim/MorphF4_03_orig.jpg,178,,,,,0,178,178,178,,,,,,,,,,,,,,,,,,,0.17578125,-2.05078125,0,0,1,1.17106509209,,,,,2015_Sep_28_1414,G,facesParametric,13,59.6982567209,
./stim/MorphF3_00_orig.jpg,179,,,,,0,179,179,179,,,,,,,,,,,,,,,,,,,0.439453125,-2.021484375,1,0,0,7.38971209526,,,,,2015_Sep_28_1414,G,facesParametric,13,59.6982567209,
./stim/MorphF6_09_orig.jpg,180,,,,,0,180,180,180,,,,,,,,,,,,,,,,,,,0.380859375,-2.080078125,1,0,0,2.9133040905,,,,,2015_Sep_28_1414,G,facesParametric,13,59.6982567209,
./stim/MorphF2_08_orig.jpg,181,,,,,0,181,181,181,,,,,,,,,,,,,,,,,,,0.3515625,-2.05078125,1,0,0,0.734235048294,,,,,2015_Sep_28_1414,G,facesParametric,13,59.6982567209,
./stim/MorphM6_04_orig.jpg,182,,,,,0,182,182,182,,,,,,,,,,,,,,,,,,,0.380859375,-2.05078125,0,0,1,0.836822986603,,,,,2015_Sep_28_1414,G,facesParametric,13,59.6982567209,
./stim/MorphF8_02_orig.jpg,183,,,,,0,183,183,183,,,,,,,,,,,,,,,,,,,0.322265625,-2.05078125,0,0,1,1.55632901192,,,,,2015_Sep_28_1414,G,facesParametric,13,59.6982567209,
./stim/MorphF7_01_orig.jpg,184,,,,,0,184,184,184,,,,,,,,,,,,,,,,,,,0.3515625,-2.021484375,0,0,1,0.685925006866,,,,,2015_Sep_28_1414,G,facesParametric,13,59.6982567209,
./stim/MorphM3_07_orig.jpg,185,,,,,0,185,185,185,,,,,,,,,,,,,,,,,,,0.3515625,-2.021484375,0,0,1,0.719295024872,,,,,2015_Sep_28_1414,G,facesParametric,13,59.6982567209,
./stim/MorphM1_04_orig.jpg,186,,,,,0,186,186,186,,,,,,,,,,,,,,,,,,,0.52734375,-2.28515625,1,0,0,1.50755190849,,,,,2015_Sep_28_1414,G,facesParametric,13,59.6982567209,
./stim/MorphM8_02_orig.jpg,187,,,,,0,187,187,187,,,,,,,,,,,,,,,,,,,0.52734375,-2.373046875,1,0,0,0.669139146805,,,,,2015_Sep_28_1414,G,facesParametric,13,59.6982567209,
./stim/MorphF4_04_orig.jpg,188,,,,,0,188,188,188,,,,,,,,,,,,,,,,,,,0.498046875,-2.40234375,1,0,0,0.551613092422,,,,,2015_Sep_28_1414,G,facesParametric,13,59.6982567209,
./stim/MorphF3_09_orig.jpg,189,,,,,0,189,189,189,,,,,,,,,,,,,,,,,,,0.498046875,-2.373046875,1,0,0,0.3842689991,,,,,2015_Sep_28_1414,G,facesParametric,13,59.6982567209,
./stim/MorphM6_10_orig.jpg,190,,,,,0,190,190,190,,,,,,,,,,,,,,,,,,,0.498046875,-2.373046875,1,0,0,0.367030143738,,,,,2015_Sep_28_1414,G,facesParametric,13,59.6982567209,
./stim/MorphF5_03_orig.jpg,191,,,,,0,191,191,191,,,,,,,,,,,,,,,,,,,0.99609375,-0.498046875,1,0,0,3.55052804947,,,,,2015_Sep_28_1414,G,facesParametric,13,59.6982567209,
./stim/MorphF6_05_orig.jpg,192,,,,,0,192,192,192,,,,,,,,,,,,,,,,,,,0.99609375,-0.498046875,1,0,0,0.484653234482,,,,,2015_Sep_28_1414,G,facesParametric,13,59.6982567209,
./stim/MorphM7_03_orig.jpg,193,,,,,0,193,193,193,,,,,,,,,,,,,,,,,,,0.99609375,-0.498046875,1,0,0,0.635431051254,,,,,2015_Sep_28_1414,G,facesParametric,13,59.6982567209,
./stim/MorphF6_03_orig.jpg,194,,,,,0,194,194,194,,,,,,,,,,,,,,,,,,,-2.109375,-1.201171875,1,0,0,23.2102150917,,,,,2015_Sep_28_1414,G,facesParametric,13,59.6982567209,
./stim/MorphM10_10_orig.jpg,195,,,,,0,195,195,195,,,,,,,,,,,,,,,,,,,-2.197265625,-1.259765625,1,0,0,2.22729611397,,,,,2015_Sep_28_1414,G,facesParametric,13,59.6982567209,
./stim/MorphM2_09_orig.jpg,196,,,,,0,196,196,196,,,,,,,,,,,,,,,,,,,-2.197265625,-1.259765625,1,0,0,0.853458881378,,,,,2015_Sep_28_1414,G,facesParametric,13,59.6982567209,
./stim/MorphF8_09_orig.jpg,197,,,,,0,197,197,197,,,,,,,,,,,,,,,,,,,-2.16796875,-1.2890625,1,0,0,2.66161203384,,,,,2015_Sep_28_1414,G,facesParametric,13,59.6982567209,
./stim/MorphM4_05_orig.jpg,198,,,,,0,198,198,198,,,,,,,,,,,,,,,,,,,-2.109375,-1.23046875,1,0,0,2.6637699604,,,,,2015_Sep_28_1414,G,facesParametric,13,59.6982567209,
./stim/MorphM5_07_orig.jpg,199,,,,,0,199,199,199,,,,,,,,,,,,,,,,,,,-2.109375,-1.259765625,1,0,0,1.13805603981,,,,,2015_Sep_28_1414,G,facesParametric,13,59.6982567209,
./stim/MorphF2_10_orig.jpg,200,,,,,0,200,200,200,,,,,,,,,,,,,,,,,,,-2.138671875,-1.318359375,1,0,0,1.50759315491,,,,,2015_Sep_28_1414,G,facesParametric,13,59.6982567209,
./stim/MorphM1_10_orig.jpg,201,,,,,0,201,201,201,,,,,,,,,,,,,,,,,,,-2.2265625,-1.376953125,0,0,1,1.80846500397,,,,,2015_Sep_28_1414,G,facesParametric,13,59.6982567209,
./stim/MorphF7_00_orig.jpg,202,,,,,0,202,202,202,,,,,,,,,,,,,,,,,,,-2.2265625,-1.40625,0,0,1,0.785941123962,,,,,2015_Sep_28_1414,G,facesParametric,13,59.6982567209,
./stim/MorphF2_05_orig.jpg,203,,,,,0,203,203,203,,,,,,,,,,,,,,,,,,,-2.373046875,-1.69921875,0,0,1,0.383420944214,,,,,2015_Sep_28_1414,G,facesParametric,13,59.6982567209,
./stim/MorphF9_03_orig.jpg,204,,,,,0,204,204,204,,,,,,,,,,,,,,,,,,,-2.2265625,-1.494140625,0,0,1,2.46245408058,,,,,2015_Sep_28_1414,G,facesParametric,13,59.6982567209,
./stim/MorphM9_06_orig.jpg,205,,,,,0,205,205,205,,,,,,,,,,,,,,,,,,,-2.2265625,-1.494140625,0,0,1,0.719436883926,,,,,2015_Sep_28_1414,G,facesParametric,13,59.6982567209,
./stim/MorphM10_06_orig.jpg,206,,,,,0,206,206,206,,,,,,,,,,,,,,,,,,,-2.28515625,-1.58203125,0,0,1,0.635921001434,,,,,2015_Sep_28_1414,G,facesParametric,13,59.6982567209,
./stim/MorphF1_03_orig.jpg,207,,,,,0,207,207,207,,,,,,,,,,,,,,,,,,,-2.28515625,-1.58203125,0,0,1,0.635177850723,,,,,2015_Sep_28_1414,G,facesParametric,13,59.6982567209,
./stim/MorphM9_01_orig.jpg,208,,,,,0,208,208,208,,,,,,,,,,,,,,,,,,,6.26953125,-1.728515625,0,0,1,5.0936961174,,,,,2015_Sep_28_1414,G,facesParametric,13,59.6982567209,
./stim/MorphM4_03_orig.jpg,209,,,,,0,209,209,209,,,,,,,,,,,,,,,,,,,6.708984375,-2.314453125,0,0,1,1.00440597534,,,,,2015_Sep_28_1414,G,facesParametric,13,59.6982567209,
./stim/MorphM1_07_orig.jpg,210,,,,,0,210,210,210,,,,,,,,,,,,,,,,,,,6.884765625,-2.34375,0,0,1,0.584231138229,,,,,2015_Sep_28_1414,G,facesParametric,13,59.6982567209,
./stim/MorphM5_10_orig.jpg,211,,,,,0,211,211,211,,,,,,,,,,,,,,,,,,,7.294921875,-2.373046875,0,0,1,0.920673131943,,,,,2015_Sep_28_1414,G,facesParametric,13,59.6982567209,
./stim/MorphF9_08_orig.jpg,212,,,,,0,212,212,212,,,,,,,,,,,,,,,,,,,7.294921875,-2.490234375,0,0,1,0.919085025787,,,,,2015_Sep_28_1414,G,facesParametric,13,59.6982567209,
./stim/MorphF2_09_orig.jpg,213,,,,,0,213,213,213,,,,,,,,,,,,,,,,,,,7.08984375,-2.75390625,0,0,1,0.970938920975,,,,,2015_Sep_28_1414,G,facesParametric,13,59.6982567209,
./stim/MorphM3_09_orig.jpg,214,,,,,0,214,214,214,,,,,,,,,,,,,,,,,,,7.236328125,-2.666015625,0,0,1,0.803381919861,,,,,2015_Sep_28_1414,G,facesParametric,13,59.6982567209,
./stim/MorphF9_07_orig.jpg,215,,,,,0,215,215,215,,,,,,,,,,,,,,,,,,,7.20703125,-2.6953125,0,0,1,0.601879835129,,,,,2015_Sep_28_1414,G,facesParametric,13,59.6982567209,
./stim/MorphF7_08_orig.jpg,216,,,,,0,216,216,216,,,,,,,,,,,,,,,,,,,6.09375,-2.9296875,0,0,1,1.89298295975,,,,,2015_Sep_28_1414,G,facesParametric,13,59.6982567209,
./stim/MorphF8_07_orig.jpg,217,,,,,0,217,217,217,,,,,,,,,,,,,,,,,,,5.7421875,-3.076171875,0,0,1,0.652245998383,,,,,2015_Sep_28_1414,G,facesParametric,13,59.6982567209,
./stim/MorphF7_03_orig.jpg,218,,,,,0,218,218,218,,,,,,,,,,,,,,,,,,,5.654296875,-3.134765625,0,0,1,0.635776042938,,,,,2015_Sep_28_1414,G,facesParametric,13,59.6982567209,
./stim/MorphF2_01_orig.jpg,219,,,,,0,219,219,219,,,,,,,,,,,,,,,,,,,5.625,-3.1640625,0,0,1,0.417651891708,,,,,2015_Sep_28_1414,G,facesParametric,13,59.6982567209,
,,,,,,,,,,,,,,,,,,,,,,,,,,,,,,,,,,return,13.3912909031,,,2015_Sep_28_1414,G,facesParametric,13,59.6982567209,
./stim/MorphM1_05_orig.jpg,0,,,,,,,,,0,0,0,0,,,,,,,,,,,,,,,-19.74609375,9.345703125,1,0,0,7.94962000847,,,,,2015_Sep_28_1414,G,facesParametric,13,59.6982567209,
./stim/MorphM8_05_orig.jpg,1,,,,,,,,,0,1,1,1,,,,,,,,,,,,,,,-19.74609375,9.345703125,1,0,0,2.34225797653,,,,,2015_Sep_28_1414,G,facesParametric,13,59.6982567209,
./stim/MorphF1_05_orig.jpg,2,,,,,,,,,0,2,2,2,,,,,,,,,,,,,,,-19.775390625,9.375,1,0,0,1.18846487999,,,,,2015_Sep_28_1414,G,facesParametric,13,59.6982567209,
./stim/MorphM5_03_orig.jpg,3,,,,,,,,,0,3,3,3,,,,,,,,,,,,,,,-23.4375,1.171875,0,0,1,5.93203687668,,,,,2015_Sep_28_1414,G,facesParametric,13,59.6982567209,
./stim/MorphF2_10_orig.jpg,4,,,,,,,,,0,4,4,4,,,,,,,,,,,,,,,-23.291015625,1.23046875,0,0,1,0.702736854553,,,,,2015_Sep_28_1414,G,facesParametric,13,59.6982567209,
./stim/MorphM3_04_orig.jpg,5,,,,,,,,,0,5,5,5,,,,,,,,,,,,,,,-23.291015625,1.23046875,0,0,1,0.618952035904,,,,,2015_Sep_28_1414,G,facesParametric,13,59.6982567209,
./stim/MorphF9_08_orig.jpg,6,,,,,,,,,0,6,6,6,,,,,,,,,,,,,,,-23.291015625,0.76171875,0,0,1,1.85895609856,,,,,2015_Sep_28_1414,G,facesParametric,13,59.6982567209,
./stim/MorphF3_07_orig.jpg,7,,,,,,,,,0,7,7,7,,,,,,,,,,,,,,,-23.291015625,0.498046875,0,0,1,1.70842289925,,,,,2015_Sep_28_1414,G,facesParametric,13,59.6982567209,
./stim/MorphF8_01_orig.jpg,8,,,,,,,,,0,8,8,8,,,,,,,,,,,,,,,-23.4375,0.87890625,1,0,0,8.26018404961,,,,,2015_Sep_28_1414,G,facesParametric,13,59.6982567209,
./stim/MorphM2_05_orig.jpg,9,,,,,,,,,0,9,9,9,,,,,,,,,,,,,,,-23.4375,0.849609375,1,0,0,2.29458808899,,,,,2015_Sep_28_1414,G,facesParametric,13,59.6982567209,
./stim/MorphF3_06_orig.jpg,10,,,,,,,,,0,10,10,10,,,,,,,,,,,,,,,-23.4375,0.8203125,1,0,0,0.719164848328,,,,,2015_Sep_28_1414,G,facesParametric,13,59.6982567209,
./stim/MorphM10_01_orig.jpg,11,,,,,,,,,0,11,11,11,,,,,,,,,,,,,,,-23.4375,0.8203125,1,0,0,2.02652001381,,,,,2015_Sep_28_1414,G,facesParametric,13,59.6982567209,
./stim/MorphF8_00_orig.jpg,12,,,,,,,,,0,12,12,12,,,,,,,,,,,,,,,-20.68359375,-10.72265625,1,0,0,5.47939705849,,,,,2015_Sep_28_1414,G,facesParametric,13,59.6982567209,
./stim/MorphM4_08_orig.jpg,13,,,,,,,,,0,13,13,13,,,,,,,,,,,,,,,-20.390625,-10.48828125,1,0,0,0.970100879669,,,,,2015_Sep_28_1414,G,facesParametric,13,59.6982567209,
./stim/MorphF7_04_orig.jpg,14,,,,,,,,,0,14,14,14,,,,,,,,,,,,,,,-20.15625,-10.546875,1,0,0,1.52405905724,,,,,2015_Sep_28_1414,G,facesParametric,13,59.6982567209,
./stim/MorphF4_00_orig.jpg,15,,,,,,,,,0,15,15,15,,,,,,,,,,,,,,,-20.09765625,-10.546875,1,0,0,1.58876299858,,,,,2015_Sep_28_1414,G,facesParametric,13,59.6982567209,
./stim/MorphF7_09_orig.jpg,16,,,,,,,,,0,16,16,16,,,,,,,,,,,,,,,-20.0390625,-10.576171875,1,0,0,0.667680025101,,,,,2015_Sep_28_1414,G,facesParametric,13,59.6982567209,
./stim/MorphM3_06_orig.jpg,17,,,,,,,,,0,17,17,17,,,,,,,,,,,,,,,-20.0390625,-10.576171875,1,0,0,1.45682096481,,,,,2015_Sep_28_1414,G,facesParametric,13,59.6982567209,
./stim/MorphM6_03_orig.jpg,18,,,,,,,,,0,18,18,18,,,,,,,,,,,,,,,-20.0390625,-10.576171875,1,0,0,2.41225385666,,,,,2015_Sep_28_1414,G,facesParametric,13,59.6982567209,
./stim/MorphM9_05_orig.jpg,19,,,,,,,,,0,19,19,19,,,,,,,,,,,,,,,-20.0390625,-10.576171875,1,0,0,1.22221517563,,,,,2015_Sep_28_1414,G,facesParametric,13,59.6982567209,
./stim/MorphF6_07_orig.jpg,20,,,,,,,,,0,20,20,20,,,,,,,,,,,,,,,-20.0390625,-10.60546875,1,0,0,1.08783507347,,,,,2015_Sep_28_1414,G,facesParametric,13,59.6982567209,
./stim/MorphF4_03_orig.jpg,21,,,,,,,,,0,21,21,21,,,,,,,,,,,,,,,-20.0390625,-10.60546875,1,0,0,1.0551738739,,,,,2015_Sep_28_1414,G,facesParametric,13,59.6982567209,
./stim/MorphM1_02_orig.jpg,22,,,,,,,,,0,22,22,22,,,,,,,,,,,,,,,-20.0390625,-10.60546875,1,0,0,0.835291147232,,,,,2015_Sep_28_1414,G,facesParametric,13,59.6982567209,
./stim/MorphF1_06_orig.jpg,23,,,,,,,,,0,23,23,23,,,,,,,,,,,,,,,-20.0390625,-10.60546875,1,0,0,0.955053091049,,,,,2015_Sep_28_1414,G,facesParametric,13,59.6982567209,
./stim/MorphM9_00_orig.jpg,24,,,,,,,,,0,24,24,24,,,,,,,,,,,,,,,-20.0390625,-10.6640625,0,0,1,1.70750403404,,,,,2015_Sep_28_1414,G,facesParametric,13,59.6982567209,
./stim/MorphF6_04_orig.jpg,25,,,,,,,,,0,25,25,25,,,,,,,,,,,,,,,-20.15625,-10.810546875,0,0,1,0.367376089096,,,,,2015_Sep_28_1414,G,facesParametric,13,59.6982567209,
./stim/MorphF8_09_orig.jpg,26,,,,,,,,,0,26,26,26,,,,,,,,,,,,,,,-20.185546875,-10.634765625,1,0,0,0.970728158951,,,,,2015_Sep_28_1414,G,facesParametric,13,59.6982567209,
./stim/MorphF10_09_orig.jpg,27,,,,,,,,,0,27,27,27,,,,,,,,,,,,,,,-20.185546875,-10.634765625,1,0,0,0.333827972412,,,,,2015_Sep_28_1414,G,facesParametric,13,59.6982567209,
./stim/MorphF8_08_orig.jpg,28,,,,,,,,,0,28,28,28,,,,,,,,,,,,,,,-20.185546875,-10.634765625,1,0,0,1.13866186142,,,,,2015_Sep_28_1414,G,facesParametric,13,59.6982567209,
./stim/MorphM6_09_orig.jpg,29,,,,,,,,,0,29,29,29,,,,,,,,,,,,,,,-20.185546875,-10.634765625,1,0,0,1.07130789757,,,,,2015_Sep_28_1414,G,facesParametric,13,59.6982567209,
./stim/MorphF1_02_orig.jpg,30,,,,,,,,,0,30,30,30,,,,,,,,,,,,,,,-20.244140625,-10.60546875,0,0,1,2.94858598709,,,,,2015_Sep_28_1414,G,facesParametric,13,59.6982567209,
./stim/MorphM8_07_orig.jpg,31,,,,,,,,,0,31,31,31,,,,,,,,,,,,,,,-20.595703125,-10.693359375,0,0,1,2.69519782066,,,,,2015_Sep_28_1414,G,facesParametric,13,59.6982567209,
./stim/MorphM2_01_orig.jpg,32,,,,,,,,,0,32,32,32,,,,,,,,,,,,,,,-20.830078125,-10.634765625,1,0,0,1.44037508965,,,,,2015_Sep_28_1414,G,facesParametric,13,59.6982567209,
./stim/MorphM3_03_orig.jpg,33,,,,,,,,,0,33,33,33,,,,,,,,,,,,,,,-20.830078125,-10.634765625,1,0,0,1.35438394547,,,,,2015_Sep_28_1414,G,facesParametric,13,59.6982567209,
./stim/MorphF8_04_orig.jpg,34,,,,,,,,,0,34,34,34,,,,,,,,,,,,,,,-20.80078125,-10.60546875,1,0,0,0.870320081711,,,,,2015_Sep_28_1414,G,facesParametric,13,59.6982567209,
./stim/MorphM4_00_orig.jpg,35,,,,,,,,,0,35,35,35,,,,,,,,,,,,,,,-20.654296875,-10.693359375,0,0,1,2.02484989166,,,,,2015_Sep_28_1414,G,facesParametric,13,59.6982567209,
./stim/MorphF6_03_orig.jpg,36,,,,,,,,,0,36,36,36,,,,,,,,,,,,,,,-20.859375,-10.810546875,0,0,1,1.40685796738,,,,,2015_Sep_28_1414,G,facesParametric,13,59.6982567209,
./stim/MorphM10_09_orig.jpg,37,,,,,,,,,0,37,37,37,,,,,,,,,,,,,,,-23.4375,-13.154296875,0,0,1,30.7520799637,,,,,2015_Sep_28_1414,G,facesParametric,13,59.6982567209,
./stim/MorphM7_00_orig.jpg,38,,,,,,,,,0,38,38,38,,,,,,,,,,,,,,,-15.966796875,-12.158203125,1,0,0,1.03794002533,,,,,2015_Sep_28_1414,G,facesParametric,13,59.6982567209,
./stim/MorphF9_02_orig.jpg,39,,,,,,,,,0,39,39,39,,,,,,,,,,,,,,,-15.908203125,-12.12890625,1,0,0,0.451236963272,,,,,2015_Sep_28_1414,G,facesParametric,13,59.6982567209,
./stim/MorphF5_02_orig.jpg,40,,,,,,,,,0,40,40,40,,,,,,,,,,,,,,,-15.87890625,-12.275390625,1,0,0,0.702462911606,,,,,2015_Sep_28_1414,G,facesParametric,13,59.6982567209,
./stim/MorphM10_03_orig.jpg,41,,,,,,,,,0,41,41,41,,,,,,,,,,,,,,,-15.791015625,-12.275390625,0,0,1,3.76962208748,,,,,2015_Sep_28_1414,G,facesParametric,13,59.6982567209,
./stim/MorphM2_08_orig.jpg,42,,,,,,,,,0,42,42,42,,,,,,,,,,,,,,,-15.849609375,-12.12890625,1,0,0,1.12204885483,,,,,2015_Sep_28_1414,G,facesParametric,13,59.6982567209,
./stim/MorphF3_01_orig.jpg,43,,,,,,,,,0,43,43,43,,,,,,,,,,,,,,,-15.76171875,-12.12890625,1,0,0,1.32240891457,,,,,2015_Sep_28_1414,G,facesParametric,13,59.6982567209,
./stim/MorphM4_09_orig.jpg,44,,,,,,,,,0,44,44,44,,,,,,,,,,,,,,,-15.615234375,-12.216796875,1,0,0,1.80785298347,,,,,2015_Sep_28_1414,G,facesParametric,13,59.6982567209,
./stim/MorphF2_05_orig.jpg,45,,,,,,,,,0,45,45,45,,,,,,,,,,,,,,,-15.5859375,-12.24609375,0,0,1,1.02140498161,,,,,2015_Sep_28_1414,G,facesParametric,13,59.6982567209,
./stim/MorphM5_05_orig.jpg,46,,,,,,,,,0,46,46,46,,,,,,,,,,,,,,,-15.87890625,-12.333984375,1,0,0,3.11527514458,,,,,2015_Sep_28_1414,G,facesParametric,13,59.6982567209,
./stim/MorphF9_10_orig.jpg,47,,,,,,,,,0,47,47,47,,,,,,,,,,,,,,,-15.87890625,-12.333984375,1,0,0,1.05440187454,,,,,2015_Sep_28_1414,G,facesParametric,13,59.6982567209,
./stim/MorphF1_01_orig.jpg,48,,,,,,,,,0,48,48,48,,,,,,,,,,,,,,,-15.966796875,-12.216796875,1,0,0,0.719466924667,,,,,2015_Sep_28_1414,G,facesParametric,13,59.6982567209,
./stim/MorphM8_09_orig.jpg,49,,,,,,,,,0,49,49,49,,,,,,,,,,,,,,,-15.966796875,-12.216796875,1,0,0,0.652225017548,,,,,2015_Sep_28_1414,G,facesParametric,13,59.6982567209,
./stim/MorphM4_02_orig.jpg,50,,,,,,,,,0,50,50,50,,,,,,,,,,,,,,,-16.259765625,-12.685546875,0,0,1,1.18765711784,,,,,2015_Sep_28_1414,G,facesParametric,13,59.6982567209,
./stim/MorphM6_08_orig.jpg,51,,,,,,,,,0,51,51,51,,,,,,,,,,,,,,,-16.435546875,-12.685546875,0,0,1,0.568225860596,,,,,2015_Sep_28_1414,G,facesParametric,13,59.6982567209,
./stim/MorphF2_00_orig.jpg,52,,,,,,,,,0,52,52,52,,,,,,,,,,,,,,,-16.435546875,-12.685546875,1,0,0,0.785822153091,,,,,2015_Sep_28_1414,G,facesParametric,13,59.6982567209,
./stim/MorphM7_04_orig.jpg,53,,,,,,,,,0,53,53,53,,,,,,,,,,,,,,,-16.435546875,-12.65625,1,0,0,0.853668928146,,,,,2015_Sep_28_1414,G,facesParametric,13,59.6982567209,
./stim/MorphM6_07_orig.jpg,54,,,,,,,,,0,54,54,54,,,,,,,,,,,,,,,-19.86328125,-11.923828125,1,0,0,18.3840301037,,,,,2015_Sep_28_1414,G,facesParametric,13,59.6982567209,
./stim/MorphF1_10_orig.jpg,55,,,,,,,,,0,55,55,55,,,,,,,,,,,,,,,-20.361328125,-12.158203125,1,0,0,1.15503191948,,,,,2015_Sep_28_1414,G,facesParametric,13,59.6982567209,
./stim/MorphM1_03_orig.jpg,56,,,,,,,,,0,56,56,56,,,,,,,,,,,,,,,-22.880859375,-12.01171875,1,0,0,5.89649391174,,,,,2015_Sep_28_1414,G,facesParametric,13,59.6982567209,
./stim/MorphF4_10_orig.jpg,57,,,,,,,,,0,57,57,57,,,,,,,,,,,,,,,-22.79296875,-12.0703125,1,0,0,2.56318497658,,,,,2015_Sep_28_1414,G,facesParametric,13,59.6982567209,
./stim/MorphF9_09_orig.jpg,58,,,,,,,,,0,58,58,58,,,,,,,,,,,,,,,-22.91015625,-12.48046875,1,0,0,2.1769220829,,,,,2015_Sep_28_1414,G,facesParametric,13,59.6982567209,
./stim/MorphM7_09_orig.jpg,59,,,,,,,,,0,59,59,59,,,,,,,,,,,,,,,-22.91015625,-12.48046875,0,0,1,1.64121699333,,,,,2015_Sep_28_1414,G,facesParametric,13,59.6982567209,
./stim/MorphF4_05_orig.jpg,60,,,,,,,,,0,60,60,60,,,,,,,,,,,,,,,-22.998046875,-12.5390625,1,0,0,1.94100308418,,,,,2015_Sep_28_1414,G,facesParametric,13,59.6982567209,
./stim/MorphM3_05_orig.jpg,61,,,,,,,,,0,61,61,61,,,,,,,,,,,,,,,-23.291015625,-12.3046875,1,0,0,2.41189694405,,,,,2015_Sep_28_1414,G,facesParametric,13,59.6982567209,
./stim/MorphM5_06_orig.jpg,62,,,,,,,,,0,62,62,62,,,,,,,,,,,,,,,-23.4375,-12.216796875,1,0,0,0.853634119034,,,,,2015_Sep_28_1414,G,facesParametric,13,59.6982567209,
./stim/MorphM8_08_orig.jpg,63,,,,,,,,,0,63,63,63,,,,,,,,,,,,,,,-23.4375,-12.1875,1,0,0,1.17232489586,,,,,2015_Sep_28_1414,G,facesParametric,13,59.6982567209,
./stim/MorphF5_09_orig.jpg,64,,,,,,,,,0,64,64,64,,,,,,,,,,,,,,,-23.4375,-11.806640625,1,0,0,2.88133502007,,,,,2015_Sep_28_1414,G,facesParametric,13,59.6982567209,
./stim/MorphF10_03_orig.jpg,65,,,,,,,,,0,65,65,65,,,,,,,,,,,,,,,-23.4375,-11.8359375,1,0,0,0.753115177155,,,,,2015_Sep_28_1414,G,facesParametric,13,59.6982567209,
./stim/MorphF7_00_orig.jpg,66,,,,,,,,,0,66,66,66,,,,,,,,,,,,,,,-23.4375,-11.748046875,1,0,0,9.51759791374,,,,,2015_Sep_28_1414,G,facesParametric,13,59.6982567209,
./stim/MorphF8_05_orig.jpg,67,,,,,,,,,0,67,67,67,,,,,,,,,,,,,,,-23.4375,-11.689453125,1,0,0,0.905184984207,,,,,2015_Sep_28_1414,G,facesParametric,13,59.6982567209,
./stim/MorphM2_03_orig.jpg,68,,,,,,,,,0,68,68,68,,,,,,,,,,,,,,,-23.4375,-11.6015625,1,0,0,2.09006285667,,,,,2015_Sep_28_1414,G,facesParametric,13,59.6982567209,
./stim/MorphM10_07_orig.jpg,69,,,,,,,,,0,69,69,69,,,,,,,,,,,,,,,-23.4375,-11.6015625,1,0,0,0.870495796204,,,,,2015_Sep_28_1414,G,facesParametric,13,59.6982567209,
./stim/MorphF6_02_orig.jpg,70,,,,,,,,,0,70,70,70,,,,,,,,,,,,,,,-23.37890625,-11.572265625,1,0,0,0.887104034424,,,,,2015_Sep_28_1414,G,facesParametric,13,59.6982567209,
./stim/MorphM7_07_orig.jpg,71,,,,,,,,,0,71,71,71,,,,,,,,,,,,,,,-23.291015625,-11.54296875,0,0,1,1.6578810215,,,,,2015_Sep_28_1414,G,facesParametric,13,59.6982567209,
./stim/MorphF10_04_orig.jpg,72,,,,,,,,,0,72,72,72,,,,,,,,,,,,,,,-23.291015625,-11.54296875,0,0,1,1.35610818863,,,,,2015_Sep_28_1414,G,facesParametric,13,59.6982567209,
./stim/MorphM9_09_orig.jpg,73,,,,,,,,,0,73,73,73,,,,,,,,,,,,,,,-23.291015625,-11.54296875,0,0,1,1.03765511513,,,,,2015_Sep_28_1414,G,facesParametric,13,59.6982567209,
./stim/MorphM6_06_orig.jpg,74,,,,,,,,,0,74,74,74,,,,,,,,,,,,,,,-23.291015625,-11.54296875,0,0,1,2.44570398331,,,,,2015_Sep_28_1414,G,facesParametric,13,59.6982567209,
./stim/MorphF10_07_orig.jpg,75,,,,,,,,,0,75,75,75,,,,,,,,,,,,,,,-23.291015625,-11.54296875,0,0,1,0.787001132965,,,,,2015_Sep_28_1414,G,facesParametric,13,59.6982567209,
./stim/MorphF7_10_orig.jpg,76,,,,,,,,,0,76,76,76,,,,,,,,,,,,,,,-23.291015625,-11.54296875,0,0,1,0.917953014374,,,,,2015_Sep_28_1414,G,facesParametric,13,59.6982567209,
./stim/MorphM5_07_orig.jpg,77,,,,,,,,,0,77,77,77,,,,,,,,,,,,,,,-23.291015625,-11.54296875,0,0,1,1.42330479622,,,,,2015_Sep_28_1414,G,facesParametric,13,59.6982567209,
./stim/MorphF6_05_orig.jpg,78,,,,,,,,,0,78,78,78,,,,,,,,,,,,,,,-23.26171875,-11.630859375,1,0,0,1.33946204185,,,,,2015_Sep_28_1414,G,facesParametric,13,59.6982567209,
./stim/MorphM10_10_orig.jpg,79,,,,,,,,,0,79,79,79,,,,,,,,,,,,,,,-23.232421875,-11.66015625,1,0,0,0.971241950989,,,,,2015_Sep_28_1414,G,facesParametric,13,59.6982567209,
./stim/MorphM6_10_orig.jpg,80,,,,,,,,,0,80,80,80,,,,,,,,,,,,,,,-23.291015625,-11.689453125,1,0,0,1.4555850029,,,,,2015_Sep_28_1414,G,facesParametric,13,59.6982567209,
./stim/MorphF3_05_orig.jpg,81,,,,,,,,,0,81,81,81,,,,,,,,,,,,,,,-23.3203125,-11.71875,0,0,1,1.10544085503,,,,,2015_Sep_28_1414,G,facesParametric,13,59.6982567209,
./stim/MorphM2_07_orig.jpg,82,,,,,,,,,0,82,82,82,,,,,,,,,,,,,,,-23.4375,-11.8359375,1,0,0,1.95746707916,,,,,2015_Sep_28_1414,G,facesParametric,13,59.6982567209,
./stim/MorphF1_03_orig.jpg,83,,,,,,,,,0,83,83,83,,,,,,,,,,,,,,,-23.408203125,-11.865234375,1,0,0,1.17191696167,,,,,2015_Sep_28_1414,G,facesParametric,13,59.6982567209,
./stim/MorphF5_08_orig.jpg,84,,,,,,,,,0,84,84,84,,,,,,,,,,,,,,,-23.26171875,-11.982421875,1,0,0,1.64104890823,,,,,2015_Sep_28_1414,G,facesParametric,13,59.6982567209,
./stim/MorphM4_01_orig.jpg,85,,,,,,,,,0,85,85,85,,,,,,,,,,,,,,,-23.115234375,-12.0703125,0,0,1,1.60575795174,,,,,2015_Sep_28_1414,G,facesParametric,13,59.6982567209,
./stim/MorphF2_07_orig.jpg,86,,,,,,,,,0,86,86,86,,,,,,,,,,,,,,,-23.4375,-11.484375,0,0,1,2.73085403442,,,,,2015_Sep_28_1414,G,facesParametric,13,59.6982567209,
./stim/MorphM8_02_orig.jpg,87,,,,,,,,,0,87,87,87,,,,,,,,,,,,,,,-23.4375,-11.572265625,0,0,1,1.69094181061,,,,,2015_Sep_28_1414,G,facesParametric,13,59.6982567209,
./stim/MorphF3_02_orig.jpg,88,,,,,,,,,0,88,88,88,,,,,,,,,,,,,,,-23.4375,-11.484375,1,0,0,1.50688505173,,,,,2015_Sep_28_1414,G,facesParametric,13,59.6982567209,
./stim/MorphF8_10_orig.jpg,89,,,,,,,,,0,89,89,89,,,,,,,,,,,,,,,-23.349609375,-11.66015625,0,0,1,0.685699939728,,,,,2015_Sep_28_1414,G,facesParametric,13,59.6982567209,
./stim/MorphM4_04_orig.jpg,90,,,,,,,,,0,90,90,90,,,,,,,,,,,,,,,-23.37890625,-11.71875,0,0,1,0.971152067184,,,,,2015_Sep_28_1414,G,facesParametric,13,59.6982567209,
./stim/MorphF5_04_orig.jpg,91,,,,,,,,,0,91,91,91,,,,,,,,,,,,,,,-23.4375,-11.572265625,1,0,0,0.836550951004,,,,,2015_Sep_28_1414,G,facesParametric,13,59.6982567209,
./stim/MorphF1_08_orig.jpg,92,,,,,,,,,0,92,92,92,,,,,,,,,,,,,,,-23.4375,-11.54296875,1,0,0,2.42869615555,,,,,2015_Sep_28_1414,G,facesParametric,13,59.6982567209,
./stim/MorphM3_09_orig.jpg,93,,,,,,,,,0,93,93,93,,,,,,,,,,,,,,,-23.408203125,-11.484375,1,0,0,0.869536876678,,,,,2015_Sep_28_1414,G,facesParametric,13,59.6982567209,
./stim/MorphF10_06_orig.jpg,94,,,,,,,,,0,94,94,94,,,,,,,,,,,,,,,-23.4375,-11.513671875,1,0,0,1.50732517242,,,,,2015_Sep_28_1414,G,facesParametric,13,59.6982567209,
./stim/MorphM8_10_orig.jpg,95,,,,,,,,,0,95,95,95,,,,,,,,,,,,,,,-23.4375,-11.54296875,0,0,1,1.49045705795,,,,,2015_Sep_28_1414,G,facesParametric,13,59.6982567209,
./stim/MorphM3_00_orig.jpg,96,,,,,,,,,0,96,96,96,,,,,,,,,,,,,,,-23.4375,-11.513671875,1,0,0,1.35646891594,,,,,2015_Sep_28_1414,G,facesParametric,13,59.6982567209,
./stim/MorphF10_00_orig.jpg,97,,,,,,,,,0,97,97,97,,,,,,,,,,,,,,,-23.4375,-11.513671875,1,0,0,0.702512979507,,,,,2015_Sep_28_1414,G,facesParametric,13,59.6982567209,
./stim/MorphF1_04_orig.jpg,98,,,,,,,,,0,98,98,98,,,,,,,,,,,,,,,-23.4375,-11.513671875,0,0,1,1.35562300682,,,,,2015_Sep_28_1414,G,facesParametric,13,59.6982567209,
./stim/MorphM6_01_orig.jpg,99,,,,,,,,,0,99,99,99,,,,,,,,,,,,,,,-23.4375,-11.54296875,0,0,1,0.903620004654,,,,,2015_Sep_28_1414,G,facesParametric,13,59.6982567209,
./stim/MorphF6_00_orig.jpg,100,,,,,,,,,0,100,100,100,,,,,,,,,,,,,,,-23.4375,-11.54296875,0,0,1,1.12186002731,,,,,2015_Sep_28_1414,G,facesParametric,13,59.6982567209,
./stim/MorphM4_10_orig.jpg,101,,,,,,,,,0,101,101,101,,,,,,,,,,,,,,,-23.4375,-11.572265625,0,0,1,1.43874406815,,,,,2015_Sep_28_1414,G,facesParametric,13,59.6982567209,
./stim/MorphM7_02_orig.jpg,102,,,,,,,,,0,102,102,102,,,,,,,,,,,,,,,-23.4375,-11.455078125,1,0,0,1.94261193275,,,,,2015_Sep_28_1414,G,facesParametric,13,59.6982567209,
./stim/MorphM9_07_orig.jpg,103,,,,,,,,,0,103,103,103,,,,,,,,,,,,,,,-23.4375,-11.455078125,1,0,0,2.22774386406,,,,,2015_Sep_28_1414,G,facesParametric,13,59.6982567209,
./stim/MorphF2_01_orig.jpg,104,,,,,,,,,0,104,104,104,,,,,,,,,,,,,,,-23.37890625,-11.455078125,1,0,0,1.52419614792,,,,,2015_Sep_28_1414,G,facesParametric,13,59.6982567209,
./stim/MorphF3_03_orig.jpg,105,,,,,,,,,0,105,105,105,,,,,,,,,,,,,,,-23.4375,-11.484375,1,0,0,2.67873287201,,,,,2015_Sep_28_1414,G,facesParametric,13,59.6982567209,
./stim/MorphM4_03_orig.jpg,106,,,,,,,,,0,106,106,106,,,,,,,,,,,,,,,-21.73828125,-11.982421875,0,0,1,0.870767116547,,,,,2015_Sep_28_1414,G,facesParametric,13,59.6982567209,
./stim/MorphF9_04_orig.jpg,107,,,,,,,,,0,107,107,107,,,,,,,,,,,,,,,-21.6796875,-11.806640625,0,0,1,0.903411865234,,,,,2015_Sep_28_1414,G,facesParametric,13,59.6982567209,
./stim/MorphM1_00_orig.jpg,108,,,,,,,,,0,108,108,108,,,,,,,,,,,,,,,-21.5625,-11.77734375,1,0,0,1.42356610298,,,,,2015_Sep_28_1414,G,facesParametric,13,59.6982567209,
./stim/MorphM8_06_orig.jpg,109,,,,,,,,,0,109,109,109,,,,,,,,,,,,,,,-21.97265625,-11.54296875,1,0,0,0.702255964279,,,,,2015_Sep_28_1414,G,facesParametric,13,59.6982567209,
./stim/MorphF8_07_orig.jpg,110,,,,,,,,,0,110,110,110,,,,,,,,,,,,,,,-21.97265625,-11.54296875,1,0,0,0.769999980927,,,,,2015_Sep_28_1414,G,facesParametric,13,59.6982567209,
./stim/MorphF3_08_orig.jpg,111,,,,,,,,,0,111,111,111,,,,,,,,,,,,,,,-21.97265625,-11.54296875,1,0,0,1.22205710411,,,,,2015_Sep_28_1414,G,facesParametric,13,59.6982567209,
./stim/MorphM6_05_orig.jpg,112,,,,,,,,,0,112,112,112,,,,,,,,,,,,,,,-21.97265625,-11.54296875,1,0,0,1.25575900078,,,,,2015_Sep_28_1414,G,facesParametric,13,59.6982567209,
./stim/MorphF9_03_orig.jpg,113,,,,,,,,,0,113,113,113,,,,,,,,,,,,,,,-21.97265625,-11.54296875,0,0,1,0.752994060516,,,,,2015_Sep_28_1414,G,facesParametric,13,59.6982567209,
./stim/MorphM3_08_orig.jpg,114,,,,,,,,,0,114,114,114,,,,,,,,,,,,,,,-21.97265625,-11.54296875,0,0,1,0.751178026199,,,,,2015_Sep_28_1414,G,facesParametric,13,59.6982567209,
./stim/MorphM9_06_orig.jpg,115,,,,,,,,,0,115,115,115,,,,,,,,,,,,,,,-21.97265625,-11.54296875,1,0,0,1.05484199524,,,,,2015_Sep_28_1414,G,facesParametric,13,59.6982567209,
./stim/MorphF1_07_orig.jpg,116,,,,,,,,,0,116,116,116,,,,,,,,,,,,,,,-21.650390625,-11.572265625,0,0,1,1.45662498474,,,,,2015_Sep_28_1414,G,facesParametric,13,59.6982567209,
./stim/MorphM9_01_orig.jpg,117,,,,,,,,,0,117,117,117,,,,,,,,,,,,,,,-21.650390625,-11.572265625,0,0,1,0.718106031418,,,,,2015_Sep_28_1414,G,facesParametric,13,59.6982567209,
./stim/MorphM5_08_orig.jpg,118,,,,,,,,,0,118,118,118,,,,,,,,,,,,,,,-21.650390625,-11.572265625,1,0,0,0.901196956635,,,,,2015_Sep_28_1414,G,facesParametric,13,59.6982567209,
./stim/MorphF6_01_orig.jpg,119,,,,,,,,,0,119,119,119,,,,,,,,,,,,,,,-21.884765625,-11.337890625,1,0,0,2.89839911461,,,,,2015_Sep_28_1414,G,facesParametric,13,59.6982567209,
./stim/MorphM1_01_orig.jpg,120,,,,,,,,,0,120,120,120,,,,,,,,,,,,,,,-21.884765625,-11.337890625,1,0,0,0.803092002869,,,,,2015_Sep_28_1414,G,facesParametric,13,59.6982567209,
./stim/MorphF4_08_orig.jpg,121,,,,,,,,,0,121,121,121,,,,,,,,,,,,,,,-15.966796875,-13.0078125,1,0,0,17.4796609879,,,,,2015_Sep_28_1414,G,facesParametric,13,59.6982567209,
./stim/MorphF9_07_orig.jpg,122,,,,,,,,,0,122,122,122,,,,,,,,,,,,,,,-15.908203125,-12.919921875,1,0,0,0.63529586792,,,,,2015_Sep_28_1414,G,facesParametric,13,59.6982567209,
./stim/MorphM1_10_orig.jpg,123,,,,,,,,,0,123,123,123,,,,,,,,,,,,,,,-15.9375,-12.744140625,1,0,0,1.25610089302,,,,,2015_Sep_28_1414,G,facesParametric,13,59.6982567209,
./stim/MorphF5_05_orig.jpg,124,,,,,,,,,0,124,124,124,,,,,,,,,,,,,,,-15.9375,-12.744140625,1,0,0,0.784973859787,,,,,2015_Sep_28_1414,G,facesParametric,13,59.6982567209,
./stim/MorphM2_09_orig.jpg,125,,,,,,,,,0,125,125,125,,,,,,,,,,,,,,,-15.8203125,-12.7734375,0,0,1,0.600310087204,,,,,2015_Sep_28_1414,G,facesParametric,13,59.6982567209,
./stim/MorphF4_06_orig.jpg,126,,,,,,,,,0,126,126,126,,,,,,,,,,,,,,,-15.791015625,-12.65625,0,0,1,0.401003837585,,,,,2015_Sep_28_1414,G,facesParametric,13,59.6982567209,
./stim/MorphM7_03_orig.jpg,127,,,,,,,,,0,127,127,127,,,,,,,,,,,,,,,-15.673828125,-12.1875,0,0,1,0.685893058777,,,,,2015_Sep_28_1414,G,facesParametric,13,59.6982567209,
./stim/MorphF3_10_orig.jpg,128,,,,,,,,,0,128,128,128,,,,,,,,,,,,,,,-15.673828125,-12.1875,0,0,1,1.13653206825,,,,,2015_Sep_28_1414,G,facesParametric,13,59.6982567209,
./stim/MorphF7_08_orig.jpg,129,,,,,,,,,0,129,129,129,,,,,,,,,,,,,,,-15.673828125,-12.1875,0,0,1,0.834889888763,,,,,2015_Sep_28_1414,G,facesParametric,13,59.6982567209,
./stim/MorphF2_04_orig.jpg,130,,,,,,,,,0,130,130,130,,,,,,,,,,,,,,,-16.552734375,-11.396484375,1,0,0,1.20583891869,,,,,2015_Sep_28_1414,G,facesParametric,13,59.6982567209,
./stim/MorphM1_09_orig.jpg,131,,,,,,,,,0,131,131,131,,,,,,,,,,,,,,,-16.58203125,-11.396484375,1,0,0,1.00428891182,,,,,2015_Sep_28_1414,G,facesParametric,13,59.6982567209,
./stim/MorphM7_10_orig.jpg,132,,,,,,,,,0,132,132,132,,,,,,,,,,,,,,,-16.23046875,-11.630859375,0,0,1,2.56288313866,,,,,2015_Sep_28_1414,G,facesParametric,13,59.6982567209,
./stim/MorphF7_01_orig.jpg,133,,,,,,,,,0,133,133,133,,,,,,,,,,,,,,,-16.845703125,-11.220703125,1,0,0,1.70841002464,,,,,2015_Sep_28_1414,G,facesParametric,13,59.6982567209,
./stim/MorphM4_07_orig.jpg,134,,,,,,,,,0,134,134,134,,,,,,,,,,,,,,,-16.875,-11.19140625,1,0,0,0.634123802185,,,,,2015_Sep_28_1414,G,facesParametric,13,59.6982567209,
./stim/MorphM8_03_orig.jpg,135,,,,,,,,,0,135,135,135,,,,,,,,,,,,,,,-16.5234375,-11.396484375,0,0,1,1.45662617683,,,,,2015_Sep_28_1414,G,facesParametric,13,59.6982567209,
./stim/MorphF10_01_orig.jpg,136,,,,,,,,,0,136,136,136,,,,,,,,,,,,,,,-16.552734375,-11.484375,0,0,1,0.937505960464,,,,,2015_Sep_28_1414,G,facesParametric,13,59.6982567209,
./stim/MorphF9_01_orig.jpg,137,,,,,,,,,0,137,137,137,,,,,,,,,,,,,,,-16.552734375,-11.484375,0,0,1,0.802839994431,,,,,2015_Sep_28_1414,G,facesParametric,13,59.6982567209,
./stim/MorphM7_01_orig.jpg,138,,,,,,,,,0,138,138,138,,,,,,,,,,,,,,,-18.603515625,-10.751953125,1,0,0,0.835844993591,,,,,2015_Sep_28_1414,G,facesParametric,13,59.6982567209,
./stim/MorphF2_02_orig.jpg,139,,,,,,,,,0,139,139,139,,,,,,,,,,,,,,,-18.6328125,-10.78125,1,0,0,0.350723981857,,,,,2015_Sep_28_1414,G,facesParametric,13,59.6982567209,
./stim/MorphF8_02_orig.jpg,140,,,,,,,,,0,140,140,140,,,,,,,,,,,,,,,-17.51953125,-11.19140625,0,0,1,1.20447683334,,,,,2015_Sep_28_1414,G,facesParametric,13,59.6982567209,
./stim/MorphM2_04_orig.jpg,141,,,,,,,,,0,141,141,141,,,,,,,,,,,,,,,-17.4609375,-11.220703125,0,0,1,1.1218149662,,,,,2015_Sep_28_1414,G,facesParametric,13,59.6982567209,
./stim/MorphF2_06_orig.jpg,142,,,,,,,,,0,142,142,142,,,,,,,,,,,,,,,-18.193359375,-10.78125,1,0,0,1.9594039917,,,,,2015_Sep_28_1414,G,facesParametric,13,59.6982567209,
./stim/MorphF7_05_orig.jpg,143,,,,,,,,,0,143,143,143,,,,,,,,,,,,,,,-16.435546875,-10.83984375,0,0,1,1.02123188972,,,,,2015_Sep_28_1414,G,facesParametric,13,59.6982567209,
./stim/MorphM1_04_orig.jpg,144,,,,,,,,,0,144,144,144,,,,,,,,,,,,,,,-20.0390625,-9.375,1,0,0,0.55199098587,,,,,2015_Sep_28_1414,G,facesParametric,13,59.6982567209,
./stim/MorphF4_07_orig.jpg,145,,,,,,,,,0,145,145,145,,,,,,,,,,,,,,,-18.1640625,-10.048828125,0,0,1,1.17164206505,,,,,2015_Sep_28_1414,G,facesParametric,13,59.6982567209,
./stim/MorphM10_08_orig.jpg,146,,,,,,,,,0,146,146,146,,,,,,,,,,,,,,,-18.1640625,-10.048828125,0,0,1,0.719063043594,,,,,2015_Sep_28_1414,G,facesParametric,13,59.6982567209,
./stim/MorphF9_05_orig.jpg,147,,,,,,,,,0,147,147,147,,,,,,,,,,,,,,,-18.1640625,-10.048828125,0,0,1,0.819592952728,,,,,2015_Sep_28_1414,G,facesParametric,13,59.6982567209,
./stim/MorphM7_05_orig.jpg,148,,,,,,,,,0,148,148,148,,,,,,,,,,,,,,,-17.841796875,-10.107421875,0,0,1,1.7918009758,,,,,2015_Sep_28_1414,G,facesParametric,13,59.6982567209,
./stim/MorphM5_09_orig.jpg,149,,,,,,,,,0,149,149,149,,,,,,,,,,,,,,,-21.181640625,-9.375,1,0,0,1.82537889481,,,,,2015_Sep_28_1414,G,facesParametric,13,59.6982567209,
./stim/MorphF7_02_orig.jpg,150,,,,,,,,,0,150,150,150,,,,,,,,,,,,,,,-19.658203125,-9.931640625,1,0,0,0.987802028656,,,,,2015_Sep_28_1414,G,facesParametric,13,59.6982567209,
./stim/MorphM2_10_orig.jpg,151,,,,,,,,,0,151,151,151,,,,,,,,,,,,,,,-19.833984375,-9.814453125,1,0,0,0.836786031723,,,,,2015_Sep_28_1414,G,facesParametric,13,59.6982567209,
./stim/MorphF5_03_orig.jpg,152,,,,,,,,,0,152,152,152,,,,,,,,,,,,,,,-19.892578125,-9.814453125,0,0,1,1.33744907379,,,,,2015_Sep_28_1414,G,facesParametric,13,59.6982567209,
./stim/MorphF6_06_orig.jpg,153,,,,,,,,,0,153,153,153,,,,,,,,,,,,,,,-20.21484375,-9.697265625,1,0,0,0.767780065536,,,,,2015_Sep_28_1414,G,facesParametric,13,59.6982567209,
./stim/MorphM10_00_orig.jpg,154,,,,,,,,,0,154,154,154,,,,,,,,,,,,,,,-20.21484375,-9.697265625,1,0,0,0.584566116333,,,,,2015_Sep_28_1414,G,facesParametric,13,59.6982567209,
./stim/MorphM8_00_orig.jpg,155,,,,,,,,,0,155,155,155,,,,,,,,,,,,,,,-20.21484375,-9.697265625,1,0,0,0.702779054642,,,,,2015_Sep_28_1414,G,facesParametric,13,59.6982567209,
./stim/MorphM3_07_orig.jpg,156,,,,,,,,,0,156,156,156,,,,,,,,,,,,,,,-20.2734375,-9.66796875,1,0,0,0.870059967041,,,,,2015_Sep_28_1414,G,facesParametric,13,59.6982567209,
./stim/MorphF4_02_orig.jpg,157,,,,,,,,,0,157,157,157,,,,,,,,,,,,,,,-20.302734375,-9.7265625,1,0,0,0.853582143784,,,,,2015_Sep_28_1414,G,facesParametric,13,59.6982567209,
./stim/MorphM10_04_orig.jpg,158,,,,,,,,,0,158,158,158,,,,,,,,,,,,,,,-20.302734375,-9.7265625,1,0,0,0.834924936295,,,,,2015_Sep_28_1414,G,facesParametric,13,59.6982567209,
./stim/MorphM5_10_orig.jpg,159,,,,,,,,,0,159,159,159,,,,,,,,,,,,,,,-20.244140625,-9.521484375,1,0,0,1.45694899559,,,,,2015_Sep_28_1414,G,facesParametric,13,59.6982567209,
./stim/MorphF5_06_orig.jpg,160,,,,,,,,,0,160,160,160,,,,,,,,,,,,,,,-20.33203125,-9.638671875,1,0,0,1.25398802757,,,,,2015_Sep_28_1414,G,facesParametric,13,59.6982567209,
./stim/MorphM4_05_orig.jpg,161,,,,,,,,,0,161,161,161,,,,,,,,,,,,,,,-20.21484375,-9.697265625,0,0,1,1.2221429348,,,,,2015_Sep_28_1414,G,facesParametric,13,59.6982567209,
./stim/MorphF6_09_orig.jpg,162,,,,,,,,,0,162,162,162,,,,,,,,,,,,,,,-21.650390625,-9.404296875,1,0,0,0.650289058685,,,,,2015_Sep_28_1414,G,facesParametric,13,59.6982567209,
./stim/MorphM9_02_orig.jpg,163,,,,,,,,,0,163,163,163,,,,,,,,,,,,,,,-21.73828125,-9.4921875,0,0,1,0.685588121414,,,,,2015_Sep_28_1414,G,facesParametric,13,59.6982567209,
./stim/MorphF7_06_orig.jpg,164,,,,,,,,,0,164,164,164,,,,,,,,,,,,,,,-23.0859375,-9.4921875,1,0,0,0.417777061462,,,,,2015_Sep_28_1414,G,facesParametric,13,59.6982567209,
./stim/MorphM6_00_orig.jpg,165,,,,,,,,,0,165,165,165,,,,,,,,,,,,,,,-21.591796875,-10.400390625,1,0,0,6.1646270752,,,,,2015_Sep_28_1414,G,facesParametric,13,59.6982567209,
./stim/MorphF4_01_orig.jpg,166,,,,,,,,,0,166,166,166,,,,,,,,,,,,,,,-21.357421875,-10.4296875,1,0,0,1.08633303642,,,,,2015_Sep_28_1414,G,facesParametric,13,59.6982567209,
./stim/MorphF8_06_orig.jpg,167,,,,,,,,,0,167,167,167,,,,,,,,,,,,,,,-21.26953125,-10.4296875,1,0,0,1.42310094833,,,,,2015_Sep_28_1414,G,facesParametric,13,59.6982567209,
./stim/MorphF5_01_orig.jpg,168,,,,,,,,,0,168,168,168,,,,,,,,,,,,,,,-21.26953125,-10.400390625,1,0,0,1.17196917534,,,,,2015_Sep_28_1414,G,facesParametric,13,59.6982567209,
./stim/MorphM6_02_orig.jpg,169,,,,,,,,,0,169,169,169,,,,,,,,,,,,,,,-21.123046875,-10.3125,1,0,0,1.00423812866,,,,,2015_Sep_28_1414,G,facesParametric,13,59.6982567209,
./stim/MorphF9_06_orig.jpg,170,,,,,,,,,0,170,170,170,,,,,,,,,,,,,,,-21.123046875,-10.3125,1,0,0,1.33957290649,,,,,2015_Sep_28_1414,G,facesParametric,13,59.6982567209,
./stim/MorphF5_07_orig.jpg,171,,,,,,,,,0,171,171,171,,,,,,,,,,,,,,,-20.859375,-10.283203125,1,0,0,1.28900885582,,,,,2015_Sep_28_1414,G,facesParametric,13,59.6982567209,
./stim/MorphF3_09_orig.jpg,172,,,,,,,,,0,172,172,172,,,,,,,,,,,,,,,-20.7421875,-10.283203125,1,0,0,1.170347929,,,,,2015_Sep_28_1414,G,facesParametric,13,59.6982567209,
./stim/MorphF7_07_orig.jpg,173,,,,,,,,,0,173,173,173,,,,,,,,,,,,,,,-20.712890625,-10.341796875,0,0,1,0.887017965317,,,,,2015_Sep_28_1414,G,facesParametric,13,59.6982567209,
./stim/MorphM3_01_orig.jpg,174,,,,,,,,,0,174,174,174,,,,,,,,,,,,,,,-20.771484375,-10.576171875,0,0,1,0.970744848251,,,,,2015_Sep_28_1414,G,facesParametric,13,59.6982567209,
./stim/MorphM6_04_orig.jpg,175,,,,,,,,,0,175,175,175,,,,,,,,,,,,,,,-20.771484375,-10.576171875,0,0,1,0.518131971359,,,,,2015_Sep_28_1414,G,facesParametric,13,59.6982567209,
./stim/MorphF2_09_orig.jpg,176,,,,,,,,,0,176,176,176,,,,,,,,,,,,,,,-21.416015625,-9.66796875,1,0,0,2.09374117851,,,,,2015_Sep_28_1414,G,facesParametric,13,59.6982567209,
./stim/MorphF5_10_orig.jpg,177,,,,,,,,,0,177,177,177,,,,,,,,,,,,,,,-21.328125,-9.521484375,1,0,0,2.71271491051,,,,,2015_Sep_28_1414,G,facesParametric,13,59.6982567209,
./stim/MorphF10_02_orig.jpg,178,,,,,,,,,0,178,178,178,,,,,,,,,,,,,,,-15.5859375,-12.890625,0,0,1,0.585305929184,,,,,2015_Sep_28_1414,G,facesParametric,13,59.6982567209,
./stim/MorphM7_06_orig.jpg,179,,,,,,,,,0,179,179,179,,,,,,,,,,,,,,,-16.845703125,-13.154296875,0,0,1,0.300442934036,,,,,2015_Sep_28_1414,G,facesParametric,13,59.6982567209,
./stim/MorphM10_06_orig.jpg,180,,,,,,,,,0,180,180,180,,,,,,,,,,,,,,,-21.5625,-8.056640625,1,0,0,2.66305804253,,,,,2015_Sep_28_1414,G,facesParametric,13,59.6982567209,
./stim/MorphF4_09_orig.jpg,181,,,,,,,,,0,181,181,181,,,,,,,,,,,,,,,-21.5625,-8.056640625,1,0,0,0.919085979462,,,,,2015_Sep_28_1414,G,facesParametric,13,59.6982567209,
./stim/MorphF3_00_orig.jpg,182,,,,,,,,,0,182,182,182,,,,,,,,,,,,,,,-21.5625,-8.056640625,1,0,0,0.720321178436,,,,,2015_Sep_28_1414,G,facesParametric,13,59.6982567209,
./stim/MorphM7_08_orig.jpg,183,,,,,,,,,0,183,183,183,,,,,,,,,,,,,,,-19.130859375,-9.755859375,0,0,1,0.734899997711,,,,,2015_Sep_28_1414,G,facesParametric,13,59.6982567209,
./stim/MorphM4_06_orig.jpg,184,,,,,,,,,0,184,184,184,,,,,,,,,,,,,,,-18.486328125,-11.044921875,0,0,1,6.44995689392,,,,,2015_Sep_28_1414,G,facesParametric,13,59.6982567209,
./stim/MorphM1_06_orig.jpg,185,,,,,,,,,0,185,185,185,,,,,,,,,,,,,,,-18.017578125,-10.751953125,0,0,1,0.718836069107,,,,,2015_Sep_28_1414,G,facesParametric,13,59.6982567209,
./stim/MorphF4_04_orig.jpg,186,,,,,,,,,0,186,186,186,,,,,,,,,,,,,,,-18.310546875,-11.103515625,0,0,1,2.5294110775,,,,,2015_Sep_28_1414,G,facesParametric,13,59.6982567209,
./stim/MorphM2_02_orig.jpg,187,,,,,,,,,0,187,187,187,,,,,,,,,,,,,,,-17.34375,-11.89453125,0,0,1,3.81916213036,,,,,2015_Sep_28_1414,G,facesParametric,13,59.6982567209,
./stim/MorphM10_02_orig.jpg,188,,,,,,,,,0,188,188,188,,,,,,,,,,,,,,,-17.28515625,-11.19140625,0,0,1,0.736088991165,,,,,2015_Sep_28_1414,G,facesParametric,13,59.6982567209,
./stim/MorphM5_04_orig.jpg,189,,,,,,,,,0,189,189,189,,,,,,,,,,,,,,,-17.138671875,-10.6640625,0,0,1,0.85368514061,,,,,2015_Sep_28_1414,G,facesParametric,13,59.6982567209,
./stim/MorphM1_07_orig.jpg,190,,,,,,,,,0,190,190,190,,,,,,,,,,,,,,,-17.080078125,-10.576171875,0,0,1,1.38998794556,,,,,2015_Sep_28_1414,G,facesParametric,13,59.6982567209,
./stim/MorphF8_03_orig.jpg,191,,,,,,,,,0,191,191,191,,,,,,,,,,,,,,,-19.8046875,-10.078125,0,0,1,2.4101600647,,,,,2015_Sep_28_1414,G,facesParametric,13,59.6982567209,
./stim/MorphM2_06_orig.jpg,192,,,,,,,,,0,192,192,192,,,,,,,,,,,,,,,-19.51171875,-10.01953125,0,0,1,0.736010074615,,,,,2015_Sep_28_1414,G,facesParametric,13,59.6982567209,
./stim/MorphF1_09_orig.jpg,193,,,,,,,,,0,193,193,193,,,,,,,,,,,,,,,-19.130859375,-9.84375,0,0,1,0.954018831253,,,,,2015_Sep_28_1414,G,facesParametric,13,59.6982567209,
./stim/MorphF9_00_orig.jpg,194,,,,,,,,,0,194,194,194,,,,,,,,,,,,,,,-19.130859375,-9.84375,0,0,1,0.786442041397,,,,,2015_Sep_28_1414,G,facesParametric,13,59.6982567209,
./stim/MorphM5_00_orig.jpg,195,,,,,,,,,0,195,195,195,,,,,,,,,,,,,,,-18.75,-9.7265625,0,0,1,2.89789390564,,,,,2015_Sep_28_1414,G,facesParametric,13,59.6982567209,
./stim/MorphF1_00_orig.jpg,196,,,,,,,,,0,196,196,196,,,,,,,,,,,,,,,-18.69140625,-9.755859375,0,0,1,1.00464892387,,,,,2015_Sep_28_1414,G,facesParametric,13,59.6982567209,
./stim/MorphF6_10_orig.jpg,197,,,,,,,,,0,197,197,197,,,,,,,,,,,,,,,-18.310546875,-9.7265625,1,0,0,3.95351696014,,,,,2015_Sep_28_1414,G,facesParametric,13,59.6982567209,
./stim/MorphF10_10_orig.jpg,198,,,,,,,,,0,198,198,198,,,,,,,,,,,,,,,-18.33984375,-9.43359375,1,0,0,0.987554073334,,,,,2015_Sep_28_1414,G,facesParametric,13,59.6982567209,
./stim/MorphM5_01_orig.jpg,199,,,,,,,,,0,199,199,199,,,,,,,,,,,,,,,-18.369140625,-9.169921875,1,0,0,7.5573079586,,,,,2015_Sep_28_1414,G,facesParametric,13,59.6982567209,
./stim/MorphF2_08_orig.jpg,200,,,,,,,,,0,200,200,200,,,,,,,,,,,,,,,-12.744140625,-10.4296875,0,0,1,1.79210114479,,,,,2015_Sep_28_1414,G,facesParametric,13,59.6982567209,
./stim/MorphF5_00_orig.jpg,201,,,,,,,,,0,201,201,201,,,,,,,,,,,,,,,-13.154296875,-12.275390625,0,0,1,1.80857396126,,,,,2015_Sep_28_1414,G,facesParametric,13,59.6982567209,
./stim/MorphM3_10_orig.jpg,202,,,,,,,,,0,202,202,202,,,,,,,,,,,,,,,-13.2421875,-12.5390625,0,0,1,2.42875790596,,,,,2015_Sep_28_1414,G,facesParametric,13,59.6982567209,
./stim/MorphF10_08_orig.jpg,203,,,,,,,,,0,203,203,203,,,,,,,,,,,,,,,-16.904296875,-7.67578125,1,0,0,0.885980129242,,,,,2015_Sep_28_1414,G,facesParametric,13,59.6982567209,
./stim/MorphM2_00_orig.jpg,204,,,,,,,,,0,204,204,204,,,,,,,,,,,,,,,-17.05078125,-7.705078125,1,0,0,2.14434909821,,,,,2015_Sep_28_1414,G,facesParametric,13,59.6982567209,
./stim/MorphM3_02_orig.jpg,205,,,,,,,,,0,205,205,205,,,,,,,,,,,,,,,-17.109375,-7.763671875,1,0,0,0.702613830566,,,,,2015_Sep_28_1414,G,facesParametric,13,59.6982567209,
./stim/MorphF6_08_orig.jpg,206,,,,,,,,,0,206,206,206,,,,,,,,,,,,,,,-17.138671875,-7.79296875,1,0,0,0.819535970688,,,,,2015_Sep_28_1414,G,facesParametric,13,59.6982567209,
./stim/MorphM10_05_orig.jpg,207,,,,,,,,,0,207,207,207,,,,,,,,,,,,,,,-17.138671875,-7.79296875,1,0,0,0.568463087082,,,,,2015_Sep_28_1414,G,facesParametric,13,59.6982567209,
./stim/MorphF7_03_orig.jpg,208,,,,,,,,,0,208,208,208,,,,,,,,,,,,,,,-14.033203125,-8.73046875,0,0,1,0.952355861664,,,,,2015_Sep_28_1414,G,facesParametric,13,59.6982567209,
./stim/MorphM8_01_orig.jpg,209,,,,,,,,,0,209,209,209,,,,,,,,,,,,,,,-14.033203125,-8.84765625,0,0,1,0.753412008286,,,,,2015_Sep_28_1414,G,facesParametric,13,59.6982567209,
./stim/MorphM5_02_orig.jpg,210,,,,,,,,,0,210,210,210,,,,,,,,,,,,,,,-14.091796875,-8.935546875,0,0,1,1.00451207161,,,,,2015_Sep_28_1414,G,facesParametric,13,59.6982567209,
./stim/MorphM9_04_orig.jpg,211,,,,,,,,,0,211,211,211,,,,,,,,,,,,,,,-21.15234375,-5.302734375,1,0,0,0.501319885254,,,,,2015_Sep_28_1414,G,facesParametric,13,59.6982567209,
./stim/MorphF2_03_orig.jpg,212,,,,,,,,,0,212,212,212,,,,,,,,,,,,,,,-19.16015625,-5.91796875,1,0,0,1.22239303589,,,,,2015_Sep_28_1414,G,facesParametric,13,59.6982567209,
./stim/MorphM9_08_orig.jpg,213,,,,,,,,,0,213,213,213,,,,,,,,,,,,,,,-18.955078125,-5.888671875,1,0,0,1.40620303154,,,,,2015_Sep_28_1414,G,facesParametric,13,59.6982567209,
./stim/MorphF3_04_orig.jpg,214,,,,,,,,,0,214,214,214,,,,,,,,,,,,,,,-20.068359375,-5.478515625,1,0,0,1.97656989098,,,,,2015_Sep_28_1414,G,facesParametric,13,59.6982567209,
./stim/MorphM9_10_orig.jpg,215,,,,,,,,,0,215,215,215,,,,,,,,,,,,,,,-19.6875,-6.15234375,1,0,0,2.17744898796,,,,,2015_Sep_28_1414,G,facesParametric,13,59.6982567209,
./stim/MorphM8_04_orig.jpg,216,,,,,,,,,0,216,216,216,,,,,,,,,,,,,,,-19.951171875,-6.005859375,1,0,0,1.08829712868,,,,,2015_Sep_28_1414,G,facesParametric,13,59.6982567209,
./stim/MorphM9_03_orig.jpg,217,,,,,,,,,0,217,217,217,,,,,,,,,,,,,,,-19.6875,-6.005859375,0,0,1,1.0207901001,,,,,2015_Sep_28_1414,G,facesParametric,13,59.6982567209,
./stim/MorphM1_08_orig.jpg,218,,,,,,,,,0,218,218,218,,,,,,,,,,,,,,,-19.775390625,-5.595703125,1,0,0,1.92620992661,,,,,2015_Sep_28_1414,G,facesParametric,13,59.6982567209,
./stim/MorphF10_05_orig.jpg,219,,,,,,,,,0,219,219,219,,,,,,,,,,,,,,,-19.8046875,-5.56640625,1,0,0,0.985853910446,,,,,2015_Sep_28_1414,G,facesParametric,13,59.6982567209,
,,,,,,,,,,,,,,,,,,,,,,,,,,,,,,,,,,,,return,8.77732110023,2015_Sep_28_1414,G,facesParametric,13,59.6982567209,
