img,num,basicLoop.thisRepN,basicLoop.thisTrialN,basicLoop.thisN,basicLoop.thisIndex,trials.thisRepN,trials.thisTrialN,trials.thisN,trials.thisIndex,trials2.thisRepN,trials2.thisTrialN,trials2.thisN,trials2.thisIndex,key_resp_2.keys,key_resp_2.rt,basicRating1.response,basicRating1.rt,basicRating2.response,basicRating2.rt,basicRating3.response,basicRating3.rt,basicRating4.response,basicRating4.rt,key_resp_3.keys,key_resp_3.rt,key_resp_4.keys,key_resp_4.rt,mouseResp.x,mouseResp.y,mouseResp.leftButton,mouseResp.midButton,mouseResp.rightButton,mouseResp.time,key_resp_5.keys,key_resp_5.rt,key_resp_7.keys,key_resp_7.rt,date,group,expName,participant,frameRate,
,,,,,,,,,,,,,,return,31.9504418373,,,,,,,,,,,,,,,,,,,,,,,2015_Oct_13_1942,G,facesParametric,14,59.6722673534,
./basicStim/23M_SA_C.jpg,,0,0,0,53,,,,,,,,,,,SAD,6.431,None,None,None,None,None,None,,,,,,,,,,,,,,,2015_Oct_13_1942,G,facesParametric,14,59.6722673534,
./basicStim/09F_SP_O.jpg,,0,1,1,40,,,,,,,,,,,None,None,None,None,SUP,1.661,None,None,,,,,,,,,,,,,,,2015_Oct_13_1942,G,facesParametric,14,59.6722673534,
./basicStim/21M_AN_O.jpg,,0,2,2,42,,,,,,,,,,,None,None,ANG,4.737,None,None,None,None,,,,,,,,,,,,,,,2015_Oct_13_1942,G,facesParametric,14,59.6722673534,
./basicStim/01F_FE_O.jpg,,0,3,3,2,,,,,,,,,,,None,None,None,None,DIS,3.756,None,None,,,,,,,,,,,,,,,2015_Oct_13_1942,G,facesParametric,14,59.6722673534,
./basicStim/28M_FE_O.jpg,,0,4,4,65,,,,,,,,,,,None,None,None,None,DIS,4.129,None,None,,,,,,,,,,,,,,,2015_Oct_13_1942,G,facesParametric,14,59.6722673534,
./basicStim/21M_SA_C.jpg,,0,5,5,46,,,,,,,,,,,SAD,6.389,None,None,None,None,None,None,,,,,,,,,,,,,,,2015_Oct_13_1942,G,facesParametric,14,59.6722673534,
./basicStim/06F_DI_O.jpg,,0,6,6,22,,,,,,,,,,,None,None,None,None,DIS,4.074,None,None,,,,,,,,,,,,,,,2015_Oct_13_1942,G,facesParametric,14,59.6722673534,
./basicStim/36M_SA_C.jpg,,0,7,7,81,,,,,,,,,,,SAD,5.353,None,None,None,None,None,None,,,,,,,,,,,,,,,2015_Oct_13_1942,G,facesParametric,14,59.6722673534,
./basicStim/36M_SP_O.jpg,,0,8,8,82,,,,,,,,,,,None,None,None,None,SUP,1.715,None,None,,,,,,,,,,,,,,,2015_Oct_13_1942,G,facesParametric,14,59.6722673534,
./basicStim/28M_NE_C.jpg,,0,9,9,69,,,,,,,,,,,None,None,None,None,None,None,NTR,2.099,,,,,,,,,,,,,,,2015_Oct_13_1942,G,facesParametric,14,59.6722673534,
./basicStim/09F_NE_C.jpg,,0,10,10,41,,,,,,,,,,,None,None,None,None,None,None,NTR,1.092,,,,,,,,,,,,,,,2015_Oct_13_1942,G,facesParametric,14,59.6722673534,
./basicStim/02F_FE_O.jpg,,0,11,11,9,,,,,,,,,,,None,None,FEA,6.186,None,None,None,None,,,,,,,,,,,,,,,2015_Oct_13_1942,G,facesParametric,14,59.6722673534,
./basicStim/09F_SA_C.jpg,,0,12,12,39,,,,,,,,,,,None,None,None,None,DIS,5.068,None,None,,,,,,,,,,,,,,,2015_Oct_13_1942,G,facesParametric,14,59.6722673534,
./basicStim/07F_AN_O.jpg,,0,13,13,28,,,,,,,,,,,None,None,ANG,3.253,None,None,None,None,,,,,,,,,,,,,,,2015_Oct_13_1942,G,facesParametric,14,59.6722673534,
./basicStim/23M_DI_O.jpg,,0,14,14,50,,,,,,,,,,,SAD,2.385,None,None,None,None,None,None,,,,,,,,,,,,,,,2015_Oct_13_1942,G,facesParametric,14,59.6722673534,
./basicStim/24M_DI_O.jpg,,0,15,15,57,,,,,,,,,,,None,None,None,None,DIS,1.998,None,None,,,,,,,,,,,,,,,2015_Oct_13_1942,G,facesParametric,14,59.6722673534,
./basicStim/36M_DI_O.jpg,,0,16,16,78,,,,,,,,,,,None,None,ANG,3.5,None,None,None,None,,,,,,,,,,,,,,,2015_Oct_13_1942,G,facesParametric,14,59.6722673534,
./basicStim/34M_FE_O.jpg,,0,17,17,72,,,,,,,,,,,None,None,FEA,3.191,None,None,None,None,,,,,,,,,,,,,,,2015_Oct_13_1942,G,facesParametric,14,59.6722673534,
./basicStim/06F_FE_O.jpg,,0,18,18,23,,,,,,,,,,,None,None,FEA,0.878,None,None,None,None,,,,,,,,,,,,,,,2015_Oct_13_1942,G,facesParametric,14,59.6722673534,
./basicStim/24M_HA_O.jpg,,0,19,19,59,,,,,,,,,,,HAP,2.067,None,None,None,None,None,None,,,,,,,,,,,,,,,2015_Oct_13_1942,G,facesParametric,14,59.6722673534,
./basicStim/24M_SA_C.jpg,,0,20,20,60,,,,,,,,,,,SAD,3.19,None,None,None,None,None,None,,,,,,,,,,,,,,,2015_Oct_13_1942,G,facesParametric,14,59.6722673534,
./basicStim/01F_HA_O.jpg,,0,21,21,3,,,,,,,,,,,HAP,2.736,None,None,None,None,None,None,,,,,,,,,,,,,,,2015_Oct_13_1942,G,facesParametric,14,59.6722673534,
./basicStim/28M_SA_C.jpg,,0,22,22,67,,,,,,,,,,,None,None,None,None,None,None,NTR,1.679,,,,,,,,,,,,,,,2015_Oct_13_1942,G,facesParametric,14,59.6722673534,
./basicStim/09F_HA_O.jpg,,0,23,23,38,,,,,,,,,,,HAP,1.461,None,None,None,None,None,None,,,,,,,,,,,,,,,2015_Oct_13_1942,G,facesParametric,14,59.6722673534,
./basicStim/23M_FE_O.jpg,,0,24,24,51,,,,,,,,,,,None,None,FEA,3.809,None,None,None,None,,,,,,,,,,,,,,,2015_Oct_13_1942,G,facesParametric,14,59.6722673534,
./basicStim/24M_FE_O.jpg,,0,25,25,58,,,,,,,,,,,None,None,FEA,3.832,None,None,None,None,,,,,,,,,,,,,,,2015_Oct_13_1942,G,facesParametric,14,59.6722673534,
./basicStim/02F_DI_O.jpg,,0,26,26,8,,,,,,,,,,,None,None,None,None,DIS,3.323,None,None,,,,,,,,,,,,,,,2015_Oct_13_1942,G,facesParametric,14,59.6722673534,
./basicStim/23M_NE_C.jpg,,0,27,27,55,,,,,,,,,,,None,None,None,None,None,None,NTR,1.055,,,,,,,,,,,,,,,2015_Oct_13_1942,G,facesParametric,14,59.6722673534,
./basicStim/01F_AN_O.jpg,,0,28,28,0,,,,,,,,,,,None,None,ANG,1.478,None,None,None,None,,,,,,,,,,,,,,,2015_Oct_13_1942,G,facesParametric,14,59.6722673534,
./basicStim/02F_SP_O.jpg,,0,29,29,12,,,,,,,,,,,None,None,None,None,SUP,0.874,None,None,,,,,,,,,,,,,,,2015_Oct_13_1942,G,facesParametric,14,59.6722673534,
./basicStim/02F_NE_C.jpg,,0,30,30,13,,,,,,,,,,,None,None,None,None,None,None,NTR,1.107,,,,,,,,,,,,,,,2015_Oct_13_1942,G,facesParametric,14,59.6722673534,
./basicStim/03F_SP_O.jpg,,0,31,31,19,,,,,,,,,,,None,None,None,None,SUP,3.29,None,None,,,,,,,,,,,,,,,2015_Oct_13_1942,G,facesParametric,14,59.6722673534,
./basicStim/28M_AN_O.jpg,,0,32,32,63,,,,,,,,,,,None,None,FEA,1.48,None,None,None,None,,,,,,,,,,,,,,,2015_Oct_13_1942,G,facesParametric,14,59.6722673534,
./basicStim/24M_NE_C.jpg,,0,33,33,62,,,,,,,,,,,None,None,None,None,None,None,NTR,3.553,,,,,,,,,,,,,,,2015_Oct_13_1942,G,facesParametric,14,59.6722673534,
./basicStim/09F_FE_O.jpg,,0,34,34,37,,,,,,,,,,,None,None,None,None,SUP,1.709,None,None,,,,,,,,,,,,,,,2015_Oct_13_1942,G,facesParametric,14,59.6722673534,
./basicStim/07F_SP_O.jpg,,0,35,35,33,,,,,,,,,,,None,None,None,None,SUP,1.259,None,None,,,,,,,,,,,,,,,2015_Oct_13_1942,G,facesParametric,14,59.6722673534,
./basicStim/21M_NE_C.jpg,,0,36,36,48,,,,,,,,,,,None,None,None,None,None,None,NTR,1.104,,,,,,,,,,,,,,,2015_Oct_13_1942,G,facesParametric,14,59.6722673534,
./basicStim/36M_AN_O.jpg,,0,37,37,77,,,,,,,,,,,None,None,ANG,3.024,None,None,None,None,,,,,,,,,,,,,,,2015_Oct_13_1942,G,facesParametric,14,59.6722673534,
./basicStim/03F_AN_O.jpg,,0,38,38,14,,,,,,,,,,,None,None,ANG,0.841,None,None,None,None,,,,,,,,,,,,,,,2015_Oct_13_1942,G,facesParametric,14,59.6722673534,
./basicStim/23M_AN_O.jpg,,0,39,39,49,,,,,,,,,,,None,None,ANG,0.759,None,None,None,None,,,,,,,,,,,,,,,2015_Oct_13_1942,G,facesParametric,14,59.6722673534,
./basicStim/03F_DI_O.jpg,,0,40,40,15,,,,,,,,,,,None,None,None,None,DIS,3.203,None,None,,,,,,,,,,,,,,,2015_Oct_13_1942,G,facesParametric,14,59.6722673534,
./basicStim/24M_AN_O.jpg,,0,41,41,56,,,,,,,,,,,None,None,ANG,2.096,None,None,None,None,,,,,,,,,,,,,,,2015_Oct_13_1942,G,facesParametric,14,59.6722673534,
./basicStim/34M_DI_O.jpg,,0,42,42,71,,,,,,,,,,,None,None,ANG,1.594,None,None,None,None,,,,,,,,,,,,,,,2015_Oct_13_1942,G,facesParametric,14,59.6722673534,
./basicStim/06F_HA_O.jpg,,0,43,43,24,,,,,,,,,,,HAP,1.532,None,None,None,None,None,None,,,,,,,,,,,,,,,2015_Oct_13_1942,G,facesParametric,14,59.6722673534,
./basicStim/36M_NE_C.jpg,,0,44,44,83,,,,,,,,,,,None,None,None,None,None,None,NTR,0.875,,,,,,,,,,,,,,,2015_Oct_13_1942,G,facesParametric,14,59.6722673534,
./basicStim/01F_SA_C.jpg,,0,45,45,4,,,,,,,,,,,SAD,2.386,None,None,None,None,None,None,,,,,,,,,,,,,,,2015_Oct_13_1942,G,facesParametric,14,59.6722673534,
./basicStim/01F_SP_O.jpg,,0,46,46,5,,,,,,,,,,,None,None,None,None,SUP,0.924,None,None,,,,,,,,,,,,,,,2015_Oct_13_1942,G,facesParametric,14,59.6722673534,
./basicStim/03F_SA_C.jpg,,0,47,47,18,,,,,,,,,,,None,None,None,None,None,None,NTR,1.728,,,,,,,,,,,,,,,2015_Oct_13_1942,G,facesParametric,14,59.6722673534,
./basicStim/34M_HA_O.jpg,,0,48,48,73,,,,,,,,,,,HAP,1.749,None,None,None,None,None,None,,,,,,,,,,,,,,,2015_Oct_13_1942,G,facesParametric,14,59.6722673534,
./basicStim/01F_DI_O.jpg,,0,49,49,1,,,,,,,,,,,None,None,ANG,2.571,None,None,None,None,,,,,,,,,,,,,,,2015_Oct_13_1942,G,facesParametric,14,59.6722673534,
./basicStim/36M_FE_O.jpg,,0,50,50,79,,,,,,,,,,,None,None,FEA,2.619,None,None,None,None,,,,,,,,,,,,,,,2015_Oct_13_1942,G,facesParametric,14,59.6722673534,
./basicStim/24M_SP_O.jpg,,0,51,51,61,,,,,,,,,,,None,None,None,None,SUP,1.917,None,None,,,,,,,,,,,,,,,2015_Oct_13_1942,G,facesParametric,14,59.6722673534,
./basicStim/03F_HA_O.jpg,,0,52,52,17,,,,,,,,,,,HAP,1.245,None,None,None,None,None,None,,,,,,,,,,,,,,,2015_Oct_13_1942,G,facesParametric,14,59.6722673534,
./basicStim/06F_SP_O.jpg,,0,53,53,26,,,,,,,,,,,None,None,FEA,2.618,None,None,None,None,,,,,,,,,,,,,,,2015_Oct_13_1942,G,facesParametric,14,59.6722673534,
./basicStim/21M_FE_O.jpg,,0,54,54,44,,,,,,,,,,,None,None,FEA,2.18,None,None,None,None,,,,,,,,,,,,,,,2015_Oct_13_1942,G,facesParametric,14,59.6722673534,
./basicStim/02F_HA_O.jpg,,0,55,55,10,,,,,,,,,,,HAP,1.346,None,None,None,None,None,None,,,,,,,,,,,,,,,2015_Oct_13_1942,G,facesParametric,14,59.6722673534,
./basicStim/21M_DI_O.jpg,,0,56,56,43,,,,,,,,,,,None,None,None,None,DIS,2.801,None,None,,,,,,,,,,,,,,,2015_Oct_13_1942,G,facesParametric,14,59.6722673534,
./basicStim/07F_NE_C.jpg,,0,57,57,34,,,,,,,,,,,None,None,None,None,None,None,NTR,1.144,,,,,,,,,,,,,,,2015_Oct_13_1942,G,facesParametric,14,59.6722673534,
./basicStim/03F_NE_C.jpg,,0,58,58,20,,,,,,,,,,,None,None,None,None,None,None,NTR,0.552,,,,,,,,,,,,,,,2015_Oct_13_1942,G,facesParametric,14,59.6722673534,
./basicStim/34M_AN_O.jpg,,0,59,59,70,,,,,,,,,,,None,None,ANG,1.752,None,None,None,None,,,,,,,,,,,,,,,2015_Oct_13_1942,G,facesParametric,14,59.6722673534,
./basicStim/34M_SA_C.jpg,,0,60,60,74,,,,,,,,,,,SAD,1.11,None,None,None,None,None,None,,,,,,,,,,,,,,,2015_Oct_13_1942,G,facesParametric,14,59.6722673534,
./basicStim/07F_FE_O.jpg,,0,61,61,30,,,,,,,,,,,None,None,FEA,2.62,None,None,None,None,,,,,,,,,,,,,,,2015_Oct_13_1942,G,facesParametric,14,59.6722673534,
./basicStim/07F_SA_C.jpg,,0,62,62,32,,,,,,,,,,,SAD,1.148,None,None,None,None,None,None,,,,,,,,,,,,,,,2015_Oct_13_1942,G,facesParametric,14,59.6722673534,
./basicStim/06F_NE_C.jpg,,0,63,63,27,,,,,,,,,,,None,None,None,None,None,None,NTR,1.009,,,,,,,,,,,,,,,2015_Oct_13_1942,G,facesParametric,14,59.6722673534,
./basicStim/07F_DI_O.jpg,,0,64,64,29,,,,,,,,,,,None,None,None,None,DIS,2.835,None,None,,,,,,,,,,,,,,,2015_Oct_13_1942,G,facesParametric,14,59.6722673534,
./basicStim/03F_FE_O.jpg,,0,65,65,16,,,,,,,,,,,None,None,FEA,1.533,None,None,None,None,,,,,,,,,,,,,,,2015_Oct_13_1942,G,facesParametric,14,59.6722673534,
./basicStim/28M_DI_O.jpg,,0,66,66,64,,,,,,,,,,,None,None,None,None,DIS,3.208,None,None,,,,,,,,,,,,,,,2015_Oct_13_1942,G,facesParametric,14,59.6722673534,
./basicStim/21M_HA_O.jpg,,0,67,67,45,,,,,,,,,,,HAP,3.828,None,None,None,None,None,None,,,,,,,,,,,,,,,2015_Oct_13_1942,G,facesParametric,14,59.6722673534,
./basicStim/07F_HA_O.jpg,,0,68,68,31,,,,,,,,,,,HAP,1.915,None,None,None,None,None,None,,,,,,,,,,,,,,,2015_Oct_13_1942,G,facesParametric,14,59.6722673534,
./basicStim/28M_HA_O.jpg,,0,69,69,66,,,,,,,,,,,HAP,1.6,None,None,None,None,None,None,,,,,,,,,,,,,,,2015_Oct_13_1942,G,facesParametric,14,59.6722673534,
./basicStim/34M_SP_O.jpg,,0,70,70,75,,,,,,,,,,,None,None,None,None,SUP,1.227,None,None,,,,,,,,,,,,,,,2015_Oct_13_1942,G,facesParametric,14,59.6722673534,
./basicStim/06F_AN_O.jpg,,0,71,71,21,,,,,,,,,,,None,None,ANG,1.414,None,None,None,None,,,,,,,,,,,,,,,2015_Oct_13_1942,G,facesParametric,14,59.6722673534,
./basicStim/34M_NE_C.jpg,,0,72,72,76,,,,,,,,,,,None,None,None,None,None,None,NTR,1.009,,,,,,,,,,,,,,,2015_Oct_13_1942,G,facesParametric,14,59.6722673534,
./basicStim/02F_AN_O.jpg,,0,73,73,7,,,,,,,,,,,None,None,ANG,1.464,None,None,None,None,,,,,,,,,,,,,,,2015_Oct_13_1942,G,facesParametric,14,59.6722673534,
./basicStim/06F_SA_C.jpg,,0,74,74,25,,,,,,,,,,,SAD,3.103,None,None,None,None,None,None,,,,,,,,,,,,,,,2015_Oct_13_1942,G,facesParametric,14,59.6722673534,
./basicStim/23M_HA_O.jpg,,0,75,75,52,,,,,,,,,,,HAP,2.201,None,None,None,None,None,None,,,,,,,,,,,,,,,2015_Oct_13_1942,G,facesParametric,14,59.6722673534,
./basicStim/36M_HA_O.jpg,,0,76,76,80,,,,,,,,,,,HAP,0.726,None,None,None,None,None,None,,,,,,,,,,,,,,,2015_Oct_13_1942,G,facesParametric,14,59.6722673534,
./basicStim/21M_SP_O.jpg,,0,77,77,47,,,,,,,,,,,None,None,None,None,SUP,1.76,None,None,,,,,,,,,,,,,,,2015_Oct_13_1942,G,facesParametric,14,59.6722673534,
./basicStim/09F_DI_O.jpg,,0,78,78,36,,,,,,,,,,,None,None,None,None,DIS,4.459,None,None,,,,,,,,,,,,,,,2015_Oct_13_1942,G,facesParametric,14,59.6722673534,
./basicStim/23M_SP_O.jpg,,0,79,79,54,,,,,,,,,,,None,None,None,None,SUP,2.838,None,None,,,,,,,,,,,,,,,2015_Oct_13_1942,G,facesParametric,14,59.6722673534,
./basicStim/01F_NE_C.jpg,,0,80,80,6,,,,,,,,,,,None,None,None,None,None,None,NTR,0.877,,,,,,,,,,,,,,,2015_Oct_13_1942,G,facesParametric,14,59.6722673534,
./basicStim/28M_SP_O.jpg,,0,81,81,68,,,,,,,,,,,None,None,None,None,SUP,1.847,None,None,,,,,,,,,,,,,,,2015_Oct_13_1942,G,facesParametric,14,59.6722673534,
./basicStim/02F_SA_C.jpg,,0,82,82,11,,,,,,,,,,,SAD,0.979,None,None,None,None,None,None,,,,,,,,,,,,,,,2015_Oct_13_1942,G,facesParametric,14,59.6722673534,
./basicStim/09F_AN_O.jpg,,0,83,83,35,,,,,,,,,,,None,None,ANG,0.995,None,None,None,None,,,,,,,,,,,,,,,2015_Oct_13_1942,G,facesParametric,14,59.6722673534,
,,,,,,,,,,,,,,,,,,,,,,,,return,3.85426902771,,,,,,,,,,,,,2015_Oct_13_1942,G,facesParametric,14,59.6722673534,
,,,,,,,,,,,,,,return,15.0483980179,,,,,,,,,,,,,,,,,,,,,,,2015_Oct_13_1942,G,facesParametric,14,59.6722673534,
,,,,,,,,,,,,,,,,,,,,,,,,return,8.7650821209,,,,,,,,,,,,,2015_Oct_13_1942,G,facesParametric,14,59.6722673534,
,,,,,,,,,,,,,,,,,,,,,,,,,,return,2.6307990551,,,,,,,,,,,2015_Oct_13_1942,G,facesParametric,14,59.6722673534,
./stim/MorphF4_06_orig.jpg,0,,,,,0,0,0,0,,,,,,,,,,,,,,,,,,,0.8203125,-12.421875,1,0,0,4.23022508621,,,,,2015_Oct_13_1942,G,facesParametric,14,59.6722673534,
./stim/MorphM8_10_orig.jpg,1,,,,,0,1,1,1,,,,,,,,,,,,,,,,,,,4.189453125,-12.333984375,1,0,0,3.03154611588,,,,,2015_Oct_13_1942,G,facesParametric,14,59.6722673534,
./stim/MorphF9_08_orig.jpg,2,,,,,0,2,2,2,,,,,,,,,,,,,,,,,,,4.16015625,-12.421875,0,0,1,2.46217703819,,,,,2015_Oct_13_1942,G,facesParametric,14,59.6722673534,
./stim/MorphM5_01_orig.jpg,3,,,,,0,3,3,3,,,,,,,,,,,,,,,,,,,3.955078125,-12.392578125,0,0,1,2.27714896202,,,,,2015_Oct_13_1942,G,facesParametric,14,59.6722673534,
./stim/MorphM1_06_orig.jpg,4,,,,,0,4,4,4,,,,,,,,,,,,,,,,,,,3.837890625,-12.48046875,1,0,0,1.27260708809,,,,,2015_Oct_13_1942,G,facesParametric,14,59.6722673534,
./stim/MorphF9_06_orig.jpg,5,,,,,0,5,5,5,,,,,,,,,,,,,,,,,,,3.515625,-12.509765625,0,0,1,1.53835296631,,,,,2015_Oct_13_1942,G,facesParametric,14,59.6722673534,
./stim/MorphF5_04_orig.jpg,6,,,,,0,6,6,6,,,,,,,,,,,,,,,,,,,3.076171875,-13.125,0,0,1,3.1001200676,,,,,2015_Oct_13_1942,G,facesParametric,14,59.6722673534,
./stim/MorphM5_06_orig.jpg,7,,,,,0,7,7,7,,,,,,,,,,,,,,,,,,,2.724609375,-13.154296875,1,0,0,4.33759188652,,,,,2015_Oct_13_1942,G,facesParametric,14,59.6722673534,
./stim/MorphM3_08_orig.jpg,8,,,,,0,8,8,8,,,,,,,,,,,,,,,,,,,2.6953125,-13.154296875,1,0,0,1.22107410431,,,,,2015_Oct_13_1942,G,facesParametric,14,59.6722673534,
./stim/MorphF10_08_orig.jpg,9,,,,,0,9,9,9,,,,,,,,,,,,,,,,,,,2.6953125,-13.154296875,1,0,0,0.887315988541,,,,,2015_Oct_13_1942,G,facesParametric,14,59.6722673534,
./stim/MorphM5_09_orig.jpg,10,,,,,0,10,10,10,,,,,,,,,,,,,,,,,,,3.046875,-13.095703125,1,0,0,6.93711709976,,,,,2015_Oct_13_1942,G,facesParametric,14,59.6722673534,
./stim/MorphM10_00_orig.jpg,11,,,,,0,11,11,11,,,,,,,,,,,,,,,,,,,3.193359375,-13.154296875,0,0,1,2.69722890854,,,,,2015_Oct_13_1942,G,facesParametric,14,59.6722673534,
./stim/MorphF3_08_orig.jpg,12,,,,,0,12,12,12,,,,,,,,,,,,,,,,,,,2.548828125,-13.0078125,1,0,0,1.65573811531,,,,,2015_Oct_13_1942,G,facesParametric,14,59.6722673534,
./stim/MorphF8_03_orig.jpg,13,,,,,0,13,13,13,,,,,,,,,,,,,,,,,,,2.2265625,-12.919921875,0,0,1,1.12191605568,,,,,2015_Oct_13_1942,G,facesParametric,14,59.6722673534,
./stim/MorphM5_00_orig.jpg,14,,,,,0,14,14,14,,,,,,,,,,,,,,,,,,,2.2265625,-12.890625,0,0,1,4.55750989914,,,,,2015_Oct_13_1942,G,facesParametric,14,59.6722673534,
./stim/MorphF4_08_orig.jpg,15,,,,,0,15,15,15,,,,,,,,,,,,,,,,,,,2.2265625,-12.890625,1,0,0,4.42303800583,,,,,2015_Oct_13_1942,G,facesParametric,14,59.6722673534,
./stim/MorphF2_09_orig.jpg,16,,,,,0,16,16,16,,,,,,,,,,,,,,,,,,,2.138671875,-12.919921875,1,0,0,1.92616081238,,,,,2015_Oct_13_1942,G,facesParametric,14,59.6722673534,
./stim/MorphM6_08_orig.jpg,17,,,,,0,17,17,17,,,,,,,,,,,,,,,,,,,2.109375,-12.890625,0,0,1,1.90918803215,,,,,2015_Oct_13_1942,G,facesParametric,14,59.6722673534,
./stim/MorphM7_01_orig.jpg,18,,,,,0,18,18,18,,,,,,,,,,,,,,,,,,,2.109375,-12.890625,0,0,1,2.12625718117,,,,,2015_Oct_13_1942,G,facesParametric,14,59.6722673534,
./stim/MorphM8_08_orig.jpg,19,,,,,0,19,19,19,,,,,,,,,,,,,,,,,,,2.109375,-12.83203125,1,0,0,1.15337586403,,,,,2015_Oct_13_1942,G,facesParametric,14,59.6722673534,
./stim/MorphF10_07_orig.jpg,20,,,,,0,20,20,20,,,,,,,,,,,,,,,,,,,1.611328125,-12.744140625,1,0,0,1.62237501144,,,,,2015_Oct_13_1942,G,facesParametric,14,59.6722673534,
./stim/MorphM1_08_orig.jpg,21,,,,,0,21,21,21,,,,,,,,,,,,,,,,,,,1.611328125,-12.744140625,1,0,0,1.38964080811,,,,,2015_Oct_13_1942,G,facesParametric,14,59.6722673534,
./stim/MorphM2_08_orig.jpg,22,,,,,0,22,22,22,,,,,,,,,,,,,,,,,,,1.611328125,-12.744140625,0,0,1,3.13260197639,,,,,2015_Oct_13_1942,G,facesParametric,14,59.6722673534,
./stim/MorphF6_09_orig.jpg,23,,,,,0,23,23,23,,,,,,,,,,,,,,,,,,,1.46484375,-12.744140625,1,0,0,1.70864391327,,,,,2015_Oct_13_1942,G,facesParametric,14,59.6722673534,
./stim/MorphF9_04_orig.jpg,24,,,,,0,24,24,24,,,,,,,,,,,,,,,,,,,1.40625,-12.71484375,0,0,1,1.33961796761,,,,,2015_Oct_13_1942,G,facesParametric,14,59.6722673534,
./stim/MorphM10_02_orig.jpg,25,,,,,0,25,25,25,,,,,,,,,,,,,,,,,,,1.083984375,-12.568359375,0,0,1,2.64670205116,,,,,2015_Oct_13_1942,G,facesParametric,14,59.6722673534,
./stim/MorphM2_03_orig.jpg,26,,,,,0,26,26,26,,,,,,,,,,,,,,,,,,,0.908203125,-12.568359375,0,0,1,2.12705898285,,,,,2015_Oct_13_1942,G,facesParametric,14,59.6722673534,
./stim/MorphF1_07_orig.jpg,27,,,,,0,27,27,27,,,,,,,,,,,,,,,,,,,0.64453125,-12.568359375,0,0,1,1.82543706894,,,,,2015_Oct_13_1942,G,facesParametric,14,59.6722673534,
./stim/MorphF7_07_orig.jpg,28,,,,,0,28,28,28,,,,,,,,,,,,,,,,,,,-1.58203125,-12.509765625,1,0,0,2.96480107307,,,,,2015_Oct_13_1942,G,facesParametric,14,59.6722673534,
./stim/MorphF2_08_orig.jpg,29,,,,,0,29,29,29,,,,,,,,,,,,,,,,,,,-1.58203125,-12.509765625,1,0,0,1.1554248333,,,,,2015_Oct_13_1942,G,facesParametric,14,59.6722673534,
./stim/MorphM10_01_orig.jpg,30,,,,,0,30,30,30,,,,,,,,,,,,,,,,,,,-1.40625,-12.59765625,0,0,1,1.47225594521,,,,,2015_Oct_13_1942,G,facesParametric,14,59.6722673534,
./stim/MorphM4_04_orig.jpg,31,,,,,0,31,31,31,,,,,,,,,,,,,,,,,,,-1.552734375,-12.626953125,1,0,0,2.59634017944,,,,,2015_Oct_13_1942,G,facesParametric,14,59.6722673534,
./stim/MorphF9_03_orig.jpg,32,,,,,0,32,32,32,,,,,,,,,,,,,,,,,,,-1.640625,-12.685546875,0,0,1,3.58372497559,,,,,2015_Oct_13_1942,G,facesParametric,14,59.6722673534,
./stim/MorphF1_05_orig.jpg,33,,,,,0,33,33,33,,,,,,,,,,,,,,,,,,,-1.259765625,-12.83203125,1,0,0,4.25562000275,,,,,2015_Oct_13_1942,G,facesParametric,14,59.6722673534,
./stim/MorphM1_05_orig.jpg,34,,,,,0,34,34,34,,,,,,,,,,,,,,,,,,,-1.46484375,-12.59765625,1,0,0,5.34489798546,,,,,2015_Oct_13_1942,G,facesParametric,14,59.6722673534,
./stim/MorphF3_01_orig.jpg,35,,,,,0,35,35,35,,,,,,,,,,,,,,,,,,,-1.46484375,-12.59765625,0,0,1,1.3049929142,,,,,2015_Oct_13_1942,G,facesParametric,14,59.6722673534,
./stim/MorphF4_10_orig.jpg,36,,,,,0,36,36,36,,,,,,,,,,,,,,,,,,,-1.7578125,-12.392578125,1,0,0,1.18854904175,,,,,2015_Oct_13_1942,G,facesParametric,14,59.6722673534,
./stim/MorphM1_04_orig.jpg,37,,,,,0,37,37,37,,,,,,,,,,,,,,,,,,,-1.7578125,-12.392578125,1,0,0,3.80352187157,,,,,2015_Oct_13_1942,G,facesParametric,14,59.6722673534,
./stim/MorphM4_00_orig.jpg,38,,,,,0,38,38,38,,,,,,,,,,,,,,,,,,,-2.63671875,-12.568359375,0,0,1,5.29367208481,,,,,2015_Oct_13_1942,G,facesParametric,14,59.6722673534,
./stim/MorphF9_05_orig.jpg,39,,,,,0,39,39,39,,,,,,,,,,,,,,,,,,,-1.787109375,-12.568359375,0,0,1,2.6123919487,,,,,2015_Oct_13_1942,G,facesParametric,14,59.6722673534,
./stim/MorphF2_07_orig.jpg,40,,,,,0,40,40,40,,,,,,,,,,,,,,,,,,,2.40234375,-13.154296875,1,0,0,8.68045401573,,,,,2015_Oct_13_1942,G,facesParametric,14,59.6722673534,
./stim/MorphM3_10_orig.jpg,41,,,,,0,41,41,41,,,,,,,,,,,,,,,,,,,2.373046875,-13.154296875,1,0,0,1.55627083778,,,,,2015_Oct_13_1942,G,facesParametric,14,59.6722673534,
./stim/MorphM1_00_orig.jpg,42,,,,,0,42,42,42,,,,,,,,,,,,,,,,,,,0.380859375,-13.125,0,0,1,5.27813792229,,,,,2015_Oct_13_1942,G,facesParametric,14,59.6722673534,
./stim/MorphF10_10_orig.jpg,43,,,,,0,43,43,43,,,,,,,,,,,,,,,,,,,0.380859375,-13.125,1,0,0,1.03778886795,,,,,2015_Oct_13_1942,G,facesParametric,14,59.6722673534,
./stim/MorphF9_00_orig.jpg,44,,,,,0,44,44,44,,,,,,,,,,,,,,,,,,,0.3515625,-13.095703125,0,0,1,2.01023411751,,,,,2015_Oct_13_1942,G,facesParametric,14,59.6722673534,
./stim/MorphM9_09_orig.jpg,45,,,,,0,45,45,45,,,,,,,,,,,,,,,,,,,0.41015625,-13.06640625,1,0,0,1.20526790619,,,,,2015_Oct_13_1942,G,facesParametric,14,59.6722673534,
./stim/MorphM10_08_orig.jpg,46,,,,,0,46,46,46,,,,,,,,,,,,,,,,,,,0.29296875,-12.919921875,1,0,0,1.02120614052,,,,,2015_Oct_13_1942,G,facesParametric,14,59.6722673534,
./stim/MorphF8_02_orig.jpg,47,,,,,0,47,47,47,,,,,,,,,,,,,,,,,,,0.263671875,-12.890625,0,0,1,1.87620282173,,,,,2015_Oct_13_1942,G,facesParametric,14,59.6722673534,
./stim/MorphM9_00_orig.jpg,48,,,,,0,48,48,48,,,,,,,,,,,,,,,,,,,0.263671875,-12.890625,0,0,1,1.90867209435,,,,,2015_Oct_13_1942,G,facesParametric,14,59.6722673534,
./stim/MorphF4_09_orig.jpg,49,,,,,0,49,49,49,,,,,,,,,,,,,,,,,,,-0.17578125,-12.421875,1,0,0,4.97674894333,,,,,2015_Oct_13_1942,G,facesParametric,14,59.6722673534,
./stim/MorphF9_07_orig.jpg,50,,,,,0,50,50,50,,,,,,,,,,,,,,,,,,,-0.17578125,-12.421875,1,0,0,1.60751080513,,,,,2015_Oct_13_1942,G,facesParametric,14,59.6722673534,
./stim/MorphM9_07_orig.jpg,51,,,,,0,51,51,51,,,,,,,,,,,,,,,,,,,-0.17578125,-12.451171875,1,0,0,0.986843109131,,,,,2015_Oct_13_1942,G,facesParametric,14,59.6722673534,
./stim/MorphM3_04_orig.jpg,52,,,,,0,52,52,52,,,,,,,,,,,,,,,,,,,-0.17578125,-12.451171875,1,0,0,0.868078947067,,,,,2015_Oct_13_1942,G,facesParametric,14,59.6722673534,
./stim/MorphM9_08_orig.jpg,53,,,,,0,53,53,53,,,,,,,,,,,,,,,,,,,-0.17578125,-12.451171875,1,0,0,1.05427479744,,,,,2015_Oct_13_1942,G,facesParametric,14,59.6722673534,
./stim/MorphM6_09_orig.jpg,54,,,,,0,54,54,54,,,,,,,,,,,,,,,,,,,-0.205078125,-12.421875,1,0,0,2.47803497314,,,,,2015_Oct_13_1942,G,facesParametric,14,59.6722673534,
./stim/MorphF2_04_orig.jpg,55,,,,,0,55,55,55,,,,,,,,,,,,,,,,,,,-0.205078125,-12.421875,1,0,0,3.01361298561,,,,,2015_Oct_13_1942,G,facesParametric,14,59.6722673534,
./stim/MorphF8_04_orig.jpg,56,,,,,0,56,56,56,,,,,,,,,,,,,,,,,,,-0.17578125,-12.392578125,0,0,1,1.27256894112,,,,,2015_Oct_13_1942,G,facesParametric,14,59.6722673534,
./stim/MorphM5_07_orig.jpg,57,,,,,0,57,57,57,,,,,,,,,,,,,,,,,,,-0.146484375,-12.333984375,1,0,0,1.82544207573,,,,,2015_Oct_13_1942,G,facesParametric,14,59.6722673534,
./stim/MorphF5_10_orig.jpg,58,,,,,0,58,58,58,,,,,,,,,,,,,,,,,,,-0.17578125,-12.3046875,1,0,0,1.86036801338,,,,,2015_Oct_13_1942,G,facesParametric,14,59.6722673534,
./stim/MorphF1_00_orig.jpg,59,,,,,0,59,59,59,,,,,,,,,,,,,,,,,,,-0.17578125,-12.3046875,0,0,1,1.08655309677,,,,,2015_Oct_13_1942,G,facesParametric,14,59.6722673534,
./stim/MorphM10_10_orig.jpg,60,,,,,0,60,60,60,,,,,,,,,,,,,,,,,,,-0.087890625,-12.3046875,1,0,0,0.971206903458,,,,,2015_Oct_13_1942,G,facesParametric,14,59.6722673534,
./stim/MorphF3_05_orig.jpg,61,,,,,0,61,61,61,,,,,,,,,,,,,,,,,,,-0.087890625,-12.3046875,0,0,1,1.15473008156,,,,,2015_Oct_13_1942,G,facesParametric,14,59.6722673534,
./stim/MorphF4_02_orig.jpg,62,,,,,0,62,62,62,,,,,,,,,,,,,,,,,,,-0.087890625,-12.3046875,0,0,1,1.62296700478,,,,,2015_Oct_13_1942,G,facesParametric,14,59.6722673534,
./stim/MorphM5_03_orig.jpg,63,,,,,0,63,63,63,,,,,,,,,,,,,,,,,,,-0.1171875,-12.24609375,1,0,0,1.3900551796,,,,,2015_Oct_13_1942,G,facesParametric,14,59.6722673534,
./stim/MorphF8_08_orig.jpg,64,,,,,0,64,64,64,,,,,,,,,,,,,,,,,,,-0.17578125,-11.865234375,1,0,0,1.1361811161,,,,,2015_Oct_13_1942,G,facesParametric,14,59.6722673534,
./stim/MorphM2_02_orig.jpg,65,,,,,0,65,65,65,,,,,,,,,,,,,,,,,,,-0.908203125,-12.158203125,0,0,1,2.84700202942,,,,,2015_Oct_13_1942,G,facesParametric,14,59.6722673534,
./stim/MorphF2_02_orig.jpg,66,,,,,0,66,66,66,,,,,,,,,,,,,,,,,,,-0.966796875,-12.158203125,0,0,1,1.90915393829,,,,,2015_Oct_13_1942,G,facesParametric,14,59.6722673534,
./stim/MorphF4_04_orig.jpg,67,,,,,0,67,67,67,,,,,,,,,,,,,,,,,,,-0.99609375,-12.1875,0,0,1,1.3556330204,,,,,2015_Oct_13_1942,G,facesParametric,14,59.6722673534,
./stim/MorphF1_03_orig.jpg,68,,,,,0,68,68,68,,,,,,,,,,,,,,,,,,,-1.083984375,-12.216796875,0,0,1,1.18856310844,,,,,2015_Oct_13_1942,G,facesParametric,14,59.6722673534,
./stim/MorphF9_10_orig.jpg,69,,,,,0,69,69,69,,,,,,,,,,,,,,,,,,,-1.2890625,-12.12890625,1,0,0,1.25585412979,,,,,2015_Oct_13_1942,G,facesParametric,14,59.6722673534,
./stim/MorphM8_04_orig.jpg,70,,,,,0,70,70,70,,,,,,,,,,,,,,,,,,,-1.2890625,-12.12890625,0,0,1,2.86209893227,,,,,2015_Oct_13_1942,G,facesParametric,14,59.6722673534,
./stim/MorphF6_08_orig.jpg,71,,,,,0,71,71,71,,,,,,,,,,,,,,,,,,,-1.318359375,-12.099609375,1,0,0,1.25565290451,,,,,2015_Oct_13_1942,G,facesParametric,14,59.6722673534,
./stim/MorphF8_10_orig.jpg,72,,,,,0,72,72,72,,,,,,,,,,,,,,,,,,,-1.318359375,-12.099609375,1,0,0,0.820029020309,,,,,2015_Oct_13_1942,G,facesParametric,14,59.6722673534,
./stim/MorphF2_10_orig.jpg,73,,,,,0,73,73,73,,,,,,,,,,,,,,,,,,,-1.318359375,-12.099609375,1,0,0,0.851793050766,,,,,2015_Oct_13_1942,G,facesParametric,14,59.6722673534,
./stim/MorphM3_06_orig.jpg,74,,,,,0,74,74,74,,,,,,,,,,,,,,,,,,,-1.318359375,-12.099609375,1,0,0,1.96002197266,,,,,2015_Oct_13_1942,G,facesParametric,14,59.6722673534,
./stim/MorphM9_03_orig.jpg,75,,,,,0,75,75,75,,,,,,,,,,,,,,,,,,,-1.318359375,-12.099609375,0,0,1,1.32090401649,,,,,2015_Oct_13_1942,G,facesParametric,14,59.6722673534,
./stim/MorphM5_04_orig.jpg,76,,,,,0,76,76,76,,,,,,,,,,,,,,,,,,,4.306640625,-12.041015625,0,0,1,10.5728662014,,,,,2015_Oct_13_1942,G,facesParametric,14,59.6722673534,
./stim/MorphF8_01_orig.jpg,77,,,,,0,77,77,77,,,,,,,,,,,,,,,,,,,4.482421875,-12.041015625,1,0,0,1.33871603012,,,,,2015_Oct_13_1942,G,facesParametric,14,59.6722673534,
./stim/MorphF7_03_orig.jpg,78,,,,,0,78,78,78,,,,,,,,,,,,,,,,,,,4.5703125,-11.953125,0,0,1,4.40523290634,,,,,2015_Oct_13_1942,G,facesParametric,14,59.6722673534,
./stim/MorphM8_07_orig.jpg,79,,,,,0,79,79,79,,,,,,,,,,,,,,,,,,,4.482421875,-12.041015625,1,0,0,1.47270917892,,,,,2015_Oct_13_1942,G,facesParametric,14,59.6722673534,
./stim/MorphF2_03_orig.jpg,80,,,,,0,80,80,80,,,,,,,,,,,,,,,,,,,20.068359375,-11.337890625,0,0,1,25.1382730007,,,,,2015_Oct_13_1942,G,facesParametric,14,59.6722673534,
./stim/MorphM9_06_orig.jpg,81,,,,,0,81,81,81,,,,,,,,,,,,,,,,,,,19.541015625,-11.42578125,0,0,1,1.49049401283,,,,,2015_Oct_13_1942,G,facesParametric,14,59.6722673534,
./stim/MorphM2_06_orig.jpg,82,,,,,0,82,82,82,,,,,,,,,,,,,,,,,,,19.16015625,-11.66015625,1,0,0,3.48463010788,,,,,2015_Oct_13_1942,G,facesParametric,14,59.6722673534,
./stim/MorphM6_04_orig.jpg,83,,,,,0,83,83,83,,,,,,,,,,,,,,,,,,,19.130859375,-11.689453125,0,0,1,0.969882011414,,,,,2015_Oct_13_1942,G,facesParametric,14,59.6722673534,
./stim/MorphM9_05_orig.jpg,84,,,,,0,84,84,84,,,,,,,,,,,,,,,,,,,18.75,-11.689453125,0,0,1,4.25627398491,,,,,2015_Oct_13_1942,G,facesParametric,14,59.6722673534,
./stim/MorphM7_09_orig.jpg,85,,,,,0,85,85,85,,,,,,,,,,,,,,,,,,,18.603515625,-11.806640625,1,0,0,0.970309972763,,,,,2015_Oct_13_1942,G,facesParametric,14,59.6722673534,
./stim/MorphM5_05_orig.jpg,86,,,,,0,86,86,86,,,,,,,,,,,,,,,,,,,12.041015625,-12.71484375,1,0,0,28.7585339546,,,,,2015_Oct_13_1942,G,facesParametric,14,59.6722673534,
./stim/MorphF5_02_orig.jpg,87,,,,,0,87,87,87,,,,,,,,,,,,,,,,,,,11.953125,-12.7734375,0,0,1,2.34299302101,,,,,2015_Oct_13_1942,G,facesParametric,14,59.6722673534,
./stim/MorphM4_07_orig.jpg,88,,,,,0,88,88,88,,,,,,,,,,,,,,,,,,,11.71875,-13.0078125,1,0,0,0.88703417778,,,,,2015_Oct_13_1942,G,facesParametric,14,59.6722673534,
./stim/MorphM9_10_orig.jpg,89,,,,,0,89,89,89,,,,,,,,,,,,,,,,,,,11.748046875,-13.037109375,1,0,0,3.93732404709,,,,,2015_Oct_13_1942,G,facesParametric,14,59.6722673534,
./stim/MorphM3_01_orig.jpg,90,,,,,0,90,90,90,,,,,,,,,,,,,,,,,,,11.748046875,-13.037109375,0,0,1,1.35620999336,,,,,2015_Oct_13_1942,G,facesParametric,14,59.6722673534,
./stim/MorphF8_07_orig.jpg,91,,,,,0,91,91,91,,,,,,,,,,,,,,,,,,,11.748046875,-13.037109375,1,0,0,0.719569921494,,,,,2015_Oct_13_1942,G,facesParametric,14,59.6722673534,
./stim/MorphF5_01_orig.jpg,92,,,,,0,92,92,92,,,,,,,,,,,,,,,,,,,11.748046875,-13.037109375,0,0,1,1.33760213852,,,,,2015_Oct_13_1942,G,facesParametric,14,59.6722673534,
./stim/MorphM4_05_orig.jpg,93,,,,,0,93,93,93,,,,,,,,,,,,,,,,,,,11.71875,-13.037109375,1,0,0,1.06941604614,,,,,2015_Oct_13_1942,G,facesParametric,14,59.6722673534,
./stim/MorphM6_07_orig.jpg,94,,,,,0,94,94,94,,,,,,,,,,,,,,,,,,,11.630859375,-13.037109375,0,0,1,2.41190600395,,,,,2015_Oct_13_1942,G,facesParametric,14,59.6722673534,
./stim/MorphM4_09_orig.jpg,95,,,,,0,95,95,95,,,,,,,,,,,,,,,,,,,12.421875,-13.125,1,0,0,5.26225090027,,,,,2015_Oct_13_1942,G,facesParametric,14,59.6722673534,
./stim/MorphM7_10_orig.jpg,96,,,,,0,96,96,96,,,,,,,,,,,,,,,,,,,12.421875,-13.125,1,0,0,0.635100126266,,,,,2015_Oct_13_1942,G,facesParametric,14,59.6722673534,
./stim/MorphF2_00_orig.jpg,97,,,,,0,97,97,97,,,,,,,,,,,,,,,,,,,12.421875,-13.154296875,0,0,1,1.47386193275,,,,,2015_Oct_13_1942,G,facesParametric,14,59.6722673534,
./stim/MorphM3_03_orig.jpg,98,,,,,0,98,98,98,,,,,,,,,,,,,,,,,,,12.3046875,-13.154296875,0,0,1,4.43925189972,,,,,2015_Oct_13_1942,G,facesParametric,14,59.6722673534,
./stim/MorphF5_07_orig.jpg,99,,,,,0,99,99,99,,,,,,,,,,,,,,,,,,,12.275390625,-13.154296875,1,0,0,1.67486810684,,,,,2015_Oct_13_1942,G,facesParametric,14,59.6722673534,
./stim/MorphF7_06_orig.jpg,100,,,,,0,100,100,100,,,,,,,,,,,,,,,,,,,12.24609375,-13.154296875,1,0,0,0.887177944183,,,,,2015_Oct_13_1942,G,facesParametric,14,59.6722673534,
./stim/MorphF1_10_orig.jpg,101,,,,,0,101,101,101,,,,,,,,,,,,,,,,,,,12.1875,-13.154296875,1,0,0,1.1044588089,,,,,2015_Oct_13_1942,G,facesParametric,14,59.6722673534,
./stim/MorphM10_04_orig.jpg,102,,,,,0,102,102,102,,,,,,,,,,,,,,,,,,,12.1875,-13.154296875,1,0,0,0.937327861786,,,,,2015_Oct_13_1942,G,facesParametric,14,59.6722673534,
./stim/MorphF10_05_orig.jpg,103,,,,,0,103,103,103,,,,,,,,,,,,,,,,,,,12.1875,-13.154296875,1,0,0,0.88692688942,,,,,2015_Oct_13_1942,G,facesParametric,14,59.6722673534,
./stim/MorphF5_09_orig.jpg,104,,,,,0,104,104,104,,,,,,,,,,,,,,,,,,,12.1875,-13.154296875,1,0,0,1.01967906952,,,,,2015_Oct_13_1942,G,facesParametric,14,59.6722673534,
./stim/MorphM2_05_orig.jpg,105,,,,,0,105,105,105,,,,,,,,,,,,,,,,,,,12.626953125,-13.154296875,1,0,0,4.07174706459,,,,,2015_Oct_13_1942,G,facesParametric,14,59.6722673534,
./stim/MorphM8_06_orig.jpg,106,,,,,0,106,106,106,,,,,,,,,,,,,,,,,,,13.154296875,-13.095703125,1,0,0,3.16602182388,,,,,2015_Oct_13_1942,G,facesParametric,14,59.6722673534,
./stim/MorphF9_09_orig.jpg,107,,,,,0,107,107,107,,,,,,,,,,,,,,,,,,,13.154296875,-13.095703125,1,0,0,0.820042133331,,,,,2015_Oct_13_1942,G,facesParametric,14,59.6722673534,
./stim/MorphM1_10_orig.jpg,108,,,,,0,108,108,108,,,,,,,,,,,,,,,,,,,13.18359375,-13.125,1,0,0,1.13824987411,,,,,2015_Oct_13_1942,G,facesParametric,14,59.6722673534,
./stim/MorphF3_07_orig.jpg,109,,,,,0,109,109,109,,,,,,,,,,,,,,,,,,,13.18359375,-13.125,1,0,0,0.719140052795,,,,,2015_Oct_13_1942,G,facesParametric,14,59.6722673534,
./stim/MorphM1_01_orig.jpg,110,,,,,0,110,110,110,,,,,,,,,,,,,,,,,,,13.18359375,-13.125,0,0,1,1.45627093315,,,,,2015_Oct_13_1942,G,facesParametric,14,59.6722673534,
./stim/MorphM2_04_orig.jpg,111,,,,,0,111,111,111,,,,,,,,,,,,,,,,,,,12.099609375,-12.83203125,0,0,1,15.484858036,,,,,2015_Oct_13_1942,G,facesParametric,14,59.6722673534,
./stim/MorphF5_03_orig.jpg,112,,,,,0,112,112,112,,,,,,,,,,,,,,,,,,,11.25,-12.861328125,0,0,1,2.37793207169,,,,,2015_Oct_13_1942,G,facesParametric,14,59.6722673534,
./stim/MorphF1_09_orig.jpg,113,,,,,0,113,113,113,,,,,,,,,,,,,,,,,,,11.162109375,-12.890625,1,0,0,2.46065688133,,,,,2015_Oct_13_1942,G,facesParametric,14,59.6722673534,
./stim/MorphM4_03_orig.jpg,114,,,,,0,114,114,114,,,,,,,,,,,,,,,,,,,11.1328125,-12.919921875,0,0,1,1.28946614265,,,,,2015_Oct_13_1942,G,facesParametric,14,59.6722673534,
./stim/MorphM1_07_orig.jpg,115,,,,,0,115,115,115,,,,,,,,,,,,,,,,,,,11.513671875,-12.978515625,0,0,1,3.95421910286,,,,,2015_Oct_13_1942,G,facesParametric,14,59.6722673534,
./stim/MorphM8_01_orig.jpg,116,,,,,0,116,116,116,,,,,,,,,,,,,,,,,,,11.484375,-12.94921875,0,0,1,3.95512390137,,,,,2015_Oct_13_1942,G,facesParametric,14,59.6722673534,
./stim/MorphM4_02_orig.jpg,117,,,,,0,117,117,117,,,,,,,,,,,,,,,,,,,11.1328125,-12.861328125,0,0,1,3.34948086739,,,,,2015_Oct_13_1942,G,facesParametric,14,59.6722673534,
./stim/MorphF5_06_orig.jpg,118,,,,,0,118,118,118,,,,,,,,,,,,,,,,,,,11.07421875,-12.83203125,1,0,0,3.23258304596,,,,,2015_Oct_13_1942,G,facesParametric,14,59.6722673534,
./stim/MorphF9_02_orig.jpg,119,,,,,0,119,119,119,,,,,,,,,,,,,,,,,,,11.044921875,-12.802734375,0,0,1,1.59096598625,,,,,2015_Oct_13_1942,G,facesParametric,14,59.6722673534,
./stim/MorphM1_09_orig.jpg,120,,,,,0,120,120,120,,,,,,,,,,,,,,,,,,,11.044921875,-12.802734375,1,0,0,1.4568259716,,,,,2015_Oct_13_1942,G,facesParametric,14,59.6722673534,
./stim/MorphF1_06_orig.jpg,121,,,,,0,121,121,121,,,,,,,,,,,,,,,,,,,11.044921875,-12.802734375,0,0,1,1.54039597511,,,,,2015_Oct_13_1942,G,facesParametric,14,59.6722673534,
./stim/MorphM5_08_orig.jpg,122,,,,,0,122,122,122,,,,,,,,,,,,,,,,,,,7.96875,-11.77734375,1,0,0,5.94937396049,,,,,2015_Oct_13_1942,G,facesParametric,14,59.6722673534,
./stim/MorphF9_01_orig.jpg,123,,,,,0,123,123,123,,,,,,,,,,,,,,,,,,,7.998046875,-11.77734375,0,0,1,2.93071293831,,,,,2015_Oct_13_1942,G,facesParametric,14,59.6722673534,
./stim/MorphM6_00_orig.jpg,124,,,,,0,124,124,124,,,,,,,,,,,,,,,,,,,8.056640625,-11.77734375,0,0,1,5.73062205315,,,,,2015_Oct_13_1942,G,facesParametric,14,59.6722673534,
./stim/MorphM1_03_orig.jpg,125,,,,,0,125,125,125,,,,,,,,,,,,,,,,,,,8.291015625,-11.748046875,1,0,0,8.42954492569,,,,,2015_Oct_13_1942,G,facesParametric,14,59.6722673534,
./stim/MorphM7_02_orig.jpg,126,,,,,0,126,126,126,,,,,,,,,,,,,,,,,,,8.291015625,-11.748046875,1,0,0,3.16471815109,,,,,2015_Oct_13_1942,G,facesParametric,14,59.6722673534,
./stim/MorphM8_05_orig.jpg,127,,,,,0,127,127,127,,,,,,,,,,,,,,,,,,,8.37890625,-10.78125,0,0,1,9.90483403206,,,,,2015_Oct_13_1942,G,facesParametric,14,59.6722673534,
./stim/MorphF3_02_orig.jpg,128,,,,,0,128,128,128,,,,,,,,,,,,,,,,,,,8.61328125,-10.6640625,0,0,1,1.25471711159,,,,,2015_Oct_13_1942,G,facesParametric,14,59.6722673534,
./stim/MorphF7_09_orig.jpg,129,,,,,0,129,129,129,,,,,,,,,,,,,,,,,,,8.5546875,-10.634765625,1,0,0,1.08808398247,,,,,2015_Oct_13_1942,G,facesParametric,14,59.6722673534,
./stim/MorphM4_08_orig.jpg,130,,,,,0,130,130,130,,,,,,,,,,,,,,,,,,,8.5546875,-10.634765625,1,0,0,1.37321710587,,,,,2015_Oct_13_1942,G,facesParametric,14,59.6722673534,
./stim/MorphM5_10_orig.jpg,131,,,,,0,131,131,131,,,,,,,,,,,,,,,,,,,8.525390625,-10.546875,1,0,0,3.66944384575,,,,,2015_Oct_13_1942,G,facesParametric,14,59.6722673534,
./stim/MorphF8_00_orig.jpg,132,,,,,0,132,132,132,,,,,,,,,,,,,,,,,,,8.525390625,-10.458984375,0,0,1,2.31119799614,,,,,2015_Oct_13_1942,G,facesParametric,14,59.6722673534,
./stim/MorphF4_03_orig.jpg,133,,,,,0,133,133,133,,,,,,,,,,,,,,,,,,,8.525390625,-10.458984375,0,0,1,1.70709896088,,,,,2015_Oct_13_1942,G,facesParametric,14,59.6722673534,
./stim/MorphF5_00_orig.jpg,134,,,,,0,134,134,134,,,,,,,,,,,,,,,,,,,8.5546875,-10.458984375,0,0,1,3.98796510696,,,,,2015_Oct_13_1942,G,facesParametric,14,59.6722673534,
./stim/MorphF10_04_orig.jpg,135,,,,,0,135,135,135,,,,,,,,,,,,,,,,,,,8.5546875,-10.458984375,1,0,0,1.15475797653,,,,,2015_Oct_13_1942,G,facesParametric,14,59.6722673534,
./stim/MorphF6_01_orig.jpg,136,,,,,0,136,136,136,,,,,,,,,,,,,,,,,,,8.583984375,-10.4296875,1,0,0,2.09337306023,,,,,2015_Oct_13_1942,G,facesParametric,14,59.6722673534,
./stim/MorphM8_00_orig.jpg,137,,,,,0,137,137,137,,,,,,,,,,,,,,,,,,,8.583984375,-10.4296875,1,0,0,2.14459705353,,,,,2015_Oct_13_1942,G,facesParametric,14,59.6722673534,
./stim/MorphM7_03_orig.jpg,138,,,,,0,138,138,138,,,,,,,,,,,,,,,,,,,10.4296875,-9.990234375,1,0,0,14.093047142,,,,,2015_Oct_13_1942,G,facesParametric,14,59.6722673534,
./stim/MorphM6_05_orig.jpg,139,,,,,0,139,139,139,,,,,,,,,,,,,,,,,,,9.2578125,-9.638671875,0,0,1,4.94279193878,,,,,2015_Oct_13_1942,G,facesParametric,14,59.6722673534,
./stim/MorphF4_07_orig.jpg,140,,,,,0,140,140,140,,,,,,,,,,,,,,,,,,,9.08203125,-9.7265625,1,0,0,2.24476218224,,,,,2015_Oct_13_1942,G,facesParametric,14,59.6722673534,
./stim/MorphM8_03_orig.jpg,141,,,,,0,141,141,141,,,,,,,,,,,,,,,,,,,10.078125,-9.814453125,1,0,0,2.32787203789,,,,,2015_Oct_13_1942,G,facesParametric,14,59.6722673534,
./stim/MorphM10_06_orig.jpg,142,,,,,0,142,142,142,,,,,,,,,,,,,,,,,,,10.078125,-9.814453125,1,0,0,0.78629899025,,,,,2015_Oct_13_1942,G,facesParametric,14,59.6722673534,
./stim/MorphF3_00_orig.jpg,143,,,,,0,143,143,143,,,,,,,,,,,,,,,,,,,10.107421875,-9.78515625,0,0,1,2.24477601051,,,,,2015_Oct_13_1942,G,facesParametric,14,59.6722673534,
./stim/MorphM2_09_orig.jpg,144,,,,,0,144,144,144,,,,,,,,,,,,,,,,,,,10.224609375,-9.755859375,1,0,0,2.54639005661,,,,,2015_Oct_13_1942,G,facesParametric,14,59.6722673534,
./stim/MorphF8_09_orig.jpg,145,,,,,0,145,145,145,,,,,,,,,,,,,,,,,,,10.1953125,-9.78515625,1,0,0,1.99288487434,,,,,2015_Oct_13_1942,G,facesParametric,14,59.6722673534,
./stim/MorphM7_00_orig.jpg,146,,,,,0,146,146,146,,,,,,,,,,,,,,,,,,,10.1953125,-9.78515625,0,0,1,1.32280492783,,,,,2015_Oct_13_1942,G,facesParametric,14,59.6722673534,
./stim/MorphF7_05_orig.jpg,147,,,,,0,147,147,147,,,,,,,,,,,,,,,,,,,10.166015625,-9.755859375,1,0,0,5.96497511864,,,,,2015_Oct_13_1942,G,facesParametric,14,59.6722673534,
./stim/MorphF3_10_orig.jpg,148,,,,,0,148,148,148,,,,,,,,,,,,,,,,,,,10.166015625,-9.755859375,1,0,0,0.820013999939,,,,,2015_Oct_13_1942,G,facesParametric,14,59.6722673534,
./stim/MorphF10_06_orig.jpg,149,,,,,0,149,149,149,,,,,,,,,,,,,,,,,,,10.13671875,-9.78515625,1,0,0,0.700506925583,,,,,2015_Oct_13_1942,G,facesParametric,14,59.6722673534,
./stim/MorphF2_01_orig.jpg,150,,,,,0,150,150,150,,,,,,,,,,,,,,,,,,,10.13671875,-9.78515625,1,0,0,3.76875305176,,,,,2015_Oct_13_1942,G,facesParametric,14,59.6722673534,
./stim/MorphM2_07_orig.jpg,151,,,,,0,151,151,151,,,,,,,,,,,,,,,,,,,10.13671875,-9.78515625,1,0,0,2.1932079792,,,,,2015_Oct_13_1942,G,facesParametric,14,59.6722673534,
./stim/MorphF7_00_orig.jpg,152,,,,,0,152,152,152,,,,,,,,,,,,,,,,,,,10.13671875,-9.78515625,1,0,0,0.921889066696,,,,,2015_Oct_13_1942,G,facesParametric,14,59.6722673534,
./stim/MorphM7_05_orig.jpg,153,,,,,0,153,153,153,,,,,,,,,,,,,,,,,,,10.13671875,-9.78515625,1,0,0,2.27695202827,,,,,2015_Oct_13_1942,G,facesParametric,14,59.6722673534,
./stim/MorphF3_06_orig.jpg,154,,,,,0,154,154,154,,,,,,,,,,,,,,,,,,,10.13671875,-9.755859375,1,0,0,0.701128959656,,,,,2015_Oct_13_1942,G,facesParametric,14,59.6722673534,
./stim/MorphM3_09_orig.jpg,155,,,,,0,155,155,155,,,,,,,,,,,,,,,,,,,10.13671875,-9.755859375,1,0,0,1.23860883713,,,,,2015_Oct_13_1942,G,facesParametric,14,59.6722673534,
./stim/MorphF2_06_orig.jpg,156,,,,,0,156,156,156,,,,,,,,,,,,,,,,,,,10.13671875,-9.755859375,1,0,0,1.87400197983,,,,,2015_Oct_13_1942,G,facesParametric,14,59.6722673534,
./stim/MorphF1_01_orig.jpg,157,,,,,0,157,157,157,,,,,,,,,,,,,,,,,,,10.13671875,-9.755859375,0,0,1,1.08790898323,,,,,2015_Oct_13_1942,G,facesParametric,14,59.6722673534,
./stim/MorphF10_09_orig.jpg,158,,,,,0,158,158,158,,,,,,,,,,,,,,,,,,,10.13671875,-9.755859375,1,0,0,0.937080860138,,,,,2015_Oct_13_1942,G,facesParametric,14,59.6722673534,
./stim/MorphM5_02_orig.jpg,159,,,,,0,159,159,159,,,,,,,,,,,,,,,,,,,10.078125,-9.755859375,0,0,1,5.41213297844,,,,,2015_Oct_13_1942,G,facesParametric,14,59.6722673534,
./stim/MorphF7_08_orig.jpg,160,,,,,0,160,160,160,,,,,,,,,,,,,,,,,,,10.01953125,-9.814453125,1,0,0,1.80877709389,,,,,2015_Oct_13_1942,G,facesParametric,14,59.6722673534,
./stim/MorphM7_07_orig.jpg,161,,,,,0,161,161,161,,,,,,,,,,,,,,,,,,,10.01953125,-9.814453125,1,0,0,2.19175505638,,,,,2015_Oct_13_1942,G,facesParametric,14,59.6722673534,
./stim/MorphF1_04_orig.jpg,162,,,,,0,162,162,162,,,,,,,,,,,,,,,,,,,9.990234375,-9.84375,0,0,1,1.64092493057,,,,,2015_Oct_13_1942,G,facesParametric,14,59.6722673534,
./stim/MorphF7_10_orig.jpg,163,,,,,0,163,163,163,,,,,,,,,,,,,,,,,,,9.990234375,-9.84375,1,0,0,0.837386846542,,,,,2015_Oct_13_1942,G,facesParametric,14,59.6722673534,
./stim/MorphF4_05_orig.jpg,164,,,,,0,164,164,164,,,,,,,,,,,,,,,,,,,9.990234375,-9.873046875,0,0,1,1.65735197067,,,,,2015_Oct_13_1942,G,facesParametric,14,59.6722673534,
./stim/MorphF1_02_orig.jpg,165,,,,,0,165,165,165,,,,,,,,,,,,,,,,,,,9.931640625,-9.931640625,0,0,1,2.56341600418,,,,,2015_Oct_13_1942,G,facesParametric,14,59.6722673534,
./stim/MorphM8_02_orig.jpg,166,,,,,0,166,166,166,,,,,,,,,,,,,,,,,,,10.048828125,-9.990234375,1,0,0,2.7782740593,,,,,2015_Oct_13_1942,G,facesParametric,14,59.6722673534,
./stim/MorphF7_01_orig.jpg,167,,,,,0,167,167,167,,,,,,,,,,,,,,,,,,,10.078125,-10.01953125,1,0,0,0.719267129898,,,,,2015_Oct_13_1942,G,facesParametric,14,59.6722673534,
./stim/MorphF10_01_orig.jpg,168,,,,,0,168,168,168,,,,,,,,,,,,,,,,,,,10.078125,-10.01953125,1,0,0,0.703136920929,,,,,2015_Oct_13_1942,G,facesParametric,14,59.6722673534,
./stim/MorphM10_09_orig.jpg,169,,,,,0,169,169,169,,,,,,,,,,,,,,,,,,,10.078125,-10.01953125,1,0,0,1.70812296867,,,,,2015_Oct_13_1942,G,facesParametric,14,59.6722673534,
./stim/MorphM3_05_orig.jpg,170,,,,,0,170,170,170,,,,,,,,,,,,,,,,,,,10.107421875,-10.048828125,1,0,0,1.43837499619,,,,,2015_Oct_13_1942,G,facesParametric,14,59.6722673534,
./stim/MorphM7_08_orig.jpg,171,,,,,0,171,171,171,,,,,,,,,,,,,,,,,,,10.107421875,-10.048828125,1,0,0,0.953941106796,,,,,2015_Oct_13_1942,G,facesParametric,14,59.6722673534,
./stim/MorphM6_02_orig.jpg,172,,,,,0,172,172,172,,,,,,,,,,,,,,,,,,,10.107421875,-10.048828125,0,0,1,1.4888279438,,,,,2015_Oct_13_1942,G,facesParametric,14,59.6722673534,
./stim/MorphM3_07_orig.jpg,173,,,,,0,173,173,173,,,,,,,,,,,,,,,,,,,10.048828125,-10.078125,1,0,0,0.951878070831,,,,,2015_Oct_13_1942,G,facesParametric,14,59.6722673534,
./stim/MorphM6_10_orig.jpg,174,,,,,0,174,174,174,,,,,,,,,,,,,,,,,,,10.01953125,-10.01953125,1,0,0,1.6070599556,,,,,2015_Oct_13_1942,G,facesParametric,14,59.6722673534,
./stim/MorphM10_03_orig.jpg,175,,,,,0,175,175,175,,,,,,,,,,,,,,,,,,,10.01953125,-10.01953125,1,0,0,1.89039206505,,,,,2015_Oct_13_1942,G,facesParametric,14,59.6722673534,
./stim/MorphF3_03_orig.jpg,176,,,,,0,176,176,176,,,,,,,,,,,,,,,,,,,10.01953125,-10.01953125,0,0,1,1.62494397163,,,,,2015_Oct_13_1942,G,facesParametric,14,59.6722673534,
./stim/MorphF6_02_orig.jpg,177,,,,,0,177,177,177,,,,,,,,,,,,,,,,,,,10.01953125,-10.048828125,0,0,1,1.97583889961,,,,,2015_Oct_13_1942,G,facesParametric,14,59.6722673534,
./stim/MorphF7_02_orig.jpg,178,,,,,0,178,178,178,,,,,,,,,,,,,,,,,,,9.990234375,-10.078125,0,0,1,1.49039888382,,,,,2015_Oct_13_1942,G,facesParametric,14,59.6722673534,
./stim/MorphM10_07_orig.jpg,179,,,,,0,179,179,179,,,,,,,,,,,,,,,,,,,9.9609375,-10.048828125,1,0,0,0.853542089462,,,,,2015_Oct_13_1942,G,facesParametric,14,59.6722673534,
./stim/MorphM7_04_orig.jpg,180,,,,,0,180,180,180,,,,,,,,,,,,,,,,,,,9.9609375,-10.01953125,0,0,1,1.95773696899,,,,,2015_Oct_13_1942,G,facesParametric,14,59.6722673534,
./stim/MorphF6_04_orig.jpg,181,,,,,0,181,181,181,,,,,,,,,,,,,,,,,,,9.90234375,-9.9609375,0,0,1,2.1104259491,,,,,2015_Oct_13_1942,G,facesParametric,14,59.6722673534,
./stim/MorphM6_06_orig.jpg,182,,,,,0,182,182,182,,,,,,,,,,,,,,,,,,,9.90234375,-9.9609375,0,0,1,1.62430882454,,,,,2015_Oct_13_1942,G,facesParametric,14,59.6722673534,
./stim/MorphF3_04_orig.jpg,183,,,,,0,183,183,183,,,,,,,,,,,,,,,,,,,9.90234375,-9.9609375,0,0,1,1.84210109711,,,,,2015_Oct_13_1942,G,facesParametric,14,59.6722673534,
./stim/MorphF2_05_orig.jpg,184,,,,,0,184,184,184,,,,,,,,,,,,,,,,,,,9.931640625,-9.90234375,1,0,0,1.20579600334,,,,,2015_Oct_13_1942,G,facesParametric,14,59.6722673534,
./stim/MorphF6_07_orig.jpg,185,,,,,0,185,185,185,,,,,,,,,,,,,,,,,,,9.931640625,-9.90234375,1,0,0,0.819897174835,,,,,2015_Oct_13_1942,G,facesParametric,14,59.6722673534,
./stim/MorphM6_03_orig.jpg,186,,,,,0,186,186,186,,,,,,,,,,,,,,,,,,,9.931640625,-9.931640625,0,0,1,1.43977403641,,,,,2015_Oct_13_1942,G,facesParametric,14,59.6722673534,
./stim/MorphM7_06_orig.jpg,187,,,,,0,187,187,187,,,,,,,,,,,,,,,,,,,9.990234375,-9.931640625,1,0,0,2.83177399635,,,,,2015_Oct_13_1942,G,facesParametric,14,59.6722673534,
./stim/MorphF6_03_orig.jpg,188,,,,,0,188,188,188,,,,,,,,,,,,,,,,,,,10.01953125,-9.873046875,0,0,1,2.1247279644,,,,,2015_Oct_13_1942,G,facesParametric,14,59.6722673534,
./stim/MorphF4_01_orig.jpg,189,,,,,0,189,189,189,,,,,,,,,,,,,,,,,,,10.01953125,-9.873046875,0,0,1,1.23805880547,,,,,2015_Oct_13_1942,G,facesParametric,14,59.6722673534,
./stim/MorphF7_04_orig.jpg,190,,,,,0,190,190,190,,,,,,,,,,,,,,,,,,,10.01953125,-9.873046875,0,0,1,0.969138860703,,,,,2015_Oct_13_1942,G,facesParametric,14,59.6722673534,
./stim/MorphM2_00_orig.jpg,191,,,,,0,191,191,191,,,,,,,,,,,,,,,,,,,10.01953125,-9.873046875,0,0,1,0.818287134171,,,,,2015_Oct_13_1942,G,facesParametric,14,59.6722673534,
./stim/MorphM4_10_orig.jpg,192,,,,,0,192,192,192,,,,,,,,,,,,,,,,,,,9.9609375,-9.84375,1,0,0,1.32268404961,,,,,2015_Oct_13_1942,G,facesParametric,14,59.6722673534,
./stim/MorphM3_02_orig.jpg,193,,,,,0,193,193,193,,,,,,,,,,,,,,,,,,,9.931640625,-9.84375,0,0,1,1.49060893059,,,,,2015_Oct_13_1942,G,facesParametric,14,59.6722673534,
./stim/MorphM10_05_orig.jpg,194,,,,,0,194,194,194,,,,,,,,,,,,,,,,,,,9.931640625,-9.84375,1,0,0,1.1887178421,,,,,2015_Oct_13_1942,G,facesParametric,14,59.6722673534,
./stim/MorphM3_00_orig.jpg,195,,,,,0,195,195,195,,,,,,,,,,,,,,,,,,,9.931640625,-9.84375,0,0,1,1.10464286804,,,,,2015_Oct_13_1942,G,facesParametric,14,59.6722673534,
./stim/MorphM8_09_orig.jpg,196,,,,,0,196,196,196,,,,,,,,,,,,,,,,,,,9.84375,-9.931640625,1,0,0,1.79206800461,,,,,2015_Oct_13_1942,G,facesParametric,14,59.6722673534,
./stim/MorphF10_03_orig.jpg,197,,,,,0,197,197,197,,,,,,,,,,,,,,,,,,,9.84375,-9.931640625,1,0,0,0.937381982803,,,,,2015_Oct_13_1942,G,facesParametric,14,59.6722673534,
./stim/MorphM9_04_orig.jpg,198,,,,,0,198,198,198,,,,,,,,,,,,,,,,,,,10.048828125,-9.755859375,0,0,1,1.42299199104,,,,,2015_Oct_13_1942,G,facesParametric,14,59.6722673534,
./stim/MorphM6_01_orig.jpg,199,,,,,0,199,199,199,,,,,,,,,,,,,,,,,,,9.90234375,-9.4921875,0,0,1,0.887346029282,,,,,2015_Oct_13_1942,G,facesParametric,14,59.6722673534,
./stim/MorphM1_02_orig.jpg,200,,,,,0,200,200,200,,,,,,,,,,,,,,,,,,,9.638671875,-9.4921875,0,0,1,1.205327034,,,,,2015_Oct_13_1942,G,facesParametric,14,59.6722673534,
./stim/MorphF6_05_orig.jpg,201,,,,,0,201,201,201,,,,,,,,,,,,,,,,,,,9.609375,-9.521484375,0,0,1,0.869971036911,,,,,2015_Oct_13_1942,G,facesParametric,14,59.6722673534,
./stim/MorphM9_01_orig.jpg,202,,,,,0,202,202,202,,,,,,,,,,,,,,,,,,,9.580078125,-9.55078125,0,0,1,1.5062789917,,,,,2015_Oct_13_1942,G,facesParametric,14,59.6722673534,
./stim/MorphM4_06_orig.jpg,203,,,,,0,203,203,203,,,,,,,,,,,,,,,,,,,9.55078125,-9.580078125,1,0,0,0.968301057816,,,,,2015_Oct_13_1942,G,facesParametric,14,59.6722673534,
./stim/MorphF5_08_orig.jpg,204,,,,,0,204,204,204,,,,,,,,,,,,,,,,,,,9.375,-9.609375,1,0,0,0.818153858185,,,,,2015_Oct_13_1942,G,facesParametric,14,59.6722673534,
./stim/MorphF6_06_orig.jpg,205,,,,,0,205,205,205,,,,,,,,,,,,,,,,,,,9.375,-9.609375,1,0,0,0.970756053925,,,,,2015_Oct_13_1942,G,facesParametric,14,59.6722673534,
./stim/MorphF10_00_orig.jpg,206,,,,,0,206,206,206,,,,,,,,,,,,,,,,,,,9.345703125,-9.580078125,1,0,0,0.702347993851,,,,,2015_Oct_13_1942,G,facesParametric,14,59.6722673534,
./stim/MorphF3_09_orig.jpg,207,,,,,0,207,207,207,,,,,,,,,,,,,,,,,,,9.345703125,-9.580078125,1,0,0,0.803619146347,,,,,2015_Oct_13_1942,G,facesParametric,14,59.6722673534,
./stim/MorphF6_00_orig.jpg,208,,,,,0,208,208,208,,,,,,,,,,,,,,,,,,,9.345703125,-9.580078125,1,0,0,1.32266902924,,,,,2015_Oct_13_1942,G,facesParametric,14,59.6722673534,
./stim/MorphF5_05_orig.jpg,209,,,,,0,209,209,209,,,,,,,,,,,,,,,,,,,9.345703125,-9.580078125,1,0,0,2.37849998474,,,,,2015_Oct_13_1942,G,facesParametric,14,59.6722673534,
./stim/MorphF1_08_orig.jpg,210,,,,,0,210,210,210,,,,,,,,,,,,,,,,,,,9.31640625,-9.55078125,1,0,0,1.00454902649,,,,,2015_Oct_13_1942,G,facesParametric,14,59.6722673534,
./stim/MorphF8_06_orig.jpg,211,,,,,0,211,211,211,,,,,,,,,,,,,,,,,,,9.345703125,-9.521484375,1,0,0,1.84024596214,,,,,2015_Oct_13_1942,G,facesParametric,14,59.6722673534,
./stim/MorphF6_10_orig.jpg,212,,,,,0,212,212,212,,,,,,,,,,,,,,,,,,,9.345703125,-9.4921875,1,0,0,0.853229999542,,,,,2015_Oct_13_1942,G,facesParametric,14,59.6722673534,
./stim/MorphF4_00_orig.jpg,213,,,,,0,213,213,213,,,,,,,,,,,,,,,,,,,9.31640625,-9.462890625,0,0,1,1.5400121212,,,,,2015_Oct_13_1942,G,facesParametric,14,59.6722673534,
./stim/MorphM9_02_orig.jpg,214,,,,,0,214,214,214,,,,,,,,,,,,,,,,,,,9.31640625,-9.462890625,0,0,1,0.92068696022,,,,,2015_Oct_13_1942,G,facesParametric,14,59.6722673534,
./stim/MorphF8_05_orig.jpg,215,,,,,0,215,215,215,,,,,,,,,,,,,,,,,,,9.345703125,-9.43359375,0,0,1,2.64652204514,,,,,2015_Oct_13_1942,G,facesParametric,14,59.6722673534,
./stim/MorphM2_10_orig.jpg,216,,,,,0,216,216,216,,,,,,,,,,,,,,,,,,,9.228515625,-9.462890625,1,0,0,0.90412902832,,,,,2015_Oct_13_1942,G,facesParametric,14,59.6722673534,
./stim/MorphM4_01_orig.jpg,217,,,,,0,217,217,217,,,,,,,,,,,,,,,,,,,9.228515625,-9.462890625,1,0,0,0.769781112671,,,,,2015_Oct_13_1942,G,facesParametric,14,59.6722673534,
./stim/MorphM2_01_orig.jpg,218,,,,,0,218,218,218,,,,,,,,,,,,,,,,,,,9.228515625,-9.462890625,0,0,1,3.4844930172,,,,,2015_Oct_13_1942,G,facesParametric,14,59.6722673534,
./stim/MorphF10_02_orig.jpg,219,,,,,0,219,219,219,,,,,,,,,,,,,,,,,,,9.19921875,-9.43359375,1,0,0,0.869976043701,,,,,2015_Oct_13_1942,G,facesParametric,14,59.6722673534,
,,,,,,,,,,,,,,,,,,,,,,,,,,,,,,,,,,return,4.02232289314,,,2015_Oct_13_1942,G,facesParametric,14,59.6722673534,
./stim/MorphF3_09_orig.jpg,0,,,,,,,,,0,0,0,0,,,,,,,,,,,,,,,11.953125,-11.455078125,1,0,0,4.08844995499,,,,,2015_Oct_13_1942,G,facesParametric,14,59.6722673534,
./stim/MorphM8_02_orig.jpg,1,,,,,,,,,0,1,1,1,,,,,,,,,,,,,,,11.923828125,-11.30859375,0,0,1,1.12115311623,,,,,2015_Oct_13_1942,G,facesParametric,14,59.6722673534,
./stim/MorphM1_04_orig.jpg,2,,,,,,,,,0,2,2,2,,,,,,,,,,,,,,,11.865234375,-11.103515625,0,0,1,1.10464406013,,,,,2015_Oct_13_1942,G,facesParametric,14,59.6722673534,
./stim/MorphF2_03_orig.jpg,3,,,,,,,,,0,3,3,3,,,,,,,,,,,,,,,11.806640625,-11.044921875,1,0,0,1.22057509422,,,,,2015_Oct_13_1942,G,facesParametric,14,59.6722673534,
./stim/MorphM7_08_orig.jpg,4,,,,,,,,,0,4,4,4,,,,,,,,,,,,,,,11.77734375,-11.044921875,1,0,0,0.769302129745,,,,,2015_Oct_13_1942,G,facesParametric,14,59.6722673534,
./stim/MorphF5_05_orig.jpg,5,,,,,,,,,0,5,5,5,,,,,,,,,,,,,,,11.77734375,-11.015625,1,0,0,1.52379393578,,,,,2015_Oct_13_1942,G,facesParametric,14,59.6722673534,
./stim/MorphM8_01_orig.jpg,6,,,,,,,,,0,6,6,6,,,,,,,,,,,,,,,11.77734375,-10.986328125,0,0,1,1.69050383568,,,,,2015_Oct_13_1942,G,facesParametric,14,59.6722673534,
./stim/MorphF1_01_orig.jpg,7,,,,,,,,,0,7,7,7,,,,,,,,,,,,,,,11.748046875,-10.95703125,0,0,1,1.55679798126,,,,,2015_Oct_13_1942,G,facesParametric,14,59.6722673534,
./stim/MorphM6_06_orig.jpg,8,,,,,,,,,0,8,8,8,,,,,,,,,,,,,,,11.71875,-10.986328125,1,0,0,1.0866920948,,,,,2015_Oct_13_1942,G,facesParametric,14,59.6722673534,
./stim/MorphM2_04_orig.jpg,9,,,,,,,,,0,9,9,9,,,,,,,,,,,,,,,11.630859375,-10.869140625,0,0,1,1.08661198616,,,,,2015_Oct_13_1942,G,facesParametric,14,59.6722673534,
./stim/MorphF7_03_orig.jpg,10,,,,,,,,,0,10,10,10,,,,,,,,,,,,,,,11.54296875,-10.83984375,1,0,0,1.22217392921,,,,,2015_Oct_13_1942,G,facesParametric,14,59.6722673534,
./stim/MorphM5_05_orig.jpg,11,,,,,,,,,0,11,11,11,,,,,,,,,,,,,,,12.392578125,-7.5,1,0,0,24.8031589985,,,,,2015_Oct_13_1942,G,facesParametric,14,59.6722673534,
./stim/MorphF8_05_orig.jpg,12,,,,,,,,,0,12,12,12,,,,,,,,,,,,,,,13.154296875,-6.9140625,0,0,1,4.54038596153,,,,,2015_Oct_13_1942,G,facesParametric,14,59.6722673534,
./stim/MorphF9_05_orig.jpg,13,,,,,,,,,0,13,13,13,,,,,,,,,,,,,,,13.095703125,-6.884765625,0,0,1,1.20453715324,,,,,2015_Oct_13_1942,G,facesParametric,14,59.6722673534,
./stim/MorphM9_00_orig.jpg,14,,,,,,,,,0,14,14,14,,,,,,,,,,,,,,,12.919921875,-6.9140625,0,0,1,0.836509943008,,,,,2015_Oct_13_1942,G,facesParametric,14,59.6722673534,
./stim/MorphM7_10_orig.jpg,15,,,,,,,,,0,15,15,15,,,,,,,,,,,,,,,12.919921875,-6.9140625,1,0,0,0.701581954956,,,,,2015_Oct_13_1942,G,facesParametric,14,59.6722673534,
./stim/MorphF3_00_orig.jpg,16,,,,,,,,,0,16,16,16,,,,,,,,,,,,,,,12.890625,-6.85546875,0,0,1,1.02108716965,,,,,2015_Oct_13_1942,G,facesParametric,14,59.6722673534,
./stim/MorphM2_08_orig.jpg,17,,,,,,,,,0,17,17,17,,,,,,,,,,,,,,,13.0078125,-6.650390625,1,0,0,1.10516405106,,,,,2015_Oct_13_1942,G,facesParametric,14,59.6722673534,
./stim/MorphM5_08_orig.jpg,18,,,,,,,,,0,18,18,18,,,,,,,,,,,,,,,13.0078125,-6.650390625,1,0,0,1.4718170166,,,,,2015_Oct_13_1942,G,facesParametric,14,59.6722673534,
./stim/MorphF7_06_orig.jpg,19,,,,,,,,,0,19,19,19,,,,,,,,,,,,,,,13.037109375,-6.62109375,0,0,1,4.10435199738,,,,,2015_Oct_13_1942,G,facesParametric,14,59.6722673534,
./stim/MorphF8_08_orig.jpg,20,,,,,,,,,0,20,20,20,,,,,,,,,,,,,,,13.06640625,-6.62109375,1,0,0,1.8753349781,,,,,2015_Oct_13_1942,G,facesParametric,14,59.6722673534,
./stim/MorphM10_08_orig.jpg,21,,,,,,,,,0,21,21,21,,,,,,,,,,,,,,,13.06640625,-6.62109375,1,0,0,0.602430105209,,,,,2015_Oct_13_1942,G,facesParametric,14,59.6722673534,
./stim/MorphM5_03_orig.jpg,22,,,,,,,,,0,22,22,22,,,,,,,,,,,,,,,13.06640625,-6.5625,1,0,0,1.15514087677,,,,,2015_Oct_13_1942,G,facesParametric,14,59.6722673534,
./stim/MorphM1_09_orig.jpg,23,,,,,,,,,0,23,23,23,,,,,,,,,,,,,,,13.06640625,-6.533203125,1,0,0,1.35601902008,,,,,2015_Oct_13_1942,G,facesParametric,14,59.6722673534,
./stim/MorphF4_05_orig.jpg,24,,,,,,,,,0,24,24,24,,,,,,,,,,,,,,,13.06640625,-6.533203125,1,0,0,3.70171403885,,,,,2015_Oct_13_1942,G,facesParametric,14,59.6722673534,
./stim/MorphM7_06_orig.jpg,25,,,,,,,,,0,25,25,25,,,,,,,,,,,,,,,13.095703125,-6.533203125,1,0,0,0.802492856979,,,,,2015_Oct_13_1942,G,facesParametric,14,59.6722673534,
./stim/MorphF6_06_orig.jpg,26,,,,,,,,,0,26,26,26,,,,,,,,,,,,,,,13.125,-6.50390625,1,0,0,0.651278972626,,,,,2015_Oct_13_1942,G,facesParametric,14,59.6722673534,
./stim/MorphF5_04_orig.jpg,27,,,,,,,,,0,27,27,27,,,,,,,,,,,,,,,13.125,-6.50390625,0,0,1,1.47320413589,,,,,2015_Oct_13_1942,G,facesParametric,14,59.6722673534,
./stim/MorphM4_01_orig.jpg,28,,,,,,,,,0,28,28,28,,,,,,,,,,,,,,,13.125,-6.50390625,0,0,1,1.1869571209,,,,,2015_Oct_13_1942,G,facesParametric,14,59.6722673534,
./stim/MorphF6_01_orig.jpg,29,,,,,,,,,0,29,29,29,,,,,,,,,,,,,,,13.095703125,-6.474609375,1,0,0,0.971690893173,,,,,2015_Oct_13_1942,G,facesParametric,14,59.6722673534,
./stim/MorphM9_08_orig.jpg,30,,,,,,,,,0,30,30,30,,,,,,,,,,,,,,,13.06640625,-6.4453125,1,0,0,1.23850989342,,,,,2015_Oct_13_1942,G,facesParametric,14,59.6722673534,
./stim/MorphM2_02_orig.jpg,31,,,,,,,,,0,31,31,31,,,,,,,,,,,,,,,13.06640625,-6.4453125,0,0,1,0.986762046814,,,,,2015_Oct_13_1942,G,facesParametric,14,59.6722673534,
./stim/MorphF3_04_orig.jpg,32,,,,,,,,,0,32,32,32,,,,,,,,,,,,,,,13.037109375,-6.474609375,0,0,1,1.17157292366,,,,,2015_Oct_13_1942,G,facesParametric,14,59.6722673534,
./stim/MorphF10_10_orig.jpg,33,,,,,,,,,0,33,33,33,,,,,,,,,,,,,,,13.0078125,-6.50390625,1,0,0,0.837345123291,,,,,2015_Oct_13_1942,G,facesParametric,14,59.6722673534,
./stim/MorphF8_09_orig.jpg,34,,,,,,,,,0,34,34,34,,,,,,,,,,,,,,,13.0078125,-6.50390625,1,0,0,0.651566982269,,,,,2015_Oct_13_1942,G,facesParametric,14,59.6722673534,
./stim/MorphF1_03_orig.jpg,35,,,,,,,,,0,35,35,35,,,,,,,,,,,,,,,13.0078125,-6.50390625,0,0,1,1.32107591629,,,,,2015_Oct_13_1942,G,facesParametric,14,59.6722673534,
./stim/MorphM5_10_orig.jpg,36,,,,,,,,,0,36,36,36,,,,,,,,,,,,,,,13.0078125,-6.50390625,1,0,0,1.72322702408,,,,,2015_Oct_13_1942,G,facesParametric,14,59.6722673534,
./stim/MorphF7_04_orig.jpg,37,,,,,,,,,0,37,37,37,,,,,,,,,,,,,,,13.0078125,-6.50390625,0,0,1,2.74643111229,,,,,2015_Oct_13_1942,G,facesParametric,14,59.6722673534,
./stim/MorphF10_04_orig.jpg,38,,,,,,,,,0,38,38,38,,,,,,,,,,,,,,,13.0078125,-6.4453125,1,0,0,0.786394834518,,,,,2015_Oct_13_1942,G,facesParametric,14,59.6722673534,
./stim/MorphF3_02_orig.jpg,39,,,,,,,,,0,39,39,39,,,,,,,,,,,,,,,12.978515625,-6.38671875,0,0,1,2.02702689171,,,,,2015_Oct_13_1942,G,facesParametric,14,59.6722673534,
./stim/MorphM3_00_orig.jpg,40,,,,,,,,,0,40,40,40,,,,,,,,,,,,,,,12.978515625,-6.38671875,1,0,0,1.97634220123,,,,,2015_Oct_13_1942,G,facesParametric,14,59.6722673534,
./stim/MorphM8_09_orig.jpg,41,,,,,,,,,0,41,41,41,,,,,,,,,,,,,,,12.978515625,-6.38671875,1,0,0,1.35449409485,,,,,2015_Oct_13_1942,G,facesParametric,14,59.6722673534,
./stim/MorphM1_00_orig.jpg,42,,,,,,,,,0,42,42,42,,,,,,,,,,,,,,,12.83203125,-6.15234375,0,0,1,7.5405728817,,,,,2015_Oct_13_1942,G,facesParametric,14,59.6722673534,
./stim/MorphF7_00_orig.jpg,43,,,,,,,,,0,43,43,43,,,,,,,,,,,,,,,12.802734375,-6.123046875,0,0,1,1.65634703636,,,,,2015_Oct_13_1942,G,facesParametric,14,59.6722673534,
./stim/MorphF3_01_orig.jpg,44,,,,,,,,,0,44,44,44,,,,,,,,,,,,,,,12.7734375,-6.123046875,0,0,1,1.12168502808,,,,,2015_Oct_13_1942,G,facesParametric,14,59.6722673534,
./stim/MorphF8_02_orig.jpg,45,,,,,,,,,0,45,45,45,,,,,,,,,,,,,,,12.7734375,-6.123046875,0,0,1,0.802264928818,,,,,2015_Oct_13_1942,G,facesParametric,14,59.6722673534,
./stim/MorphF3_07_orig.jpg,46,,,,,,,,,0,46,46,46,,,,,,,,,,,,,,,12.7734375,-6.123046875,0,0,1,1.02116298676,,,,,2015_Oct_13_1942,G,facesParametric,14,59.6722673534,
./stim/MorphF4_02_orig.jpg,47,,,,,,,,,0,47,47,47,,,,,,,,,,,,,,,12.7734375,-6.123046875,0,0,1,1.13776803017,,,,,2015_Oct_13_1942,G,facesParametric,14,59.6722673534,
./stim/MorphF6_08_orig.jpg,48,,,,,,,,,0,48,48,48,,,,,,,,,,,,,,,12.744140625,-6.15234375,1,0,0,0.818064928055,,,,,2015_Oct_13_1942,G,facesParametric,14,59.6722673534,
./stim/MorphF2_04_orig.jpg,49,,,,,,,,,0,49,49,49,,,,,,,,,,,,,,,12.744140625,-6.15234375,1,0,0,0.85377907753,,,,,2015_Oct_13_1942,G,facesParametric,14,59.6722673534,
./stim/MorphF10_09_orig.jpg,50,,,,,,,,,0,50,50,50,,,,,,,,,,,,,,,12.744140625,-6.15234375,1,0,0,0.618777036667,,,,,2015_Oct_13_1942,G,facesParametric,14,59.6722673534,
./stim/MorphM4_04_orig.jpg,51,,,,,,,,,0,51,51,51,,,,,,,,,,,,,,,12.71484375,-6.181640625,1,0,0,0.719196081161,,,,,2015_Oct_13_1942,G,facesParametric,14,59.6722673534,
./stim/MorphM8_04_orig.jpg,52,,,,,,,,,0,52,52,52,,,,,,,,,,,,,,,12.71484375,-6.181640625,1,0,0,2.44594192505,,,,,2015_Oct_13_1942,G,facesParametric,14,59.6722673534,
./stim/MorphF4_08_orig.jpg,53,,,,,,,,,0,53,53,53,,,,,,,,,,,,,,,12.685546875,-6.2109375,1,0,0,1.06867003441,,,,,2015_Oct_13_1942,G,facesParametric,14,59.6722673534,
./stim/MorphF8_04_orig.jpg,54,,,,,,,,,0,54,54,54,,,,,,,,,,,,,,,12.685546875,-6.2109375,0,0,1,2.79797911644,,,,,2015_Oct_13_1942,G,facesParametric,14,59.6722673534,
./stim/MorphF9_06_orig.jpg,55,,,,,,,,,0,55,55,55,,,,,,,,,,,,,,,12.568359375,-6.240234375,1,0,0,1.70683598518,,,,,2015_Oct_13_1942,G,facesParametric,14,59.6722673534,
./stim/MorphM4_02_orig.jpg,56,,,,,,,,,0,56,56,56,,,,,,,,,,,,,,,12.568359375,-6.240234375,1,0,0,0.90391087532,,,,,2015_Oct_13_1942,G,facesParametric,14,59.6722673534,
./stim/MorphF2_01_orig.jpg,57,,,,,,,,,0,57,57,57,,,,,,,,,,,,,,,12.5390625,-6.2109375,0,0,1,3.48457598686,,,,,2015_Oct_13_1942,G,facesParametric,14,59.6722673534,
./stim/MorphM5_00_orig.jpg,58,,,,,,,,,0,58,58,58,,,,,,,,,,,,,,,12.5390625,-6.2109375,0,0,1,2.57768392563,,,,,2015_Oct_13_1942,G,facesParametric,14,59.6722673534,
./stim/MorphF8_06_orig.jpg,59,,,,,,,,,0,59,59,59,,,,,,,,,,,,,,,12.5390625,-6.2109375,1,0,0,10.2894179821,,,,,2015_Oct_13_1942,G,facesParametric,14,59.6722673534,
./stim/MorphF7_08_orig.jpg,60,,,,,,,,,0,60,60,60,,,,,,,,,,,,,,,12.5390625,-6.2109375,1,0,0,0.718709945679,,,,,2015_Oct_13_1942,G,facesParametric,14,59.6722673534,
./stim/MorphF8_03_orig.jpg,61,,,,,,,,,0,61,61,61,,,,,,,,,,,,,,,12.5390625,-6.2109375,0,0,1,0.986240148544,,,,,2015_Oct_13_1942,G,facesParametric,14,59.6722673534,
./stim/MorphM6_03_orig.jpg,62,,,,,,,,,0,62,62,62,,,,,,,,,,,,,,,12.5390625,-6.2109375,0,0,1,2.34484505653,,,,,2015_Oct_13_1942,G,facesParametric,14,59.6722673534,
./stim/MorphF1_04_orig.jpg,63,,,,,,,,,0,63,63,63,,,,,,,,,,,,,,,12.509765625,-6.240234375,0,0,1,1.18842601776,,,,,2015_Oct_13_1942,G,facesParametric,14,59.6722673534,
./stim/MorphF4_04_orig.jpg,64,,,,,,,,,0,64,64,64,,,,,,,,,,,,,,,12.5390625,-6.26953125,0,0,1,1.57423210144,,,,,2015_Oct_13_1942,G,facesParametric,14,59.6722673534,
./stim/MorphF5_00_orig.jpg,65,,,,,,,,,0,65,65,65,,,,,,,,,,,,,,,12.5390625,-6.26953125,0,0,1,2.99851107597,,,,,2015_Oct_13_1942,G,facesParametric,14,59.6722673534,
./stim/MorphF6_04_orig.jpg,66,,,,,,,,,0,66,66,66,,,,,,,,,,,,,,,12.5390625,-6.26953125,1,0,0,0.870553016663,,,,,2015_Oct_13_1942,G,facesParametric,14,59.6722673534,
./stim/MorphF5_09_orig.jpg,67,,,,,,,,,0,67,67,67,,,,,,,,,,,,,,,12.5390625,-6.26953125,1,0,0,0.919809818268,,,,,2015_Oct_13_1942,G,facesParametric,14,59.6722673534,
./stim/MorphF9_02_orig.jpg,68,,,,,,,,,0,68,68,68,,,,,,,,,,,,,,,12.509765625,-6.26953125,0,0,1,1.70714211464,,,,,2015_Oct_13_1942,G,facesParametric,14,59.6722673534,
./stim/MorphF7_01_orig.jpg,69,,,,,,,,,0,69,69,69,,,,,,,,,,,,,,,12.48046875,-6.298828125,1,0,0,0.885960817337,,,,,2015_Oct_13_1942,G,facesParametric,14,59.6722673534,
./stim/MorphF3_03_orig.jpg,70,,,,,,,,,0,70,70,70,,,,,,,,,,,,,,,12.451171875,-6.26953125,0,0,1,1.47189712524,,,,,2015_Oct_13_1942,G,facesParametric,14,59.6722673534,
./stim/MorphM1_05_orig.jpg,71,,,,,,,,,0,71,71,71,,,,,,,,,,,,,,,12.421875,-6.26953125,1,0,0,4.07149791718,,,,,2015_Oct_13_1942,G,facesParametric,14,59.6722673534,
./stim/MorphM2_01_orig.jpg,72,,,,,,,,,0,72,72,72,,,,,,,,,,,,,,,5.654296875,-6.357421875,0,0,1,10.9419271946,,,,,2015_Oct_13_1942,G,facesParametric,14,59.6722673534,
./stim/MorphF9_03_orig.jpg,73,,,,,,,,,0,73,73,73,,,,,,,,,,,,,,,5.5078125,-5.91796875,0,0,1,2.00917196274,,,,,2015_Oct_13_1942,G,facesParametric,14,59.6722673534,
./stim/MorphM6_02_orig.jpg,74,,,,,,,,,0,74,74,74,,,,,,,,,,,,,,,5.361328125,-6.03515625,0,0,1,2.66318106651,,,,,2015_Oct_13_1942,G,facesParametric,14,59.6722673534,
./stim/MorphF6_02_orig.jpg,75,,,,,,,,,0,75,75,75,,,,,,,,,,,,,,,5.302734375,-6.03515625,1,0,0,0.770080089569,,,,,2015_Oct_13_1942,G,facesParametric,14,59.6722673534,
./stim/MorphM3_02_orig.jpg,76,,,,,,,,,0,76,76,76,,,,,,,,,,,,,,,6.5625,-6.09375,0,0,1,5.37831711769,,,,,2015_Oct_13_1942,G,facesParametric,14,59.6722673534,
./stim/MorphF5_02_orig.jpg,77,,,,,,,,,0,77,77,77,,,,,,,,,,,,,,,6.38671875,-6.181640625,0,0,1,1.25558876991,,,,,2015_Oct_13_1942,G,facesParametric,14,59.6722673534,
./stim/MorphM3_03_orig.jpg,78,,,,,,,,,0,78,78,78,,,,,,,,,,,,,,,6.38671875,-6.2109375,0,0,1,1.55665183067,,,,,2015_Oct_13_1942,G,facesParametric,14,59.6722673534,
./stim/MorphM1_08_orig.jpg,79,,,,,,,,,0,79,79,79,,,,,,,,,,,,,,,6.357421875,-6.240234375,1,0,0,1.59055089951,,,,,2015_Oct_13_1942,G,facesParametric,14,59.6722673534,
./stim/MorphM7_07_orig.jpg,80,,,,,,,,,0,80,80,80,,,,,,,,,,,,,,,6.357421875,-6.240234375,1,0,0,1.13883399963,,,,,2015_Oct_13_1942,G,facesParametric,14,59.6722673534,
./stim/MorphM3_09_orig.jpg,81,,,,,,,,,0,81,81,81,,,,,,,,,,,,,,,6.357421875,-6.240234375,1,0,0,1.27233409882,,,,,2015_Oct_13_1942,G,facesParametric,14,59.6722673534,
./stim/MorphF1_02_orig.jpg,82,,,,,,,,,0,82,82,82,,,,,,,,,,,,,,,6.357421875,-6.240234375,0,0,1,0.970392942429,,,,,2015_Oct_13_1942,G,facesParametric,14,59.6722673534,
./stim/MorphM5_06_orig.jpg,83,,,,,,,,,0,83,83,83,,,,,,,,,,,,,,,5.7421875,-6.181640625,0,0,1,2.42781090736,,,,,2015_Oct_13_1942,G,facesParametric,14,59.6722673534,
./stim/MorphF1_08_orig.jpg,84,,,,,,,,,0,84,84,84,,,,,,,,,,,,,,,5.68359375,-6.240234375,1,0,0,1.99295091629,,,,,2015_Oct_13_1942,G,facesParametric,14,59.6722673534,
./stim/MorphM9_01_orig.jpg,85,,,,,,,,,0,85,85,85,,,,,,,,,,,,,,,5.654296875,-6.2109375,0,0,1,1.67408204079,,,,,2015_Oct_13_1942,G,facesParametric,14,59.6722673534,
./stim/MorphF2_10_orig.jpg,86,,,,,,,,,0,86,86,86,,,,,,,,,,,,,,,5.654296875,-6.2109375,1,0,0,0.885668039322,,,,,2015_Oct_13_1942,G,facesParametric,14,59.6722673534,
./stim/MorphF1_07_orig.jpg,87,,,,,,,,,0,87,87,87,,,,,,,,,,,,,,,5.625,-6.181640625,1,0,0,1.01962900162,,,,,2015_Oct_13_1942,G,facesParametric,14,59.6722673534,
./stim/MorphF2_05_orig.jpg,88,,,,,,,,,0,88,88,88,,,,,,,,,,,,,,,5.537109375,-6.09375,1,0,0,1.05490589142,,,,,2015_Oct_13_1942,G,facesParametric,14,59.6722673534,
./stim/MorphF9_00_orig.jpg,89,,,,,,,,,0,89,89,89,,,,,,,,,,,,,,,5.33203125,-6.03515625,0,0,1,2.89780497551,,,,,2015_Oct_13_1942,G,facesParametric,14,59.6722673534,
./stim/MorphM9_07_orig.jpg,90,,,,,,,,,0,90,90,90,,,,,,,,,,,,,,,5.302734375,-5.9765625,1,0,0,1.05444717407,,,,,2015_Oct_13_1942,G,facesParametric,14,59.6722673534,
./stim/MorphF2_07_orig.jpg,91,,,,,,,,,0,91,91,91,,,,,,,,,,,,,,,5.302734375,-5.9765625,1,0,0,0.887317180634,,,,,2015_Oct_13_1942,G,facesParametric,14,59.6722673534,
./stim/MorphF1_06_orig.jpg,92,,,,,,,,,0,92,92,92,,,,,,,,,,,,,,,5.0390625,-5.947265625,1,0,0,1.72494006157,,,,,2015_Oct_13_1942,G,facesParametric,14,59.6722673534,
./stim/MorphF10_08_orig.jpg,93,,,,,,,,,0,93,93,93,,,,,,,,,,,,,,,5.0390625,-5.947265625,1,0,0,0.868094921112,,,,,2015_Oct_13_1942,G,facesParametric,14,59.6722673534,
./stim/MorphF4_07_orig.jpg,94,,,,,,,,,0,94,94,94,,,,,,,,,,,,,,,5.0390625,-5.947265625,1,0,0,1.67322182655,,,,,2015_Oct_13_1942,G,facesParametric,14,59.6722673534,
./stim/MorphF5_01_orig.jpg,95,,,,,,,,,0,95,95,95,,,,,,,,,,,,,,,5.009765625,-5.91796875,0,0,1,1.12003993988,,,,,2015_Oct_13_1942,G,facesParametric,14,59.6722673534,
./stim/MorphF10_02_orig.jpg,96,,,,,,,,,0,96,96,96,,,,,,,,,,,,,,,4.951171875,-5.888671875,1,0,0,0.652574062347,,,,,2015_Oct_13_1942,G,facesParametric,14,59.6722673534,
./stim/MorphM6_10_orig.jpg,97,,,,,,,,,0,97,97,97,,,,,,,,,,,,,,,4.921875,-5.859375,1,0,0,2.17544698715,,,,,2015_Oct_13_1942,G,facesParametric,14,59.6722673534,
./stim/MorphM8_03_orig.jpg,98,,,,,,,,,0,98,98,98,,,,,,,,,,,,,,,4.86328125,-5.830078125,1,0,0,1.05453801155,,,,,2015_Oct_13_1942,G,facesParametric,14,59.6722673534,
./stim/MorphM10_09_orig.jpg,99,,,,,,,,,0,99,99,99,,,,,,,,,,,,,,,4.86328125,-5.830078125,1,0,0,0.652749061584,,,,,2015_Oct_13_1942,G,facesParametric,14,59.6722673534,
./stim/MorphM5_09_orig.jpg,100,,,,,,,,,0,100,100,100,,,,,,,,,,,,,,,4.8046875,-5.80078125,1,0,0,2.44321298599,,,,,2015_Oct_13_1942,G,facesParametric,14,59.6722673534,
./stim/MorphM7_04_orig.jpg,101,,,,,,,,,0,101,101,101,,,,,,,,,,,,,,,4.74609375,-5.771484375,1,0,0,0.887312889099,,,,,2015_Oct_13_1942,G,facesParametric,14,59.6722673534,
./stim/MorphM2_00_orig.jpg,102,,,,,,,,,0,102,102,102,,,,,,,,,,,,,,,4.658203125,-5.712890625,0,0,1,1.82400798798,,,,,2015_Oct_13_1942,G,facesParametric,14,59.6722673534,
./stim/MorphF10_06_orig.jpg,103,,,,,,,,,0,103,103,103,,,,,,,,,,,,,,,4.658203125,-5.712890625,1,0,0,0.752962827682,,,,,2015_Oct_13_1942,G,facesParametric,14,59.6722673534,
./stim/MorphM5_01_orig.jpg,104,,,,,,,,,0,104,104,104,,,,,,,,,,,,,,,4.62890625,-5.712890625,0,0,1,1.35661506653,,,,,2015_Oct_13_1942,G,facesParametric,14,59.6722673534,
./stim/MorphM4_09_orig.jpg,105,,,,,,,,,0,105,105,105,,,,,,,,,,,,,,,4.5703125,-5.712890625,1,0,0,1.47340607643,,,,,2015_Oct_13_1942,G,facesParametric,14,59.6722673534,
./stim/MorphM10_10_orig.jpg,106,,,,,,,,,0,106,106,106,,,,,,,,,,,,,,,4.541015625,-5.7421875,1,0,0,2.37843799591,,,,,2015_Oct_13_1942,G,facesParametric,14,59.6722673534,
./stim/MorphM5_04_orig.jpg,107,,,,,,,,,0,107,107,107,,,,,,,,,,,,,,,4.541015625,-5.7421875,0,0,1,1.64167785645,,,,,2015_Oct_13_1942,G,facesParametric,14,59.6722673534,
./stim/MorphM10_02_orig.jpg,108,,,,,,,,,0,108,108,108,,,,,,,,,,,,,,,4.541015625,-5.7421875,0,0,1,4.02008390427,,,,,2015_Oct_13_1942,G,facesParametric,14,59.6722673534,
./stim/MorphF2_00_orig.jpg,109,,,,,,,,,0,109,109,109,,,,,,,,,,,,,,,4.51171875,-5.80078125,0,0,1,2.76351213455,,,,,2015_Oct_13_1942,G,facesParametric,14,59.6722673534,
./stim/MorphF5_08_orig.jpg,110,,,,,,,,,0,110,110,110,,,,,,,,,,,,,,,4.51171875,-5.80078125,1,0,0,0.987827777863,,,,,2015_Oct_13_1942,G,facesParametric,14,59.6722673534,
./stim/MorphF7_05_orig.jpg,111,,,,,,,,,0,111,111,111,,,,,,,,,,,,,,,4.21875,-5.80078125,1,0,0,0.635464906693,,,,,2015_Oct_13_1942,G,facesParametric,14,59.6722673534,
./stim/MorphM6_07_orig.jpg,112,,,,,,,,,0,112,112,112,,,,,,,,,,,,,,,4.16015625,-5.771484375,0,0,1,2.41214108467,,,,,2015_Oct_13_1942,G,facesParametric,14,59.6722673534,
./stim/MorphM10_05_orig.jpg,113,,,,,,,,,0,113,113,113,,,,,,,,,,,,,,,4.130859375,-5.80078125,1,0,0,0.987669944763,,,,,2015_Oct_13_1942,G,facesParametric,14,59.6722673534,
./stim/MorphF4_09_orig.jpg,114,,,,,,,,,0,114,114,114,,,,,,,,,,,,,,,4.130859375,-5.80078125,1,0,0,0.719480037689,,,,,2015_Oct_13_1942,G,facesParametric,14,59.6722673534,
./stim/MorphM10_01_orig.jpg,115,,,,,,,,,0,115,115,115,,,,,,,,,,,,,,,4.130859375,-5.80078125,0,0,1,1.05384492874,,,,,2015_Oct_13_1942,G,facesParametric,14,59.6722673534,
./stim/MorphF8_07_orig.jpg,116,,,,,,,,,0,116,116,116,,,,,,,,,,,,,,,4.130859375,-5.80078125,1,0,0,1.20353293419,,,,,2015_Oct_13_1942,G,facesParametric,14,59.6722673534,
./stim/MorphM10_03_orig.jpg,117,,,,,,,,,0,117,117,117,,,,,,,,,,,,,,,4.1015625,-5.830078125,0,0,1,1.1383690834,,,,,2015_Oct_13_1942,G,facesParametric,14,59.6722673534,
./stim/MorphF7_07_orig.jpg,118,,,,,,,,,0,118,118,118,,,,,,,,,,,,,,,4.1015625,-5.830078125,1,0,0,2.36206912994,,,,,2015_Oct_13_1942,G,facesParametric,14,59.6722673534,
./stim/MorphF5_03_orig.jpg,119,,,,,,,,,0,119,119,119,,,,,,,,,,,,,,,4.1015625,-5.830078125,0,0,1,1.18846082687,,,,,2015_Oct_13_1942,G,facesParametric,14,59.6722673534,
./stim/MorphF3_08_orig.jpg,120,,,,,,,,,0,120,120,120,,,,,,,,,,,,,,,4.1015625,-5.830078125,1,0,0,3.09958100319,,,,,2015_Oct_13_1942,G,facesParametric,14,59.6722673534,
./stim/MorphF10_00_orig.jpg,121,,,,,,,,,0,121,121,121,,,,,,,,,,,,,,,4.1015625,-5.830078125,1,0,0,1.45592880249,,,,,2015_Oct_13_1942,G,facesParametric,14,59.6722673534,
./stim/MorphM6_00_orig.jpg,122,,,,,,,,,0,122,122,122,,,,,,,,,,,,,,,4.1015625,-5.830078125,0,0,1,0.987755060196,,,,,2015_Oct_13_1942,G,facesParametric,14,59.6722673534,
./stim/MorphF10_01_orig.jpg,123,,,,,,,,,0,123,123,123,,,,,,,,,,,,,,,4.1015625,-5.830078125,0,0,1,1.79178404808,,,,,2015_Oct_13_1942,G,facesParametric,14,59.6722673534,
./stim/MorphF1_10_orig.jpg,124,,,,,,,,,0,124,124,124,,,,,,,,,,,,,,,4.130859375,-5.80078125,1,0,0,1.20562791824,,,,,2015_Oct_13_1942,G,facesParametric,14,59.6722673534,
./stim/MorphF9_04_orig.jpg,125,,,,,,,,,0,125,125,125,,,,,,,,,,,,,,,4.130859375,-5.80078125,0,0,1,1.33965206146,,,,,2015_Oct_13_1942,G,facesParametric,14,59.6722673534,
./stim/MorphF2_06_orig.jpg,126,,,,,,,,,0,126,126,126,,,,,,,,,,,,,,,4.130859375,-5.80078125,1,0,0,1.10445404053,,,,,2015_Oct_13_1942,G,facesParametric,14,59.6722673534,
./stim/MorphM1_10_orig.jpg,127,,,,,,,,,0,127,127,127,,,,,,,,,,,,,,,4.130859375,-5.80078125,1,0,0,1.05526590347,,,,,2015_Oct_13_1942,G,facesParametric,14,59.6722673534,
./stim/MorphF10_07_orig.jpg,128,,,,,,,,,0,128,128,128,,,,,,,,,,,,,,,4.130859375,-5.80078125,1,0,0,0.701814889908,,,,,2015_Oct_13_1942,G,facesParametric,14,59.6722673534,
./stim/MorphM8_07_orig.jpg,129,,,,,,,,,0,129,129,129,,,,,,,,,,,,,,,4.130859375,-5.80078125,1,0,0,4.25468707085,,,,,2015_Oct_13_1942,G,facesParametric,14,59.6722673534,
./stim/MorphM6_09_orig.jpg,130,,,,,,,,,0,130,130,130,,,,,,,,,,,,,,,4.21875,-5.68359375,1,0,0,1.20569300652,,,,,2015_Oct_13_1942,G,facesParametric,14,59.6722673534,
./stim/MorphM7_01_orig.jpg,131,,,,,,,,,0,131,131,131,,,,,,,,,,,,,,,4.189453125,-5.654296875,1,0,0,0.88484120369,,,,,2015_Oct_13_1942,G,facesParametric,14,59.6722673534,
./stim/MorphM9_05_orig.jpg,132,,,,,,,,,0,132,132,132,,,,,,,,,,,,,,,4.130859375,-5.654296875,0,0,1,1.57449603081,,,,,2015_Oct_13_1942,G,facesParametric,14,59.6722673534,
./stim/MorphM4_08_orig.jpg,133,,,,,,,,,0,133,133,133,,,,,,,,,,,,,,,4.1015625,-5.654296875,1,0,0,1.01890492439,,,,,2015_Oct_13_1942,G,facesParametric,14,59.6722673534,
./stim/MorphF6_10_orig.jpg,134,,,,,,,,,0,134,134,134,,,,,,,,,,,,,,,4.1015625,-5.654296875,1,0,0,0.903779983521,,,,,2015_Oct_13_1942,G,facesParametric,14,59.6722673534,
./stim/MorphF8_00_orig.jpg,135,,,,,,,,,0,135,135,135,,,,,,,,,,,,,,,4.1015625,-5.654296875,1,0,0,1.02082514763,,,,,2015_Oct_13_1942,G,facesParametric,14,59.6722673534,
./stim/MorphM1_07_orig.jpg,136,,,,,,,,,0,136,136,136,,,,,,,,,,,,,,,3.984375,-5.68359375,1,0,0,4.42307806015,,,,,2015_Oct_13_1942,G,facesParametric,14,59.6722673534,
./stim/MorphF1_00_orig.jpg,137,,,,,,,,,0,137,137,137,,,,,,,,,,,,,,,3.955078125,-5.712890625,0,0,1,1.82648205757,,,,,2015_Oct_13_1942,G,facesParametric,14,59.6722673534,
./stim/MorphM3_07_orig.jpg,138,,,,,,,,,0,138,138,138,,,,,,,,,,,,,,,3.896484375,-5.7421875,1,0,0,1.35602617264,,,,,2015_Oct_13_1942,G,facesParametric,14,59.6722673534,
./stim/MorphF9_08_orig.jpg,139,,,,,,,,,0,139,139,139,,,,,,,,,,,,,,,3.896484375,-5.7421875,1,0,0,1.85765504837,,,,,2015_Oct_13_1942,G,facesParametric,14,59.6722673534,
./stim/MorphF7_09_orig.jpg,140,,,,,,,,,0,140,140,140,,,,,,,,,,,,,,,3.896484375,-5.7421875,1,0,0,0.719170808792,,,,,2015_Oct_13_1942,G,facesParametric,14,59.6722673534,
./stim/MorphF4_10_orig.jpg,141,,,,,,,,,0,141,141,141,,,,,,,,,,,,,,,3.896484375,-5.7421875,1,0,0,0.684836149216,,,,,2015_Oct_13_1942,G,facesParametric,14,59.6722673534,
./stim/MorphF5_06_orig.jpg,142,,,,,,,,,0,142,142,142,,,,,,,,,,,,,,,3.896484375,-5.7421875,1,0,0,1.72465419769,,,,,2015_Oct_13_1942,G,facesParametric,14,59.6722673534,
./stim/MorphM6_04_orig.jpg,143,,,,,,,,,0,143,143,143,,,,,,,,,,,,,,,3.896484375,-5.7421875,0,0,1,1.32271385193,,,,,2015_Oct_13_1942,G,facesParametric,14,59.6722673534,
./stim/MorphF7_02_orig.jpg,144,,,,,,,,,0,144,144,144,,,,,,,,,,,,,,,3.896484375,-5.7421875,1,0,0,0.887237071991,,,,,2015_Oct_13_1942,G,facesParametric,14,59.6722673534,
./stim/MorphM2_03_orig.jpg,145,,,,,,,,,0,145,145,145,,,,,,,,,,,,,,,3.8671875,-5.771484375,0,0,1,1.47373580933,,,,,2015_Oct_13_1942,G,facesParametric,14,59.6722673534,
./stim/MorphM4_05_orig.jpg,146,,,,,,,,,0,146,146,146,,,,,,,,,,,,,,,3.837890625,-5.771484375,1,0,0,4.08582997322,,,,,2015_Oct_13_1942,G,facesParametric,14,59.6722673534,
./stim/MorphF9_09_orig.jpg,147,,,,,,,,,0,147,147,147,,,,,,,,,,,,,,,3.837890625,-5.771484375,0,0,1,1.30567383766,,,,,2015_Oct_13_1942,G,facesParametric,14,59.6722673534,
./stim/MorphM8_08_orig.jpg,148,,,,,,,,,0,148,148,148,,,,,,,,,,,,,,,3.80859375,-5.80078125,1,0,0,2.49559497833,,,,,2015_Oct_13_1942,G,facesParametric,14,59.6722673534,
./stim/MorphF1_05_orig.jpg,149,,,,,,,,,0,149,149,149,,,,,,,,,,,,,,,3.80859375,-5.80078125,0,0,1,1.35662007332,,,,,2015_Oct_13_1942,G,facesParametric,14,59.6722673534,
./stim/MorphM10_00_orig.jpg,150,,,,,,,,,0,150,150,150,,,,,,,,,,,,,,,3.837890625,-5.830078125,0,0,1,1.23741698265,,,,,2015_Oct_13_1942,G,facesParametric,14,59.6722673534,
./stim/MorphF4_06_orig.jpg,151,,,,,,,,,0,151,151,151,,,,,,,,,,,,,,,4.013671875,-5.830078125,0,0,1,5.8631131649,,,,,2015_Oct_13_1942,G,facesParametric,14,59.6722673534,
./stim/MorphF5_10_orig.jpg,152,,,,,,,,,0,152,152,152,,,,,,,,,,,,,,,4.013671875,-5.830078125,1,0,0,0.970566034317,,,,,2015_Oct_13_1942,G,facesParametric,14,59.6722673534,
./stim/MorphM10_06_orig.jpg,153,,,,,,,,,0,153,153,153,,,,,,,,,,,,,,,2.8125,-5.80078125,1,0,0,6.31776499748,,,,,2015_Oct_13_1942,G,facesParametric,14,59.6722673534,
./stim/MorphF7_10_orig.jpg,154,,,,,,,,,0,154,154,154,,,,,,,,,,,,,,,2.900390625,-5.7421875,1,0,0,0.666259050369,,,,,2015_Oct_13_1942,G,facesParametric,14,59.6722673534,
./stim/MorphM9_09_orig.jpg,155,,,,,,,,,0,155,155,155,,,,,,,,,,,,,,,2.9296875,-5.712890625,1,0,0,1.23857808113,,,,,2015_Oct_13_1942,G,facesParametric,14,59.6722673534,
./stim/MorphM7_02_orig.jpg,156,,,,,,,,,0,156,156,156,,,,,,,,,,,,,,,2.9296875,-5.68359375,0,0,1,1.02123594284,,,,,2015_Oct_13_1942,G,facesParametric,14,59.6722673534,
./stim/MorphF4_00_orig.jpg,157,,,,,,,,,0,157,157,157,,,,,,,,,,,,,,,2.958984375,-5.654296875,0,0,1,1.59120392799,,,,,2015_Oct_13_1942,G,facesParametric,14,59.6722673534,
./stim/MorphF8_10_orig.jpg,158,,,,,,,,,0,158,158,158,,,,,,,,,,,,,,,2.958984375,-5.654296875,1,0,0,3.30050206184,,,,,2015_Oct_13_1942,G,facesParametric,14,59.6722673534,
./stim/MorphM5_02_orig.jpg,159,,,,,,,,,0,159,159,159,,,,,,,,,,,,,,,2.958984375,-5.654296875,0,0,1,1.18788099289,,,,,2015_Oct_13_1942,G,facesParametric,14,59.6722673534,
./stim/MorphM1_03_orig.jpg,160,,,,,,,,,0,160,160,160,,,,,,,,,,,,,,,2.958984375,-5.654296875,0,0,1,1.10496997833,,,,,2015_Oct_13_1942,G,facesParametric,14,59.6722673534,
./stim/MorphM6_08_orig.jpg,161,,,,,,,,,0,161,161,161,,,,,,,,,,,,,,,2.958984375,-5.654296875,1,0,0,1.38879704475,,,,,2015_Oct_13_1942,G,facesParametric,14,59.6722673534,
./stim/MorphM2_05_orig.jpg,162,,,,,,,,,0,162,162,162,,,,,,,,,,,,,,,3.017578125,-5.625,0,0,1,1.02219510078,,,,,2015_Oct_13_1942,G,facesParametric,14,59.6722673534,
./stim/MorphF9_07_orig.jpg,163,,,,,,,,,0,163,163,163,,,,,,,,,,,,,,,3.017578125,-5.625,0,0,1,1.07078003883,,,,,2015_Oct_13_1942,G,facesParametric,14,59.6722673534,
./stim/MorphM4_00_orig.jpg,164,,,,,,,,,0,164,164,164,,,,,,,,,,,,,,,3.017578125,-5.625,0,0,1,1.40605282784,,,,,2015_Oct_13_1942,G,facesParametric,14,59.6722673534,
./stim/MorphF6_03_orig.jpg,165,,,,,,,,,0,165,165,165,,,,,,,,,,,,,,,3.017578125,-5.625,0,0,1,1.40734696388,,,,,2015_Oct_13_1942,G,facesParametric,14,59.6722673534,
./stim/MorphF10_05_orig.jpg,166,,,,,,,,,0,166,166,166,,,,,,,,,,,,,,,3.017578125,-5.625,0,0,1,1.70771598816,,,,,2015_Oct_13_1942,G,facesParametric,14,59.6722673534,
./stim/MorphM3_05_orig.jpg,167,,,,,,,,,0,167,167,167,,,,,,,,,,,,,,,3.076171875,-5.595703125,1,0,0,1.90918898582,,,,,2015_Oct_13_1942,G,facesParametric,14,59.6722673534,
./stim/MorphM10_04_orig.jpg,168,,,,,,,,,0,168,168,168,,,,,,,,,,,,,,,3.193359375,-5.56640625,1,0,0,1.40671205521,,,,,2015_Oct_13_1942,G,facesParametric,14,59.6722673534,
./stim/MorphM2_07_orig.jpg,169,,,,,,,,,0,169,169,169,,,,,,,,,,,,,,,3.193359375,-5.56640625,0,0,1,2.7975859642,,,,,2015_Oct_13_1942,G,facesParametric,14,59.6722673534,
./stim/MorphM8_06_orig.jpg,170,,,,,,,,,0,170,170,170,,,,,,,,,,,,,,,3.22265625,-5.537109375,1,0,0,0.768280029297,,,,,2015_Oct_13_1942,G,facesParametric,14,59.6722673534,
./stim/MorphM6_05_orig.jpg,171,,,,,,,,,0,171,171,171,,,,,,,,,,,,,,,3.22265625,-5.537109375,0,0,1,1.60758709908,,,,,2015_Oct_13_1942,G,facesParametric,14,59.6722673534,
./stim/MorphM7_09_orig.jpg,172,,,,,,,,,0,172,172,172,,,,,,,,,,,,,,,3.1640625,-5.5078125,1,0,0,1.25429797173,,,,,2015_Oct_13_1942,G,facesParametric,14,59.6722673534,
./stim/MorphM3_08_orig.jpg,173,,,,,,,,,0,173,173,173,,,,,,,,,,,,,,,3.134765625,-5.478515625,1,0,0,0.918318033218,,,,,2015_Oct_13_1942,G,facesParametric,14,59.6722673534,
./stim/MorphF4_03_orig.jpg,174,,,,,,,,,0,174,174,174,,,,,,,,,,,,,,,3.134765625,-5.419921875,0,0,1,1.12221693993,,,,,2015_Oct_13_1942,G,facesParametric,14,59.6722673534,
./stim/MorphM3_10_orig.jpg,175,,,,,,,,,0,175,175,175,,,,,,,,,,,,,,,3.1640625,-5.390625,1,0,0,1.10473299026,,,,,2015_Oct_13_1942,G,facesParametric,14,59.6722673534,
./stim/MorphF9_10_orig.jpg,176,,,,,,,,,0,176,176,176,,,,,,,,,,,,,,,3.076171875,-5.33203125,1,0,0,1.15433287621,,,,,2015_Oct_13_1942,G,facesParametric,14,59.6722673534,
./stim/MorphM2_06_orig.jpg,177,,,,,,,,,0,177,177,177,,,,,,,,,,,,,,,3.076171875,-5.33203125,0,0,1,0.987063884735,,,,,2015_Oct_13_1942,G,facesParametric,14,59.6722673534,
./stim/MorphM1_01_orig.jpg,178,,,,,,,,,0,178,178,178,,,,,,,,,,,,,,,3.046875,-5.33203125,0,0,1,1.99232292175,,,,,2015_Oct_13_1942,G,facesParametric,14,59.6722673534,
./stim/MorphM3_01_orig.jpg,179,,,,,,,,,0,179,179,179,,,,,,,,,,,,,,,3.046875,-5.33203125,1,0,0,1.02073693275,,,,,2015_Oct_13_1942,G,facesParametric,14,59.6722673534,
./stim/MorphM10_07_orig.jpg,180,,,,,,,,,0,180,180,180,,,,,,,,,,,,,,,2.98828125,-5.33203125,1,0,0,2.14390492439,,,,,2015_Oct_13_1942,G,facesParametric,14,59.6722673534,
./stim/MorphM2_09_orig.jpg,181,,,,,,,,,0,181,181,181,,,,,,,,,,,,,,,2.958984375,-5.361328125,1,0,0,2.31176400185,,,,,2015_Oct_13_1942,G,facesParametric,14,59.6722673534,
./stim/MorphF2_09_orig.jpg,182,,,,,,,,,0,182,182,182,,,,,,,,,,,,,,,2.958984375,-5.390625,1,0,0,1.75886797905,,,,,2015_Oct_13_1942,G,facesParametric,14,59.6722673534,
./stim/MorphF5_07_orig.jpg,183,,,,,,,,,0,183,183,183,,,,,,,,,,,,,,,2.958984375,-5.390625,1,0,0,1.02002096176,,,,,2015_Oct_13_1942,G,facesParametric,14,59.6722673534,
./stim/MorphM9_04_orig.jpg,184,,,,,,,,,0,184,184,184,,,,,,,,,,,,,,,2.958984375,-5.390625,0,0,1,0.920690059662,,,,,2015_Oct_13_1942,G,facesParametric,14,59.6722673534,
./stim/MorphM4_06_orig.jpg,185,,,,,,,,,0,185,185,185,,,,,,,,,,,,,,,2.958984375,-5.390625,1,0,0,1.4386818409,,,,,2015_Oct_13_1942,G,facesParametric,14,59.6722673534,
./stim/MorphF3_05_orig.jpg,186,,,,,,,,,0,186,186,186,,,,,,,,,,,,,,,2.9296875,-5.419921875,0,0,1,2.42914700508,,,,,2015_Oct_13_1942,G,facesParametric,14,59.6722673534,
./stim/MorphM5_07_orig.jpg,187,,,,,,,,,0,187,187,187,,,,,,,,,,,,,,,2.724609375,-5.390625,0,0,1,1.64134216309,,,,,2015_Oct_13_1942,G,facesParametric,14,59.6722673534,
./stim/MorphF8_01_orig.jpg,188,,,,,,,,,0,188,188,188,,,,,,,,,,,,,,,2.607421875,-5.390625,0,0,1,3.01512002945,,,,,2015_Oct_13_1942,G,facesParametric,14,59.6722673534,
./stim/MorphF9_01_orig.jpg,189,,,,,,,,,0,189,189,189,,,,,,,,,,,,,,,2.607421875,-5.390625,0,0,1,1.00411987305,,,,,2015_Oct_13_1942,G,facesParametric,14,59.6722673534,
./stim/MorphF10_03_orig.jpg,190,,,,,,,,,0,190,190,190,,,,,,,,,,,,,,,2.607421875,-5.390625,0,0,1,1.65652298927,,,,,2015_Oct_13_1942,G,facesParametric,14,59.6722673534,
./stim/MorphM1_06_orig.jpg,191,,,,,,,,,0,191,191,191,,,,,,,,,,,,,,,2.607421875,-5.390625,0,0,1,2.27809095383,,,,,2015_Oct_13_1942,G,facesParametric,14,59.6722673534,
./stim/MorphF1_09_orig.jpg,192,,,,,,,,,0,192,192,192,,,,,,,,,,,,,,,2.607421875,-5.390625,1,0,0,2.24398207664,,,,,2015_Oct_13_1942,G,facesParametric,14,59.6722673534,
./stim/MorphM3_04_orig.jpg,193,,,,,,,,,0,193,193,193,,,,,,,,,,,,,,,2.578125,-5.361328125,1,0,0,1.82419705391,,,,,2015_Oct_13_1942,G,facesParametric,14,59.6722673534,
./stim/MorphF2_08_orig.jpg,194,,,,,,,,,0,194,194,194,,,,,,,,,,,,,,,2.578125,-5.361328125,1,0,0,3.43478798866,,,,,2015_Oct_13_1942,G,facesParametric,14,59.6722673534,
./stim/MorphM8_05_orig.jpg,195,,,,,,,,,0,195,195,195,,,,,,,,,,,,,,,2.578125,-5.361328125,1,0,0,1.27253317833,,,,,2015_Oct_13_1942,G,facesParametric,14,59.6722673534,
./stim/MorphM6_01_orig.jpg,196,,,,,,,,,0,196,196,196,,,,,,,,,,,,,,,2.607421875,-5.390625,0,0,1,1.21997904778,,,,,2015_Oct_13_1942,G,facesParametric,14,59.6722673534,
./stim/MorphM4_10_orig.jpg,197,,,,,,,,,0,197,197,197,,,,,,,,,,,,,,,2.607421875,-5.390625,1,0,0,1.58956193924,,,,,2015_Oct_13_1942,G,facesParametric,14,59.6722673534,
./stim/MorphF6_07_orig.jpg,198,,,,,,,,,0,198,198,198,,,,,,,,,,,,,,,2.607421875,-5.361328125,1,0,0,0.835938930511,,,,,2015_Oct_13_1942,G,facesParametric,14,59.6722673534,
./stim/MorphM8_10_orig.jpg,199,,,,,,,,,0,199,199,199,,,,,,,,,,,,,,,2.607421875,-5.361328125,1,0,0,2.47896409035,,,,,2015_Oct_13_1942,G,facesParametric,14,59.6722673534,
./stim/MorphM4_07_orig.jpg,200,,,,,,,,,0,200,200,200,,,,,,,,,,,,,,,2.607421875,-5.33203125,1,0,0,1.10531687737,,,,,2015_Oct_13_1942,G,facesParametric,14,59.6722673534,
./stim/MorphM9_06_orig.jpg,201,,,,,,,,,0,201,201,201,,,,,,,,,,,,,,,2.607421875,-5.302734375,0,0,1,0.803637981415,,,,,2015_Oct_13_1942,G,facesParametric,14,59.6722673534,
./stim/MorphM7_05_orig.jpg,202,,,,,,,,,0,202,202,202,,,,,,,,,,,,,,,2.63671875,-5.2734375,1,0,0,2.29484200478,,,,,2015_Oct_13_1942,G,facesParametric,14,59.6722673534,
./stim/MorphM1_02_orig.jpg,203,,,,,,,,,0,203,203,203,,,,,,,,,,,,,,,2.63671875,-5.2734375,0,0,1,2.07668399811,,,,,2015_Oct_13_1942,G,facesParametric,14,59.6722673534,
./stim/MorphM7_00_orig.jpg,204,,,,,,,,,0,204,204,204,,,,,,,,,,,,,,,2.63671875,-5.2734375,0,0,1,1.23779988289,,,,,2015_Oct_13_1942,G,facesParametric,14,59.6722673534,
./stim/MorphF6_05_orig.jpg,205,,,,,,,,,0,205,205,205,,,,,,,,,,,,,,,2.724609375,-5.244140625,1,0,0,1.65673995018,,,,,2015_Oct_13_1942,G,facesParametric,14,59.6722673534,
./stim/MorphM9_10_orig.jpg,206,,,,,,,,,0,206,206,206,,,,,,,,,,,,,,,2.724609375,-5.244140625,1,0,0,1.12155485153,,,,,2015_Oct_13_1942,G,facesParametric,14,59.6722673534,
./stim/MorphM7_03_orig.jpg,207,,,,,,,,,0,207,207,207,,,,,,,,,,,,,,,2.75390625,-5.2734375,0,0,1,1.30652093887,,,,,2015_Oct_13_1942,G,facesParametric,14,59.6722673534,
./stim/MorphM2_10_orig.jpg,208,,,,,,,,,0,208,208,208,,,,,,,,,,,,,,,2.724609375,-5.302734375,1,0,0,1.47287297249,,,,,2015_Oct_13_1942,G,facesParametric,14,59.6722673534,
./stim/MorphF3_06_orig.jpg,209,,,,,,,,,0,209,209,209,,,,,,,,,,,,,,,2.724609375,-5.302734375,0,0,1,3.03184199333,,,,,2015_Oct_13_1942,G,facesParametric,14,59.6722673534,
./stim/MorphM9_02_orig.jpg,210,,,,,,,,,0,210,210,210,,,,,,,,,,,,,,,2.724609375,-5.302734375,0,0,1,1.13894104958,,,,,2015_Oct_13_1942,G,facesParametric,14,59.6722673534,
./stim/MorphF2_02_orig.jpg,211,,,,,,,,,0,211,211,211,,,,,,,,,,,,,,,2.724609375,-5.302734375,0,0,1,1.339220047,,,,,2015_Oct_13_1942,G,facesParametric,14,59.6722673534,
./stim/MorphF4_01_orig.jpg,212,,,,,,,,,0,212,212,212,,,,,,,,,,,,,,,2.724609375,-5.302734375,0,0,1,1.20530986786,,,,,2015_Oct_13_1942,G,facesParametric,14,59.6722673534,
./stim/MorphM8_00_orig.jpg,213,,,,,,,,,0,213,213,213,,,,,,,,,,,,,,,2.724609375,-5.302734375,0,0,1,1.30358505249,,,,,2015_Oct_13_1942,G,facesParametric,14,59.6722673534,
./stim/MorphM3_06_orig.jpg,214,,,,,,,,,0,214,214,214,,,,,,,,,,,,,,,2.724609375,-5.302734375,1,0,0,0.953466176987,,,,,2015_Oct_13_1942,G,facesParametric,14,59.6722673534,
./stim/MorphF6_09_orig.jpg,215,,,,,,,,,0,215,215,215,,,,,,,,,,,,,,,2.724609375,-5.302734375,1,0,0,0.953966140747,,,,,2015_Oct_13_1942,G,facesParametric,14,59.6722673534,
./stim/MorphM9_03_orig.jpg,216,,,,,,,,,0,216,216,216,,,,,,,,,,,,,,,2.6953125,-5.33203125,0,0,1,1.02105998993,,,,,2015_Oct_13_1942,G,facesParametric,14,59.6722673534,
./stim/MorphF6_00_orig.jpg,217,,,,,,,,,0,217,217,217,,,,,,,,,,,,,,,2.6953125,-5.33203125,0,0,1,1.47145581245,,,,,2015_Oct_13_1942,G,facesParametric,14,59.6722673534,
./stim/MorphM4_03_orig.jpg,218,,,,,,,,,0,218,218,218,,,,,,,,,,,,,,,2.6953125,-5.33203125,0,0,1,1.65760707855,,,,,2015_Oct_13_1942,G,facesParametric,14,59.6722673534,
./stim/MorphF3_10_orig.jpg,219,,,,,,,,,0,219,219,219,,,,,,,,,,,,,,,2.6953125,-5.33203125,0,0,1,1.25553107262,,,,,2015_Oct_13_1942,G,facesParametric,14,59.6722673534,
,,,,,,,,,,,,,,,,,,,,,,,,,,,,,,,,,,,,return,6.42534184456,2015_Oct_13_1942,G,facesParametric,14,59.6722673534,
