img,num,basicLoop.thisRepN,basicLoop.thisTrialN,basicLoop.thisN,basicLoop.thisIndex,trials.thisRepN,trials.thisTrialN,trials.thisN,trials.thisIndex,trials2.thisRepN,trials2.thisTrialN,trials2.thisN,trials2.thisIndex,key_resp_2.keys,key_resp_2.rt,basicRating1.response,basicRating1.rt,basicRating2.response,basicRating2.rt,basicRating3.response,basicRating3.rt,basicRating4.response,basicRating4.rt,key_resp_3.keys,key_resp_3.rt,key_resp_4.keys,key_resp_4.rt,mouseResp.x,mouseResp.y,mouseResp.leftButton,mouseResp.midButton,mouseResp.rightButton,mouseResp.time,key_resp_5.keys,key_resp_5.rt,key_resp_7.keys,key_resp_7.rt,date,group,expName,participant,frameRate,
,,,,,,,,,,,,,,return,32.0255930424,,,,,,,,,,,,,,,,,,,,,,,2015_Oct_17_1254,G,facesParametric,15,59.6437560614,
./basicStim/06F_NE_C.jpg,,0,0,0,27,,,,,,,,,,,SAD,24.895,None,None,None,None,None,None,,,,,,,,,,,,,,,2015_Oct_17_1254,G,facesParametric,15,59.6437560614,
./basicStim/02F_HA_O.jpg,,0,1,1,10,,,,,,,,,,,HAP,2.569,None,None,None,None,None,None,,,,,,,,,,,,,,,2015_Oct_17_1254,G,facesParametric,15,59.6437560614,
./basicStim/34M_HA_O.jpg,,0,2,2,73,,,,,,,,,,,HAP,6.192,None,None,None,None,None,None,,,,,,,,,,,,,,,2015_Oct_17_1254,G,facesParametric,15,59.6437560614,
./basicStim/23M_NE_C.jpg,,0,3,3,55,,,,,,,,,,,None,None,FEA,11.483,None,None,None,None,,,,,,,,,,,,,,,2015_Oct_17_1254,G,facesParametric,15,59.6437560614,
./basicStim/34M_SP_O.jpg,,0,4,4,75,,,,,,,,,,,None,None,None,None,SUP,3.841,None,None,,,,,,,,,,,,,,,2015_Oct_17_1254,G,facesParametric,15,59.6437560614,
./basicStim/36M_FE_O.jpg,,0,5,5,79,,,,,,,,,,,None,None,None,None,DIS,3.861,None,None,,,,,,,,,,,,,,,2015_Oct_17_1254,G,facesParametric,15,59.6437560614,
./basicStim/34M_FE_O.jpg,,0,6,6,72,,,,,,,,,,,None,None,None,None,DIS,15.856,None,None,,,,,,,,,,,,,,,2015_Oct_17_1254,G,facesParametric,15,59.6437560614,
./basicStim/21M_FE_O.jpg,,0,7,7,44,,,,,,,,,,,None,None,None,None,DIS,7.123,None,None,,,,,,,,,,,,,,,2015_Oct_17_1254,G,facesParametric,15,59.6437560614,
./basicStim/24M_NE_C.jpg,,0,8,8,62,,,,,,,,,,,SAD,9.849,None,None,None,None,None,None,,,,,,,,,,,,,,,2015_Oct_17_1254,G,facesParametric,15,59.6437560614,
./basicStim/09F_DI_O.jpg,,0,9,9,36,,,,,,,,,,,None,None,None,None,DIS,2.264,None,None,,,,,,,,,,,,,,,2015_Oct_17_1254,G,facesParametric,15,59.6437560614,
./basicStim/01F_AN_O.jpg,,0,10,10,0,,,,,,,,,,,None,None,ANG,5.536,None,None,None,None,,,,,,,,,,,,,,,2015_Oct_17_1254,G,facesParametric,15,59.6437560614,
./basicStim/24M_AN_O.jpg,,0,11,11,56,,,,,,,,,,,None,None,ANG,4.311,None,None,None,None,,,,,,,,,,,,,,,2015_Oct_17_1254,G,facesParametric,15,59.6437560614,
./basicStim/21M_SP_O.jpg,,0,12,12,47,,,,,,,,,,,None,None,None,None,SUP,1.661,None,None,,,,,,,,,,,,,,,2015_Oct_17_1254,G,facesParametric,15,59.6437560614,
./basicStim/36M_NE_C.jpg,,0,13,13,83,,,,,,,,,,,None,None,None,None,None,None,NTR,5.633,,,,,,,,,,,,,,,2015_Oct_17_1254,G,facesParametric,15,59.6437560614,
./basicStim/03F_AN_O.jpg,,0,14,14,14,,,,,,,,,,,None,None,ANG,2.958,None,None,None,None,,,,,,,,,,,,,,,2015_Oct_17_1254,G,facesParametric,15,59.6437560614,
./basicStim/24M_HA_O.jpg,,0,15,15,59,,,,,,,,,,,HAP,1.298,None,None,None,None,None,None,,,,,,,,,,,,,,,2015_Oct_17_1254,G,facesParametric,15,59.6437560614,
./basicStim/24M_FE_O.jpg,,0,16,16,58,,,,,,,,,,,None,None,None,None,DIS,3.15,None,None,,,,,,,,,,,,,,,2015_Oct_17_1254,G,facesParametric,15,59.6437560614,
./basicStim/36M_HA_O.jpg,,0,17,17,80,,,,,,,,,,,HAP,0.894,None,None,None,None,None,None,,,,,,,,,,,,,,,2015_Oct_17_1254,G,facesParametric,15,59.6437560614,
./basicStim/03F_SA_C.jpg,,0,18,18,18,,,,,,,,,,,SAD,1.839,None,None,None,None,None,None,,,,,,,,,,,,,,,2015_Oct_17_1254,G,facesParametric,15,59.6437560614,
./basicStim/24M_DI_O.jpg,,0,19,19,57,,,,,,,,,,,SAD,3.883,None,None,None,None,None,None,,,,,,,,,,,,,,,2015_Oct_17_1254,G,facesParametric,15,59.6437560614,
./basicStim/23M_HA_O.jpg,,0,20,20,52,,,,,,,,,,,HAP,1.855,None,None,None,None,None,None,,,,,,,,,,,,,,,2015_Oct_17_1254,G,facesParametric,15,59.6437560614,
./basicStim/36M_DI_O.jpg,,0,21,21,78,,,,,,,,,,,None,None,None,None,DIS,7.377,None,None,,,,,,,,,,,,,,,2015_Oct_17_1254,G,facesParametric,15,59.6437560614,
./basicStim/02F_AN_O.jpg,,0,22,22,7,,,,,,,,,,,None,None,ANG,2.551,None,None,None,None,,,,,,,,,,,,,,,2015_Oct_17_1254,G,facesParametric,15,59.6437560614,
./basicStim/07F_AN_O.jpg,,0,23,23,28,,,,,,,,,,,None,None,ANG,9.089,None,None,None,None,,,,,,,,,,,,,,,2015_Oct_17_1254,G,facesParametric,15,59.6437560614,
./basicStim/03F_HA_O.jpg,,0,24,24,17,,,,,,,,,,,HAP,1.699,None,None,None,None,None,None,,,,,,,,,,,,,,,2015_Oct_17_1254,G,facesParametric,15,59.6437560614,
./basicStim/02F_DI_O.jpg,,0,25,25,8,,,,,,,,,,,None,None,None,None,DIS,2.734,None,None,,,,,,,,,,,,,,,2015_Oct_17_1254,G,facesParametric,15,59.6437560614,
./basicStim/09F_FE_O.jpg,,0,26,26,37,,,,,,,,,,,None,None,None,None,SUP,4.654,None,None,,,,,,,,,,,,,,,2015_Oct_17_1254,G,facesParametric,15,59.6437560614,
./basicStim/02F_NE_C.jpg,,0,27,27,13,,,,,,,,,,,None,None,None,None,None,None,NTR,3.939,,,,,,,,,,,,,,,2015_Oct_17_1254,G,facesParametric,15,59.6437560614,
./basicStim/34M_NE_C.jpg,,0,28,28,76,,,,,,,,,,,None,None,None,None,None,None,NTR,1.253,,,,,,,,,,,,,,,2015_Oct_17_1254,G,facesParametric,15,59.6437560614,
./basicStim/02F_SA_C.jpg,,0,29,29,11,,,,,,,,,,,SAD,1.764,None,None,None,None,None,None,,,,,,,,,,,,,,,2015_Oct_17_1254,G,facesParametric,15,59.6437560614,
./basicStim/36M_SA_C.jpg,,0,30,30,81,,,,,,,,,,,SAD,0.727,None,None,None,None,None,None,,,,,,,,,,,,,,,2015_Oct_17_1254,G,facesParametric,15,59.6437560614,
./basicStim/06F_FE_O.jpg,,0,31,31,23,,,,,,,,,,,None,None,FEA,8.943,None,None,None,None,,,,,,,,,,,,,,,2015_Oct_17_1254,G,facesParametric,15,59.6437560614,
./basicStim/21M_HA_O.jpg,,0,32,32,45,,,,,,,,,,,HAP,1.952,None,None,None,None,None,None,,,,,,,,,,,,,,,2015_Oct_17_1254,G,facesParametric,15,59.6437560614,
./basicStim/36M_SP_O.jpg,,0,33,33,82,,,,,,,,,,,None,None,None,None,SUP,2.218,None,None,,,,,,,,,,,,,,,2015_Oct_17_1254,G,facesParametric,15,59.6437560614,
./basicStim/09F_SA_C.jpg,,0,34,34,39,,,,,,,,,,,SAD,9.039,None,None,None,None,None,None,,,,,,,,,,,,,,,2015_Oct_17_1254,G,facesParametric,15,59.6437560614,
./basicStim/02F_SP_O.jpg,,0,35,35,12,,,,,,,,,,,None,None,None,None,SUP,1.931,None,None,,,,,,,,,,,,,,,2015_Oct_17_1254,G,facesParametric,15,59.6437560614,
./basicStim/28M_SP_O.jpg,,0,36,36,68,,,,,,,,,,,None,None,None,None,SUP,1.444,None,None,,,,,,,,,,,,,,,2015_Oct_17_1254,G,facesParametric,15,59.6437560614,
./basicStim/34M_AN_O.jpg,,0,37,37,70,,,,,,,,,,,None,None,ANG,2.453,None,None,None,None,,,,,,,,,,,,,,,2015_Oct_17_1254,G,facesParametric,15,59.6437560614,
./basicStim/28M_NE_C.jpg,,0,38,38,69,,,,,,,,,,,None,None,None,None,None,None,NTR,2.75,,,,,,,,,,,,,,,2015_Oct_17_1254,G,facesParametric,15,59.6437560614,
./basicStim/28M_HA_O.jpg,,0,39,39,66,,,,,,,,,,,HAP,1.212,None,None,None,None,None,None,,,,,,,,,,,,,,,2015_Oct_17_1254,G,facesParametric,15,59.6437560614,
./basicStim/01F_NE_C.jpg,,0,40,40,6,,,,,,,,,,,None,None,None,None,None,None,NTR,3.438,,,,,,,,,,,,,,,2015_Oct_17_1254,G,facesParametric,15,59.6437560614,
./basicStim/23M_FE_O.jpg,,0,41,41,51,,,,,,,,,,,None,None,None,None,DIS,8.57,None,None,,,,,,,,,,,,,,,2015_Oct_17_1254,G,facesParametric,15,59.6437560614,
./basicStim/21M_NE_C.jpg,,0,42,42,48,,,,,,,,,,,None,None,ANG,3.322,None,None,None,None,,,,,,,,,,,,,,,2015_Oct_17_1254,G,facesParametric,15,59.6437560614,
./basicStim/03F_FE_O.jpg,,0,43,43,16,,,,,,,,,,,None,None,None,None,DIS,4.139,None,None,,,,,,,,,,,,,,,2015_Oct_17_1254,G,facesParametric,15,59.6437560614,
./basicStim/07F_FE_O.jpg,,0,44,44,30,,,,,,,,,,,None,None,None,None,DIS,3.69,None,None,,,,,,,,,,,,,,,2015_Oct_17_1254,G,facesParametric,15,59.6437560614,
./basicStim/28M_DI_O.jpg,,0,45,45,64,,,,,,,,,,,None,None,None,None,DIS,0.663,None,None,,,,,,,,,,,,,,,2015_Oct_17_1254,G,facesParametric,15,59.6437560614,
./basicStim/34M_SA_C.jpg,,0,46,46,74,,,,,,,,,,,SAD,3.842,None,None,None,None,None,None,,,,,,,,,,,,,,,2015_Oct_17_1254,G,facesParametric,15,59.6437560614,
./basicStim/07F_SP_O.jpg,,0,47,47,33,,,,,,,,,,,None,None,None,None,SUP,3.239,None,None,,,,,,,,,,,,,,,2015_Oct_17_1254,G,facesParametric,15,59.6437560614,
./basicStim/06F_SA_C.jpg,,0,48,48,25,,,,,,,,,,,SAD,3.475,None,None,None,None,None,None,,,,,,,,,,,,,,,2015_Oct_17_1254,G,facesParametric,15,59.6437560614,
./basicStim/06F_HA_O.jpg,,0,49,49,24,,,,,,,,,,,HAP,1.078,None,None,None,None,None,None,,,,,,,,,,,,,,,2015_Oct_17_1254,G,facesParametric,15,59.6437560614,
./basicStim/06F_AN_O.jpg,,0,50,50,21,,,,,,,,,,,None,None,None,None,DIS,5.47,None,None,,,,,,,,,,,,,,,2015_Oct_17_1254,G,facesParametric,15,59.6437560614,
./basicStim/06F_SP_O.jpg,,0,51,51,26,,,,,,,,,,,None,None,None,None,SUP,2.467,None,None,,,,,,,,,,,,,,,2015_Oct_17_1254,G,facesParametric,15,59.6437560614,
./basicStim/36M_AN_O.jpg,,0,52,52,77,,,,,,,,,,,None,None,ANG,7.062,None,None,None,None,,,,,,,,,,,,,,,2015_Oct_17_1254,G,facesParametric,15,59.6437560614,
./basicStim/07F_SA_C.jpg,,0,53,53,32,,,,,,,,,,,SAD,3.088,None,None,None,None,None,None,,,,,,,,,,,,,,,2015_Oct_17_1254,G,facesParametric,15,59.6437560614,
./basicStim/21M_AN_O.jpg,,0,54,54,42,,,,,,,,,,,None,None,ANG,2.15,None,None,None,None,,,,,,,,,,,,,,,2015_Oct_17_1254,G,facesParametric,15,59.6437560614,
./basicStim/07F_NE_C.jpg,,0,55,55,34,,,,,,,,,,,None,None,None,None,None,None,NTR,2.097,,,,,,,,,,,,,,,2015_Oct_17_1254,G,facesParametric,15,59.6437560614,
./basicStim/09F_NE_C.jpg,,0,56,56,41,,,,,,,,,,,None,None,None,None,None,None,NTR,0.841,,,,,,,,,,,,,,,2015_Oct_17_1254,G,facesParametric,15,59.6437560614,
./basicStim/23M_SA_C.jpg,,0,57,57,53,,,,,,,,,,,SAD,4.747,None,None,None,None,None,None,,,,,,,,,,,,,,,2015_Oct_17_1254,G,facesParametric,15,59.6437560614,
./basicStim/01F_FE_O.jpg,,0,58,58,2,,,,,,,,,,,None,None,None,None,DIS,5.922,None,None,,,,,,,,,,,,,,,2015_Oct_17_1254,G,facesParametric,15,59.6437560614,
./basicStim/28M_AN_O.jpg,,0,59,59,63,,,,,,,,,,,None,None,None,None,DIS,5.403,None,None,,,,,,,,,,,,,,,2015_Oct_17_1254,G,facesParametric,15,59.6437560614,
./basicStim/03F_SP_O.jpg,,0,60,60,19,,,,,,,,,,,None,None,None,None,SUP,3.794,None,None,,,,,,,,,,,,,,,2015_Oct_17_1254,G,facesParametric,15,59.6437560614,
./basicStim/06F_DI_O.jpg,,0,61,61,22,,,,,,,,,,,None,None,None,None,DIS,4.057,None,None,,,,,,,,,,,,,,,2015_Oct_17_1254,G,facesParametric,15,59.6437560614,
./basicStim/03F_NE_C.jpg,,0,62,62,20,,,,,,,,,,,None,None,None,None,None,None,NTR,1.075,,,,,,,,,,,,,,,2015_Oct_17_1254,G,facesParametric,15,59.6437560614,
./basicStim/21M_SA_C.jpg,,0,63,63,46,,,,,,,,,,,SAD,6.878,None,None,None,None,None,None,,,,,,,,,,,,,,,2015_Oct_17_1254,G,facesParametric,15,59.6437560614,
./basicStim/34M_DI_O.jpg,,0,64,64,71,,,,,,,,,,,None,None,None,None,DIS,2.867,None,None,,,,,,,,,,,,,,,2015_Oct_17_1254,G,facesParametric,15,59.6437560614,
./basicStim/01F_HA_O.jpg,,0,65,65,3,,,,,,,,,,,HAP,1.286,None,None,None,None,None,None,,,,,,,,,,,,,,,2015_Oct_17_1254,G,facesParametric,15,59.6437560614,
./basicStim/21M_DI_O.jpg,,0,66,66,43,,,,,,,,,,,None,None,None,None,DIS,3.856,None,None,,,,,,,,,,,,,,,2015_Oct_17_1254,G,facesParametric,15,59.6437560614,
./basicStim/09F_SP_O.jpg,,0,67,67,40,,,,,,,,,,,None,None,None,None,SUP,1.369,None,None,,,,,,,,,,,,,,,2015_Oct_17_1254,G,facesParametric,15,59.6437560614,
./basicStim/09F_AN_O.jpg,,0,68,68,35,,,,,,,,,,,None,None,ANG,2.454,None,None,None,None,,,,,,,,,,,,,,,2015_Oct_17_1254,G,facesParametric,15,59.6437560614,
./basicStim/01F_SP_O.jpg,,0,69,69,5,,,,,,,,,,,None,None,None,None,SUP,1.763,None,None,,,,,,,,,,,,,,,2015_Oct_17_1254,G,facesParametric,15,59.6437560614,
./basicStim/02F_FE_O.jpg,,0,70,70,9,,,,,,,,,,,None,None,None,None,SUP,5.569,None,None,,,,,,,,,,,,,,,2015_Oct_17_1254,G,facesParametric,15,59.6437560614,
./basicStim/23M_AN_O.jpg,,0,71,71,49,,,,,,,,,,,None,None,ANG,2.367,None,None,None,None,,,,,,,,,,,,,,,2015_Oct_17_1254,G,facesParametric,15,59.6437560614,
./basicStim/01F_DI_O.jpg,,0,72,72,1,,,,,,,,,,,None,None,None,None,DIS,0.977,None,None,,,,,,,,,,,,,,,2015_Oct_17_1254,G,facesParametric,15,59.6437560614,
./basicStim/01F_SA_C.jpg,,0,73,73,4,,,,,,,,,,,SAD,1.263,None,None,None,None,None,None,,,,,,,,,,,,,,,2015_Oct_17_1254,G,facesParametric,15,59.6437560614,
./basicStim/09F_HA_O.jpg,,0,74,74,38,,,,,,,,,,,HAP,1.01,None,None,None,None,None,None,,,,,,,,,,,,,,,2015_Oct_17_1254,G,facesParametric,15,59.6437560614,
./basicStim/24M_SP_O.jpg,,0,75,75,61,,,,,,,,,,,None,None,None,None,SUP,1.945,None,None,,,,,,,,,,,,,,,2015_Oct_17_1254,G,facesParametric,15,59.6437560614,
./basicStim/23M_DI_O.jpg,,0,76,76,50,,,,,,,,,,,SAD,5.156,None,None,None,None,None,None,,,,,,,,,,,,,,,2015_Oct_17_1254,G,facesParametric,15,59.6437560614,
./basicStim/24M_SA_C.jpg,,0,77,77,60,,,,,,,,,,,SAD,6.389,None,None,None,None,None,None,,,,,,,,,,,,,,,2015_Oct_17_1254,G,facesParametric,15,59.6437560614,
./basicStim/28M_SA_C.jpg,,0,78,78,67,,,,,,,,,,,None,None,FEA,4.831,None,None,None,None,,,,,,,,,,,,,,,2015_Oct_17_1254,G,facesParametric,15,59.6437560614,
./basicStim/03F_DI_O.jpg,,0,79,79,15,,,,,,,,,,,None,None,None,None,DIS,2.095,None,None,,,,,,,,,,,,,,,2015_Oct_17_1254,G,facesParametric,15,59.6437560614,
./basicStim/07F_HA_O.jpg,,0,80,80,31,,,,,,,,,,,HAP,1.218,None,None,None,None,None,None,,,,,,,,,,,,,,,2015_Oct_17_1254,G,facesParametric,15,59.6437560614,
./basicStim/23M_SP_O.jpg,,0,81,81,54,,,,,,,,,,,None,None,None,None,SUP,1.395,None,None,,,,,,,,,,,,,,,2015_Oct_17_1254,G,facesParametric,15,59.6437560614,
./basicStim/07F_DI_O.jpg,,0,82,82,29,,,,,,,,,,,None,None,None,None,DIS,1.174,None,None,,,,,,,,,,,,,,,2015_Oct_17_1254,G,facesParametric,15,59.6437560614,
./basicStim/28M_FE_O.jpg,,0,83,83,65,,,,,,,,,,,None,None,FEA,8.358,None,None,None,None,,,,,,,,,,,,,,,2015_Oct_17_1254,G,facesParametric,15,59.6437560614,
,,,,,,,,,,,,,,,,,,,,,,,,return,11.8292789459,,,,,,,,,,,,,2015_Oct_17_1254,G,facesParametric,15,59.6437560614,
,,,,,,,,,,,,,,return,5.47995209694,,,,,,,,,,,,,,,,,,,,,,,2015_Oct_17_1254,G,facesParametric,15,59.6437560614,
,,,,,,,,,,,,,,,,,,,,,,,,return,24.8716289997,,,,,,,,,,,,,2015_Oct_17_1254,G,facesParametric,15,59.6437560614,
,,,,,,,,,,,,,,,,,,,,,,,,,,return,14.0441858768,,,,,,,,,,,2015_Oct_17_1254,G,facesParametric,15,59.6437560614,
./stim/MorphM10_06_orig.jpg,0,,,,,0,0,0,0,,,,,,,,,,,,,,,,,,,16.376953125,3.076171875,0,0,1,9.9677901268,,,,,2015_Oct_17_1254,G,facesParametric,15,59.6437560614,
./stim/MorphF9_03_orig.jpg,1,,,,,0,1,1,1,,,,,,,,,,,,,,,,,,,16.318359375,3.017578125,1,0,0,13.8240351677,,,,,2015_Oct_17_1254,G,facesParametric,15,59.6437560614,
./stim/MorphM4_05_orig.jpg,2,,,,,0,2,2,2,,,,,,,,,,,,,,,,,,,16.318359375,3.017578125,0,0,1,3.97077989578,,,,,2015_Oct_17_1254,G,facesParametric,15,59.6437560614,
./stim/MorphF3_04_orig.jpg,3,,,,,0,3,3,3,,,,,,,,,,,,,,,,,,,16.318359375,3.017578125,1,0,0,2.17758107185,,,,,2015_Oct_17_1254,G,facesParametric,15,59.6437560614,
./stim/MorphM6_04_orig.jpg,4,,,,,0,4,4,4,,,,,,,,,,,,,,,,,,,16.318359375,3.017578125,1,0,0,2.61368393898,,,,,2015_Oct_17_1254,G,facesParametric,15,59.6437560614,
./stim/MorphM10_03_orig.jpg,5,,,,,0,5,5,5,,,,,,,,,,,,,,,,,,,16.318359375,3.017578125,0,0,1,5.4096801281,,,,,2015_Oct_17_1254,G,facesParametric,15,59.6437560614,
./stim/MorphF4_05_orig.jpg,6,,,,,0,6,6,6,,,,,,,,,,,,,,,,,,,16.34765625,2.98828125,1,0,0,7.50686597824,,,,,2015_Oct_17_1254,G,facesParametric,15,59.6437560614,
./stim/MorphF1_06_orig.jpg,7,,,,,0,7,7,7,,,,,,,,,,,,,,,,,,,16.34765625,2.98828125,0,0,1,1.69157600403,,,,,2015_Oct_17_1254,G,facesParametric,15,59.6437560614,
./stim/MorphF10_08_orig.jpg,8,,,,,0,8,8,8,,,,,,,,,,,,,,,,,,,16.34765625,2.98828125,0,0,1,0.820333003998,,,,,2015_Oct_17_1254,G,facesParametric,15,59.6437560614,
./stim/MorphF6_00_orig.jpg,9,,,,,0,9,9,9,,,,,,,,,,,,,,,,,,,16.34765625,2.98828125,1,0,0,2.66250896454,,,,,2015_Oct_17_1254,G,facesParametric,15,59.6437560614,
./stim/MorphM4_06_orig.jpg,10,,,,,0,10,10,10,,,,,,,,,,,,,,,,,,,16.34765625,2.98828125,0,0,1,1.10497689247,,,,,2015_Oct_17_1254,G,facesParametric,15,59.6437560614,
./stim/MorphM7_06_orig.jpg,11,,,,,0,11,11,11,,,,,,,,,,,,,,,,,,,16.46484375,2.958984375,0,0,1,0.853092908859,,,,,2015_Oct_17_1254,G,facesParametric,15,59.6437560614,
./stim/MorphM1_02_orig.jpg,12,,,,,0,12,12,12,,,,,,,,,,,,,,,,,,,16.46484375,2.958984375,1,0,0,2.42890501022,,,,,2015_Oct_17_1254,G,facesParametric,15,59.6437560614,
./stim/MorphM9_04_orig.jpg,13,,,,,0,13,13,13,,,,,,,,,,,,,,,,,,,16.494140625,2.98828125,1,0,0,1.89158296585,,,,,2015_Oct_17_1254,G,facesParametric,15,59.6437560614,
./stim/MorphM1_06_orig.jpg,14,,,,,0,14,14,14,,,,,,,,,,,,,,,,,,,16.494140625,2.98828125,0,0,1,1.42380213737,,,,,2015_Oct_17_1254,G,facesParametric,15,59.6437560614,
./stim/MorphF1_09_orig.jpg,15,,,,,0,15,15,15,,,,,,,,,,,,,,,,,,,16.552734375,2.958984375,0,0,1,0.886646986008,,,,,2015_Oct_17_1254,G,facesParametric,15,59.6437560614,
./stim/MorphM8_07_orig.jpg,16,,,,,0,16,16,16,,,,,,,,,,,,,,,,,,,16.611328125,2.98828125,0,0,1,1.27244091034,,,,,2015_Oct_17_1254,G,facesParametric,15,59.6437560614,
./stim/MorphF10_03_orig.jpg,17,,,,,0,17,17,17,,,,,,,,,,,,,,,,,,,16.69921875,3.017578125,0,0,1,2.21074914932,,,,,2015_Oct_17_1254,G,facesParametric,15,59.6437560614,
./stim/MorphM10_04_orig.jpg,18,,,,,0,18,18,18,,,,,,,,,,,,,,,,,,,16.69921875,3.017578125,0,0,1,1.08628702164,,,,,2015_Oct_17_1254,G,facesParametric,15,59.6437560614,
./stim/MorphF8_03_orig.jpg,19,,,,,0,19,19,19,,,,,,,,,,,,,,,,,,,16.81640625,2.98828125,1,0,0,1.82587909698,,,,,2015_Oct_17_1254,G,facesParametric,15,59.6437560614,
./stim/MorphM1_04_orig.jpg,20,,,,,0,20,20,20,,,,,,,,,,,,,,,,,,,16.81640625,2.98828125,0,0,1,1.16955399513,,,,,2015_Oct_17_1254,G,facesParametric,15,59.6437560614,
./stim/MorphM10_05_orig.jpg,21,,,,,0,21,21,21,,,,,,,,,,,,,,,,,,,16.845703125,3.017578125,0,0,1,0.753126144409,,,,,2015_Oct_17_1254,G,facesParametric,15,59.6437560614,
./stim/MorphF10_09_orig.jpg,22,,,,,0,22,22,22,,,,,,,,,,,,,,,,,,,16.81640625,3.017578125,0,0,1,1.27073907852,,,,,2015_Oct_17_1254,G,facesParametric,15,59.6437560614,
./stim/MorphF9_02_orig.jpg,23,,,,,0,23,23,23,,,,,,,,,,,,,,,,,,,16.81640625,3.017578125,0,0,1,3.20032501221,,,,,2015_Oct_17_1254,G,facesParametric,15,59.6437560614,
./stim/MorphM5_04_orig.jpg,24,,,,,0,24,24,24,,,,,,,,,,,,,,,,,,,17.080078125,3.017578125,0,0,1,12.3845829964,,,,,2015_Oct_17_1254,G,facesParametric,15,59.6437560614,
./stim/MorphM2_02_orig.jpg,25,,,,,0,25,25,25,,,,,,,,,,,,,,,,,,,17.080078125,3.017578125,1,0,0,2.31075501442,,,,,2015_Oct_17_1254,G,facesParametric,15,59.6437560614,
./stim/MorphF5_07_orig.jpg,26,,,,,0,26,26,26,,,,,,,,,,,,,,,,,,,17.05078125,2.98828125,0,0,1,1.35644888878,,,,,2015_Oct_17_1254,G,facesParametric,15,59.6437560614,
./stim/MorphM5_10_orig.jpg,27,,,,,0,27,27,27,,,,,,,,,,,,,,,,,,,17.05078125,2.98828125,0,0,1,0.786601066589,,,,,2015_Oct_17_1254,G,facesParametric,15,59.6437560614,
./stim/MorphM7_00_orig.jpg,28,,,,,0,28,28,28,,,,,,,,,,,,,,,,,,,15.380859375,4.189453125,0,0,1,5.14396500587,,,,,2015_Oct_17_1254,G,facesParametric,15,59.6437560614,
./stim/MorphM8_02_orig.jpg,29,,,,,0,29,29,29,,,,,,,,,,,,,,,,,,,15.52734375,4.16015625,0,0,1,2.67923402786,,,,,2015_Oct_17_1254,G,facesParametric,15,59.6437560614,
./stim/MorphF7_10_orig.jpg,30,,,,,0,30,30,30,,,,,,,,,,,,,,,,,,,15.556640625,4.16015625,0,0,1,3.98753905296,,,,,2015_Oct_17_1254,G,facesParametric,15,59.6437560614,
./stim/MorphF9_08_orig.jpg,31,,,,,0,31,31,31,,,,,,,,,,,,,,,,,,,15.5859375,4.189453125,0,0,1,3.2499089241,,,,,2015_Oct_17_1254,G,facesParametric,15,59.6437560614,
./stim/MorphM10_02_orig.jpg,32,,,,,0,32,32,32,,,,,,,,,,,,,,,,,,,15.615234375,4.21875,1,0,0,9.0660879612,,,,,2015_Oct_17_1254,G,facesParametric,15,59.6437560614,
./stim/MorphF6_03_orig.jpg,33,,,,,0,33,33,33,,,,,,,,,,,,,,,,,,,15.615234375,4.21875,1,0,0,3.28239321709,,,,,2015_Oct_17_1254,G,facesParametric,15,59.6437560614,
./stim/MorphM5_07_orig.jpg,34,,,,,0,34,34,34,,,,,,,,,,,,,,,,,,,15.615234375,4.21875,0,0,1,1.85898900032,,,,,2015_Oct_17_1254,G,facesParametric,15,59.6437560614,
./stim/MorphF6_01_orig.jpg,35,,,,,0,35,35,35,,,,,,,,,,,,,,,,,,,15.64453125,4.248046875,1,0,0,3.16622710228,,,,,2015_Oct_17_1254,G,facesParametric,15,59.6437560614,
./stim/MorphM10_01_orig.jpg,36,,,,,0,36,36,36,,,,,,,,,,,,,,,,,,,15.64453125,4.248046875,1,0,0,1.74172902107,,,,,2015_Oct_17_1254,G,facesParametric,15,59.6437560614,
./stim/MorphF3_03_orig.jpg,37,,,,,0,37,37,37,,,,,,,,,,,,,,,,,,,15.703125,4.248046875,1,0,0,2.64557814598,,,,,2015_Oct_17_1254,G,facesParametric,15,59.6437560614,
./stim/MorphF7_02_orig.jpg,38,,,,,0,38,38,38,,,,,,,,,,,,,,,,,,,15.703125,4.248046875,1,0,0,3.68461704254,,,,,2015_Oct_17_1254,G,facesParametric,15,59.6437560614,
./stim/MorphM5_08_orig.jpg,39,,,,,0,39,39,39,,,,,,,,,,,,,,,,,,,15.703125,4.248046875,0,0,1,1.08818912506,,,,,2015_Oct_17_1254,G,facesParametric,15,59.6437560614,
./stim/MorphF8_00_orig.jpg,40,,,,,0,40,40,40,,,,,,,,,,,,,,,,,,,15.908203125,4.27734375,1,0,0,1.37162804604,,,,,2015_Oct_17_1254,G,facesParametric,15,59.6437560614,
./stim/MorphM9_10_orig.jpg,41,,,,,0,41,41,41,,,,,,,,,,,,,,,,,,,15.908203125,4.27734375,0,0,1,0.870354175568,,,,,2015_Oct_17_1254,G,facesParametric,15,59.6437560614,
./stim/MorphF5_01_orig.jpg,42,,,,,0,42,42,42,,,,,,,,,,,,,,,,,,,15.9375,4.365234375,1,0,0,4.27231907845,,,,,2015_Oct_17_1254,G,facesParametric,15,59.6437560614,
./stim/MorphF2_00_orig.jpg,43,,,,,0,43,43,43,,,,,,,,,,,,,,,,,,,15.908203125,4.365234375,1,0,0,2.92956185341,,,,,2015_Oct_17_1254,G,facesParametric,15,59.6437560614,
./stim/MorphF10_02_orig.jpg,44,,,,,0,44,44,44,,,,,,,,,,,,,,,,,,,15.439453125,4.365234375,0,0,1,10.1222047806,,,,,2015_Oct_17_1254,G,facesParametric,15,59.6437560614,
./stim/MorphM7_02_orig.jpg,45,,,,,0,45,45,45,,,,,,,,,,,,,,,,,,,15.8203125,4.189453125,0,0,1,10.2553629875,,,,,2015_Oct_17_1254,G,facesParametric,15,59.6437560614,
./stim/MorphF6_07_orig.jpg,46,,,,,0,46,46,46,,,,,,,,,,,,,,,,,,,15.791015625,4.21875,0,0,1,1.30595088005,,,,,2015_Oct_17_1254,G,facesParametric,15,59.6437560614,
./stim/MorphM4_09_orig.jpg,47,,,,,0,47,47,47,,,,,,,,,,,,,,,,,,,15.791015625,4.21875,0,0,1,1.20476317406,,,,,2015_Oct_17_1254,G,facesParametric,15,59.6437560614,
./stim/MorphM8_04_orig.jpg,48,,,,,0,48,48,48,,,,,,,,,,,,,,,,,,,15.791015625,4.21875,0,0,1,1.89268112183,,,,,2015_Oct_17_1254,G,facesParametric,15,59.6437560614,
./stim/MorphF8_05_orig.jpg,49,,,,,0,49,49,49,,,,,,,,,,,,,,,,,,,15.791015625,4.1015625,1,0,0,2.86220598221,,,,,2015_Oct_17_1254,G,facesParametric,15,59.6437560614,
./stim/MorphF6_06_orig.jpg,50,,,,,0,50,50,50,,,,,,,,,,,,,,,,,,,16.201171875,4.1015625,1,0,0,3.90417313576,,,,,2015_Oct_17_1254,G,facesParametric,15,59.6437560614,
./stim/MorphF2_03_orig.jpg,51,,,,,0,51,51,51,,,,,,,,,,,,,,,,,,,16.318359375,4.1015625,1,0,0,5.3270919323,,,,,2015_Oct_17_1254,G,facesParametric,15,59.6437560614,
./stim/MorphM2_10_orig.jpg,52,,,,,0,52,52,52,,,,,,,,,,,,,,,,,,,16.34765625,4.1015625,0,0,1,3.08300304413,,,,,2015_Oct_17_1254,G,facesParametric,15,59.6437560614,
./stim/MorphF9_07_orig.jpg,53,,,,,0,53,53,53,,,,,,,,,,,,,,,,,,,16.494140625,4.130859375,0,0,1,1.8924241066,,,,,2015_Oct_17_1254,G,facesParametric,15,59.6437560614,
./stim/MorphM3_07_orig.jpg,54,,,,,0,54,54,54,,,,,,,,,,,,,,,,,,,16.5234375,4.1015625,0,0,1,0.870311021805,,,,,2015_Oct_17_1254,G,facesParametric,15,59.6437560614,
./stim/MorphM4_01_orig.jpg,55,,,,,0,55,55,55,,,,,,,,,,,,,,,,,,,16.552734375,4.072265625,1,0,0,1.69130277634,,,,,2015_Oct_17_1254,G,facesParametric,15,59.6437560614,
./stim/MorphM9_08_orig.jpg,56,,,,,0,56,56,56,,,,,,,,,,,,,,,,,,,16.58203125,4.072265625,0,0,1,1.45709609985,,,,,2015_Oct_17_1254,G,facesParametric,15,59.6437560614,
./stim/MorphM7_04_orig.jpg,57,,,,,0,57,57,57,,,,,,,,,,,,,,,,,,,16.611328125,4.04296875,0,0,1,1.67476391792,,,,,2015_Oct_17_1254,G,facesParametric,15,59.6437560614,
./stim/MorphM6_08_orig.jpg,58,,,,,0,58,58,58,,,,,,,,,,,,,,,,,,,16.640625,4.072265625,1,0,0,1.322701931,,,,,2015_Oct_17_1254,G,facesParametric,15,59.6437560614,
./stim/MorphM7_08_orig.jpg,59,,,,,0,59,59,59,,,,,,,,,,,,,,,,,,,16.669921875,4.072265625,0,0,1,1.38997602463,,,,,2015_Oct_17_1254,G,facesParametric,15,59.6437560614,
./stim/MorphF9_09_orig.jpg,60,,,,,0,60,60,60,,,,,,,,,,,,,,,,,,,16.669921875,4.072265625,0,0,1,1.89097881317,,,,,2015_Oct_17_1254,G,facesParametric,15,59.6437560614,
./stim/MorphF10_06_orig.jpg,61,,,,,0,61,61,61,,,,,,,,,,,,,,,,,,,16.728515625,4.072265625,0,0,1,1.13824009895,,,,,2015_Oct_17_1254,G,facesParametric,15,59.6437560614,
./stim/MorphM4_03_orig.jpg,62,,,,,0,62,62,62,,,,,,,,,,,,,,,,,,,16.728515625,4.072265625,1,0,0,3.36737108231,,,,,2015_Oct_17_1254,G,facesParametric,15,59.6437560614,
./stim/MorphM6_03_orig.jpg,63,,,,,0,63,63,63,,,,,,,,,,,,,,,,,,,16.728515625,4.072265625,1,0,0,1.18855714798,,,,,2015_Oct_17_1254,G,facesParametric,15,59.6437560614,
./stim/MorphM3_02_orig.jpg,64,,,,,0,64,64,64,,,,,,,,,,,,,,,,,,,16.2890625,4.365234375,1,0,0,1.94070196152,,,,,2015_Oct_17_1254,G,facesParametric,15,59.6437560614,
./stim/MorphF3_06_orig.jpg,65,,,,,0,65,65,65,,,,,,,,,,,,,,,,,,,16.23046875,4.39453125,1,0,0,0.835646152496,,,,,2015_Oct_17_1254,G,facesParametric,15,59.6437560614,
./stim/MorphM1_07_orig.jpg,66,,,,,0,66,66,66,,,,,,,,,,,,,,,,,,,16.171875,4.62890625,0,0,1,2.05998086929,,,,,2015_Oct_17_1254,G,facesParametric,15,59.6437560614,
./stim/MorphF4_10_orig.jpg,67,,,,,0,67,67,67,,,,,,,,,,,,,,,,,,,16.201171875,4.6875,0,0,1,0.919959068298,,,,,2015_Oct_17_1254,G,facesParametric,15,59.6437560614,
./stim/MorphF7_06_orig.jpg,68,,,,,0,68,68,68,,,,,,,,,,,,,,,,,,,16.318359375,4.716796875,0,0,1,1.79154109955,,,,,2015_Oct_17_1254,G,facesParametric,15,59.6437560614,
./stim/MorphM7_03_orig.jpg,69,,,,,0,69,69,69,,,,,,,,,,,,,,,,,,,16.376953125,4.74609375,0,0,1,1.75854611397,,,,,2015_Oct_17_1254,G,facesParametric,15,59.6437560614,
./stim/MorphM3_06_orig.jpg,70,,,,,0,70,70,70,,,,,,,,,,,,,,,,,,,16.611328125,4.8046875,0,0,1,9.40119290352,,,,,2015_Oct_17_1254,G,facesParametric,15,59.6437560614,
./stim/MorphF1_10_orig.jpg,71,,,,,0,71,71,71,,,,,,,,,,,,,,,,,,,16.640625,4.8046875,0,0,1,2.51347208023,,,,,2015_Oct_17_1254,G,facesParametric,15,59.6437560614,
./stim/MorphF7_03_orig.jpg,72,,,,,0,72,72,72,,,,,,,,,,,,,,,,,,,16.669921875,4.8046875,1,0,0,1.60588097572,,,,,2015_Oct_17_1254,G,facesParametric,15,59.6437560614,
./stim/MorphF10_01_orig.jpg,73,,,,,0,73,73,73,,,,,,,,,,,,,,,,,,,16.669921875,4.8046875,1,0,0,0.719681978226,,,,,2015_Oct_17_1254,G,facesParametric,15,59.6437560614,
./stim/MorphF6_08_orig.jpg,74,,,,,0,74,74,74,,,,,,,,,,,,,,,,,,,16.669921875,4.8046875,0,0,1,1.06892704964,,,,,2015_Oct_17_1254,G,facesParametric,15,59.6437560614,
./stim/MorphM8_10_orig.jpg,75,,,,,0,75,75,75,,,,,,,,,,,,,,,,,,,16.142578125,4.98046875,0,0,1,3.80311799049,,,,,2015_Oct_17_1254,G,facesParametric,15,59.6437560614,
./stim/MorphM9_03_orig.jpg,76,,,,,0,76,76,76,,,,,,,,,,,,,,,,,,,16.34765625,5.068359375,1,0,0,1.22286200523,,,,,2015_Oct_17_1254,G,facesParametric,15,59.6437560614,
./stim/MorphM3_10_orig.jpg,77,,,,,0,77,77,77,,,,,,,,,,,,,,,,,,,16.40625,5.09765625,0,0,1,1.07091188431,,,,,2015_Oct_17_1254,G,facesParametric,15,59.6437560614,
./stim/MorphM1_05_orig.jpg,78,,,,,0,78,78,78,,,,,,,,,,,,,,,,,,,16.46484375,5.09765625,1,0,0,2.86465001106,,,,,2015_Oct_17_1254,G,facesParametric,15,59.6437560614,
./stim/MorphM10_10_orig.jpg,79,,,,,0,79,79,79,,,,,,,,,,,,,,,,,,,16.46484375,5.09765625,0,0,1,1.10453891754,,,,,2015_Oct_17_1254,G,facesParametric,15,59.6437560614,
./stim/MorphM1_10_orig.jpg,80,,,,,0,80,80,80,,,,,,,,,,,,,,,,,,,16.611328125,5.126953125,0,0,1,1.74214100838,,,,,2015_Oct_17_1254,G,facesParametric,15,59.6437560614,
./stim/MorphF5_03_orig.jpg,81,,,,,0,81,81,81,,,,,,,,,,,,,,,,,,,16.787109375,5.126953125,1,0,0,2.56277298927,,,,,2015_Oct_17_1254,G,facesParametric,15,59.6437560614,
./stim/MorphM5_06_orig.jpg,82,,,,,0,82,82,82,,,,,,,,,,,,,,,,,,,17.021484375,5.0390625,0,0,1,1.57426285744,,,,,2015_Oct_17_1254,G,facesParametric,15,59.6437560614,
./stim/MorphM10_08_orig.jpg,83,,,,,0,83,83,83,,,,,,,,,,,,,,,,,,,17.109375,5.009765625,0,0,1,2.862885952,,,,,2015_Oct_17_1254,G,facesParametric,15,59.6437560614,
./stim/MorphM1_03_orig.jpg,84,,,,,0,84,84,84,,,,,,,,,,,,,,,,,,,17.16796875,5.009765625,1,0,0,2.6300740242,,,,,2015_Oct_17_1254,G,facesParametric,15,59.6437560614,
./stim/MorphF3_02_orig.jpg,85,,,,,0,85,85,85,,,,,,,,,,,,,,,,,,,17.197265625,4.98046875,1,0,0,1.1717479229,,,,,2015_Oct_17_1254,G,facesParametric,15,59.6437560614,
./stim/MorphM3_08_orig.jpg,86,,,,,0,86,86,86,,,,,,,,,,,,,,,,,,,17.197265625,4.98046875,0,0,1,0.954324007034,,,,,2015_Oct_17_1254,G,facesParametric,15,59.6437560614,
./stim/MorphM9_06_orig.jpg,87,,,,,0,87,87,87,,,,,,,,,,,,,,,,,,,19.599609375,4.833984375,1,0,0,3.18289208412,,,,,2015_Oct_17_1254,G,facesParametric,15,59.6437560614,
./stim/MorphM4_08_orig.jpg,88,,,,,0,88,88,88,,,,,,,,,,,,,,,,,,,19.658203125,4.8046875,0,0,1,2.412555933,,,,,2015_Oct_17_1254,G,facesParametric,15,59.6437560614,
./stim/MorphM1_00_orig.jpg,89,,,,,0,89,89,89,,,,,,,,,,,,,,,,,,,19.716796875,4.8046875,1,0,0,1.45584607124,,,,,2015_Oct_17_1254,G,facesParametric,15,59.6437560614,
./stim/MorphF5_00_orig.jpg,90,,,,,0,90,90,90,,,,,,,,,,,,,,,,,,,19.86328125,4.8046875,1,0,0,4.25521111488,,,,,2015_Oct_17_1254,G,facesParametric,15,59.6437560614,
./stim/MorphM3_00_orig.jpg,91,,,,,0,91,91,91,,,,,,,,,,,,,,,,,,,19.541015625,4.8046875,0,0,1,4.3229470253,,,,,2015_Oct_17_1254,G,facesParametric,15,59.6437560614,
./stim/MorphF6_10_orig.jpg,92,,,,,0,92,92,92,,,,,,,,,,,,,,,,,,,18.896484375,4.98046875,0,0,1,0.685939073563,,,,,2015_Oct_17_1254,G,facesParametric,15,59.6437560614,
./stim/MorphF9_01_orig.jpg,93,,,,,0,93,93,93,,,,,,,,,,,,,,,,,,,19.189453125,4.86328125,0,0,1,0.769632816315,,,,,2015_Oct_17_1254,G,facesParametric,15,59.6437560614,
./stim/MorphM9_05_orig.jpg,94,,,,,0,94,94,94,,,,,,,,,,,,,,,,,,,19.599609375,4.62890625,0,0,1,1.25569319725,,,,,2015_Oct_17_1254,G,facesParametric,15,59.6437560614,
./stim/MorphF4_07_orig.jpg,95,,,,,0,95,95,95,,,,,,,,,,,,,,,,,,,19.599609375,4.62890625,0,0,1,1.15495109558,,,,,2015_Oct_17_1254,G,facesParametric,15,59.6437560614,
./stim/MorphF2_05_orig.jpg,96,,,,,0,96,96,96,,,,,,,,,,,,,,,,,,,20.009765625,4.599609375,0,0,1,4.52382087708,,,,,2015_Oct_17_1254,G,facesParametric,15,59.6437560614,
./stim/MorphF4_00_orig.jpg,97,,,,,0,97,97,97,,,,,,,,,,,,,,,,,,,20.0390625,4.5703125,0,0,1,1.12208604813,,,,,2015_Oct_17_1254,G,facesParametric,15,59.6437560614,
./stim/MorphM4_02_orig.jpg,98,,,,,0,98,98,98,,,,,,,,,,,,,,,,,,,20.0390625,4.5703125,0,0,1,0.886828899384,,,,,2015_Oct_17_1254,G,facesParametric,15,59.6437560614,
./stim/MorphM5_03_orig.jpg,99,,,,,0,99,99,99,,,,,,,,,,,,,,,,,,,20.244140625,4.541015625,0,0,1,3.03223490715,,,,,2015_Oct_17_1254,G,facesParametric,15,59.6437560614,
./stim/MorphM7_07_orig.jpg,100,,,,,0,100,100,100,,,,,,,,,,,,,,,,,,,20.244140625,4.541015625,0,0,1,0.835427999496,,,,,2015_Oct_17_1254,G,facesParametric,15,59.6437560614,
./stim/MorphF9_06_orig.jpg,101,,,,,0,101,101,101,,,,,,,,,,,,,,,,,,,20.390625,4.51171875,0,0,1,0.76949596405,,,,,2015_Oct_17_1254,G,facesParametric,15,59.6437560614,
./stim/MorphF4_09_orig.jpg,102,,,,,0,102,102,102,,,,,,,,,,,,,,,,,,,20.419921875,4.482421875,0,0,1,0.753404140472,,,,,2015_Oct_17_1254,G,facesParametric,15,59.6437560614,
./stim/MorphF2_02_orig.jpg,103,,,,,0,103,103,103,,,,,,,,,,,,,,,,,,,20.44921875,4.453125,0,0,1,0.919333934784,,,,,2015_Oct_17_1254,G,facesParametric,15,59.6437560614,
./stim/MorphM5_02_orig.jpg,104,,,,,0,104,104,104,,,,,,,,,,,,,,,,,,,21.005859375,4.453125,0,0,1,2.91529583931,,,,,2015_Oct_17_1254,G,facesParametric,15,59.6437560614,
./stim/MorphF10_07_orig.jpg,105,,,,,0,105,105,105,,,,,,,,,,,,,,,,,,,21.03515625,4.453125,0,0,1,1.72508001328,,,,,2015_Oct_17_1254,G,facesParametric,15,59.6437560614,
./stim/MorphM6_05_orig.jpg,106,,,,,0,106,106,106,,,,,,,,,,,,,,,,,,,21.03515625,4.453125,1,0,0,2.68026280403,,,,,2015_Oct_17_1254,G,facesParametric,15,59.6437560614,
./stim/MorphF6_09_orig.jpg,107,,,,,0,107,107,107,,,,,,,,,,,,,,,,,,,21.03515625,4.453125,0,0,1,1.35594677925,,,,,2015_Oct_17_1254,G,facesParametric,15,59.6437560614,
./stim/MorphF2_01_orig.jpg,108,,,,,0,108,108,108,,,,,,,,,,,,,,,,,,,21.03515625,4.453125,1,0,0,4.3732521534,,,,,2015_Oct_17_1254,G,facesParametric,15,59.6437560614,
./stim/MorphM4_07_orig.jpg,109,,,,,0,109,109,109,,,,,,,,,,,,,,,,,,,21.03515625,4.453125,0,0,1,2.7472410202,,,,,2015_Oct_17_1254,G,facesParametric,15,59.6437560614,
./stim/MorphF7_07_orig.jpg,110,,,,,0,110,110,110,,,,,,,,,,,,,,,,,,,21.03515625,4.453125,0,0,1,1.79176282883,,,,,2015_Oct_17_1254,G,facesParametric,15,59.6437560614,
./stim/MorphM1_08_orig.jpg,111,,,,,0,111,111,111,,,,,,,,,,,,,,,,,,,20.185546875,4.21875,0,0,1,1.50711798668,,,,,2015_Oct_17_1254,G,facesParametric,15,59.6437560614,
./stim/MorphF2_08_orig.jpg,112,,,,,0,112,112,112,,,,,,,,,,,,,,,,,,,20.21484375,4.1015625,0,0,1,1.07107591629,,,,,2015_Oct_17_1254,G,facesParametric,15,59.6437560614,
./stim/MorphF5_02_orig.jpg,113,,,,,0,113,113,113,,,,,,,,,,,,,,,,,,,20.830078125,3.955078125,0,0,1,3.85249304771,,,,,2015_Oct_17_1254,G,facesParametric,15,59.6437560614,
./stim/MorphM7_01_orig.jpg,114,,,,,0,114,114,114,,,,,,,,,,,,,,,,,,,21.064453125,3.984375,1,0,0,7.1049580574,,,,,2015_Oct_17_1254,G,facesParametric,15,59.6437560614,
./stim/MorphM2_04_orig.jpg,115,,,,,0,115,115,115,,,,,,,,,,,,,,,,,,,20.625,3.955078125,1,0,0,0.767671823502,,,,,2015_Oct_17_1254,G,facesParametric,15,59.6437560614,
./stim/MorphF9_04_orig.jpg,116,,,,,0,116,116,116,,,,,,,,,,,,,,,,,,,20.44921875,3.896484375,1,0,0,0.70275592804,,,,,2015_Oct_17_1254,G,facesParametric,15,59.6437560614,
./stim/MorphF2_09_orig.jpg,117,,,,,0,117,117,117,,,,,,,,,,,,,,,,,,,20.44921875,3.896484375,0,0,1,0.854499101639,,,,,2015_Oct_17_1254,G,facesParametric,15,59.6437560614,
./stim/MorphF4_06_orig.jpg,118,,,,,0,118,118,118,,,,,,,,,,,,,,,,,,,20.44921875,3.896484375,0,0,1,2.84724712372,,,,,2015_Oct_17_1254,G,facesParametric,15,59.6437560614,
./stim/MorphM3_09_orig.jpg,119,,,,,0,119,119,119,,,,,,,,,,,,,,,,,,,20.44921875,3.896484375,0,0,1,2.67958807945,,,,,2015_Oct_17_1254,G,facesParametric,15,59.6437560614,
./stim/MorphM2_07_orig.jpg,120,,,,,0,120,120,120,,,,,,,,,,,,,,,,,,,20.478515625,3.896484375,0,0,1,1.75698900223,,,,,2015_Oct_17_1254,G,facesParametric,15,59.6437560614,
./stim/MorphF3_10_orig.jpg,121,,,,,0,121,121,121,,,,,,,,,,,,,,,,,,,20.478515625,3.896484375,0,0,1,3.78411102295,,,,,2015_Oct_17_1254,G,facesParametric,15,59.6437560614,
./stim/MorphF5_05_orig.jpg,122,,,,,0,122,122,122,,,,,,,,,,,,,,,,,,,20.185546875,4.51171875,1,0,0,2.34421014786,,,,,2015_Oct_17_1254,G,facesParametric,15,59.6437560614,
./stim/MorphF7_09_orig.jpg,123,,,,,0,123,123,123,,,,,,,,,,,,,,,,,,,20.126953125,4.658203125,0,0,1,1.08772802353,,,,,2015_Oct_17_1254,G,facesParametric,15,59.6437560614,
./stim/MorphF3_08_orig.jpg,124,,,,,0,124,124,124,,,,,,,,,,,,,,,,,,,20.068359375,4.8046875,0,0,1,2.17598581314,,,,,2015_Oct_17_1254,G,facesParametric,15,59.6437560614,
./stim/MorphM5_09_orig.jpg,125,,,,,0,125,125,125,,,,,,,,,,,,,,,,,,,20.068359375,4.86328125,0,0,1,0.786549091339,,,,,2015_Oct_17_1254,G,facesParametric,15,59.6437560614,
./stim/MorphF3_01_orig.jpg,126,,,,,0,126,126,126,,,,,,,,,,,,,,,,,,,20.068359375,4.921875,1,0,0,2.64740490913,,,,,2015_Oct_17_1254,G,facesParametric,15,59.6437560614,
./stim/MorphM9_07_orig.jpg,127,,,,,0,127,127,127,,,,,,,,,,,,,,,,,,,20.244140625,4.833984375,0,0,1,2.27757787704,,,,,2015_Oct_17_1254,G,facesParametric,15,59.6437560614,
./stim/MorphF10_00_orig.jpg,128,,,,,0,128,128,128,,,,,,,,,,,,,,,,,,,20.2734375,4.86328125,1,0,0,2.06009101868,,,,,2015_Oct_17_1254,G,facesParametric,15,59.6437560614,
./stim/MorphM6_01_orig.jpg,129,,,,,0,129,129,129,,,,,,,,,,,,,,,,,,,20.2734375,4.86328125,1,0,0,0.768975973129,,,,,2015_Oct_17_1254,G,facesParametric,15,59.6437560614,
./stim/MorphF1_02_orig.jpg,130,,,,,0,130,130,130,,,,,,,,,,,,,,,,,,,20.2734375,4.86328125,1,0,0,1.90976405144,,,,,2015_Oct_17_1254,G,facesParametric,15,59.6437560614,
./stim/MorphF8_09_orig.jpg,131,,,,,0,131,131,131,,,,,,,,,,,,,,,,,,,20.2734375,4.86328125,0,0,1,0.919875860214,,,,,2015_Oct_17_1254,G,facesParametric,15,59.6437560614,
./stim/MorphM2_03_orig.jpg,132,,,,,0,132,132,132,,,,,,,,,,,,,,,,,,,20.33203125,4.892578125,1,0,0,1.00423598289,,,,,2015_Oct_17_1254,G,facesParametric,15,59.6437560614,
./stim/MorphF4_03_orig.jpg,133,,,,,0,133,133,133,,,,,,,,,,,,,,,,,,,20.33203125,4.892578125,1,0,0,0.90330696106,,,,,2015_Oct_17_1254,G,facesParametric,15,59.6437560614,
./stim/MorphM3_03_orig.jpg,134,,,,,0,134,134,134,,,,,,,,,,,,,,,,,,,20.33203125,4.892578125,0,0,1,1.97589993477,,,,,2015_Oct_17_1254,G,facesParametric,15,59.6437560614,
./stim/MorphM8_01_orig.jpg,135,,,,,0,135,135,135,,,,,,,,,,,,,,,,,,,20.361328125,4.921875,1,0,0,1.28959107399,,,,,2015_Oct_17_1254,G,facesParametric,15,59.6437560614,
./stim/MorphF7_05_orig.jpg,136,,,,,0,136,136,136,,,,,,,,,,,,,,,,,,,20.419921875,4.951171875,1,0,0,2.21063399315,,,,,2015_Oct_17_1254,G,facesParametric,15,59.6437560614,
./stim/MorphF3_09_orig.jpg,137,,,,,0,137,137,137,,,,,,,,,,,,,,,,,,,21.5625,5.654296875,0,0,1,3.26715183258,,,,,2015_Oct_17_1254,G,facesParametric,15,59.6437560614,
./stim/MorphM8_08_orig.jpg,138,,,,,0,138,138,138,,,,,,,,,,,,,,,,,,,22.3828125,5.244140625,0,0,1,2.71389698982,,,,,2015_Oct_17_1254,G,facesParametric,15,59.6437560614,
./stim/MorphF1_04_orig.jpg,139,,,,,0,139,139,139,,,,,,,,,,,,,,,,,,,22.470703125,5.21484375,1,0,0,1.97382998466,,,,,2015_Oct_17_1254,G,facesParametric,15,59.6437560614,
./stim/MorphM10_07_orig.jpg,140,,,,,0,140,140,140,,,,,,,,,,,,,,,,,,,22.470703125,5.21484375,0,0,1,1.03813385963,,,,,2015_Oct_17_1254,G,facesParametric,15,59.6437560614,
./stim/MorphF8_02_orig.jpg,141,,,,,0,141,141,141,,,,,,,,,,,,,,,,,,,22.529296875,5.21484375,1,0,0,0.836667060852,,,,,2015_Oct_17_1254,G,facesParametric,15,59.6437560614,
./stim/MorphM2_00_orig.jpg,142,,,,,0,142,142,142,,,,,,,,,,,,,,,,,,,22.646484375,5.185546875,1,0,0,0.651527166367,,,,,2015_Oct_17_1254,G,facesParametric,15,59.6437560614,
./stim/MorphF2_04_orig.jpg,143,,,,,0,143,143,143,,,,,,,,,,,,,,,,,,,22.705078125,5.185546875,0,0,1,1.00429105759,,,,,2015_Oct_17_1254,G,facesParametric,15,59.6437560614,
./stim/MorphF10_05_orig.jpg,144,,,,,0,144,144,144,,,,,,,,,,,,,,,,,,,22.763671875,5.185546875,0,0,1,0.903747081757,,,,,2015_Oct_17_1254,G,facesParametric,15,59.6437560614,
./stim/MorphM6_02_orig.jpg,145,,,,,0,145,145,145,,,,,,,,,,,,,,,,,,,22.939453125,5.15625,1,0,0,0.969887018204,,,,,2015_Oct_17_1254,G,facesParametric,15,59.6437560614,
./stim/MorphF5_08_orig.jpg,146,,,,,0,146,146,146,,,,,,,,,,,,,,,,,,,23.056640625,5.15625,0,0,1,1.07023906708,,,,,2015_Oct_17_1254,G,facesParametric,15,59.6437560614,
./stim/MorphF10_10_orig.jpg,147,,,,,0,147,147,147,,,,,,,,,,,,,,,,,,,23.056640625,5.15625,0,0,1,1.47173595428,,,,,2015_Oct_17_1254,G,facesParametric,15,59.6437560614,
./stim/MorphF4_01_orig.jpg,148,,,,,0,148,148,148,,,,,,,,,,,,,,,,,,,23.203125,5.15625,1,0,0,0.836437940598,,,,,2015_Oct_17_1254,G,facesParametric,15,59.6437560614,
./stim/MorphF6_02_orig.jpg,149,,,,,0,149,149,149,,,,,,,,,,,,,,,,,,,23.232421875,5.15625,1,0,0,1.35576200485,,,,,2015_Oct_17_1254,G,facesParametric,15,59.6437560614,
./stim/MorphF7_01_orig.jpg,150,,,,,0,150,150,150,,,,,,,,,,,,,,,,,,,23.26171875,5.15625,1,0,0,1.30605006218,,,,,2015_Oct_17_1254,G,facesParametric,15,59.6437560614,
./stim/MorphF2_10_orig.jpg,151,,,,,0,151,151,151,,,,,,,,,,,,,,,,,,,23.26171875,5.15625,0,0,1,0.837092161179,,,,,2015_Oct_17_1254,G,facesParametric,15,59.6437560614,
./stim/MorphF4_04_orig.jpg,152,,,,,0,152,152,152,,,,,,,,,,,,,,,,,,,23.408203125,5.5078125,1,0,0,4.01952910423,,,,,2015_Oct_17_1254,G,facesParametric,15,59.6437560614,
./stim/MorphF1_03_orig.jpg,153,,,,,0,153,153,153,,,,,,,,,,,,,,,,,,,23.408203125,5.419921875,1,0,0,4.07108283043,,,,,2015_Oct_17_1254,G,facesParametric,15,59.6437560614,
./stim/MorphF9_10_orig.jpg,154,,,,,0,154,154,154,,,,,,,,,,,,,,,,,,,23.408203125,5.419921875,0,0,1,0.887161016464,,,,,2015_Oct_17_1254,G,facesParametric,15,59.6437560614,
./stim/MorphF8_06_orig.jpg,155,,,,,0,155,155,155,,,,,,,,,,,,,,,,,,,23.408203125,5.390625,1,0,0,2.39560198784,,,,,2015_Oct_17_1254,G,facesParametric,15,59.6437560614,
./stim/MorphM6_06_orig.jpg,156,,,,,0,156,156,156,,,,,,,,,,,,,,,,,,,18.017578125,-3.193359375,1,0,0,5.6121327877,,,,,2015_Oct_17_1254,G,facesParametric,15,59.6437560614,
./stim/MorphF1_05_orig.jpg,157,,,,,0,157,157,157,,,,,,,,,,,,,,,,,,,18.017578125,-3.193359375,1,0,0,0.953933000565,,,,,2015_Oct_17_1254,G,facesParametric,15,59.6437560614,
./stim/MorphM4_00_orig.jpg,158,,,,,0,158,158,158,,,,,,,,,,,,,,,,,,,17.9296875,-4.130859375,1,0,0,7.28938484192,,,,,2015_Oct_17_1254,G,facesParametric,15,59.6437560614,
./stim/MorphF1_01_orig.jpg,159,,,,,0,159,159,159,,,,,,,,,,,,,,,,,,,17.9296875,-4.130859375,1,0,0,5.44361591339,,,,,2015_Oct_17_1254,G,facesParametric,15,59.6437560614,
./stim/MorphF4_08_orig.jpg,160,,,,,0,160,160,160,,,,,,,,,,,,,,,,,,,17.9296875,-4.130859375,0,0,1,0.870189905167,,,,,2015_Oct_17_1254,G,facesParametric,15,59.6437560614,
./stim/MorphM4_04_orig.jpg,161,,,,,0,161,161,161,,,,,,,,,,,,,,,,,,,17.900390625,-4.189453125,0,0,1,0.903447151184,,,,,2015_Oct_17_1254,G,facesParametric,15,59.6437560614,
./stim/MorphF3_07_orig.jpg,162,,,,,0,162,162,162,,,,,,,,,,,,,,,,,,,17.900390625,-4.189453125,0,0,1,1.05473589897,,,,,2015_Oct_17_1254,G,facesParametric,15,59.6437560614,
./stim/MorphF8_04_orig.jpg,163,,,,,0,163,163,163,,,,,,,,,,,,,,,,,,,17.900390625,-4.189453125,0,0,1,0.652410030365,,,,,2015_Oct_17_1254,G,facesParametric,15,59.6437560614,
./stim/MorphM7_09_orig.jpg,164,,,,,0,164,164,164,,,,,,,,,,,,,,,,,,,17.900390625,-4.189453125,0,0,1,2.5294919014,,,,,2015_Oct_17_1254,G,facesParametric,15,59.6437560614,
./stim/MorphF8_08_orig.jpg,165,,,,,0,165,165,165,,,,,,,,,,,,,,,,,,,17.9296875,-4.21875,0,0,1,1.72421503067,,,,,2015_Oct_17_1254,G,facesParametric,15,59.6437560614,
./stim/MorphF5_06_orig.jpg,166,,,,,0,166,166,166,,,,,,,,,,,,,,,,,,,17.9296875,-4.21875,0,0,1,1.60724806786,,,,,2015_Oct_17_1254,G,facesParametric,15,59.6437560614,
./stim/MorphF4_02_orig.jpg,167,,,,,0,167,167,167,,,,,,,,,,,,,,,,,,,17.9296875,-4.21875,1,0,0,0.987856864929,,,,,2015_Oct_17_1254,G,facesParametric,15,59.6437560614,
./stim/MorphM2_06_orig.jpg,168,,,,,0,168,168,168,,,,,,,,,,,,,,,,,,,17.9296875,-4.21875,0,0,1,2.10932397842,,,,,2015_Oct_17_1254,G,facesParametric,15,59.6437560614,
./stim/MorphM9_09_orig.jpg,169,,,,,0,169,169,169,,,,,,,,,,,,,,,,,,,17.9296875,-4.21875,0,0,1,0.653285980225,,,,,2015_Oct_17_1254,G,facesParametric,15,59.6437560614,
./stim/MorphF9_05_orig.jpg,170,,,,,0,170,170,170,,,,,,,,,,,,,,,,,,,17.9296875,-4.21875,1,0,0,0.819233179092,,,,,2015_Oct_17_1254,G,facesParametric,15,59.6437560614,
./stim/MorphF3_00_orig.jpg,171,,,,,0,171,171,171,,,,,,,,,,,,,,,,,,,17.9296875,-4.21875,0,0,1,2.57943415642,,,,,2015_Oct_17_1254,G,facesParametric,15,59.6437560614,
./stim/MorphM5_05_orig.jpg,172,,,,,0,172,172,172,,,,,,,,,,,,,,,,,,,17.9296875,-4.21875,0,0,1,0.652459859848,,,,,2015_Oct_17_1254,G,facesParametric,15,59.6437560614,
./stim/MorphM8_05_orig.jpg,173,,,,,0,173,173,173,,,,,,,,,,,,,,,,,,,17.9296875,-4.21875,0,0,1,0.685945034027,,,,,2015_Oct_17_1254,G,facesParametric,15,59.6437560614,
./stim/MorphF5_04_orig.jpg,174,,,,,0,174,174,174,,,,,,,,,,,,,,,,,,,17.9296875,-4.21875,0,0,1,2.64495396614,,,,,2015_Oct_17_1254,G,facesParametric,15,59.6437560614,
./stim/MorphF7_08_orig.jpg,175,,,,,0,175,175,175,,,,,,,,,,,,,,,,,,,17.958984375,-4.21875,0,0,1,0.735106945038,,,,,2015_Oct_17_1254,G,facesParametric,15,59.6437560614,
./stim/MorphM10_00_orig.jpg,176,,,,,0,176,176,176,,,,,,,,,,,,,,,,,,,18.017578125,-4.21875,0,0,1,3.55077600479,,,,,2015_Oct_17_1254,G,facesParametric,15,59.6437560614,
./stim/MorphM1_01_orig.jpg,177,,,,,0,177,177,177,,,,,,,,,,,,,,,,,,,18.076171875,-4.248046875,1,0,0,4.10502791405,,,,,2015_Oct_17_1254,G,facesParametric,15,59.6437560614,
./stim/MorphF6_04_orig.jpg,178,,,,,0,178,178,178,,,,,,,,,,,,,,,,,,,18.076171875,-4.248046875,1,0,0,1.1702311039,,,,,2015_Oct_17_1254,G,facesParametric,15,59.6437560614,
./stim/MorphM3_05_orig.jpg,179,,,,,0,179,179,179,,,,,,,,,,,,,,,,,,,23.173828125,3.193359375,1,0,0,4.47325992584,,,,,2015_Oct_17_1254,G,facesParametric,15,59.6437560614,
./stim/MorphM1_09_orig.jpg,180,,,,,0,180,180,180,,,,,,,,,,,,,,,,,,,22.939453125,2.98828125,0,0,1,7.28741502762,,,,,2015_Oct_17_1254,G,facesParametric,15,59.6437560614,
./stim/MorphF10_04_orig.jpg,181,,,,,0,181,181,181,,,,,,,,,,,,,,,,,,,22.8515625,2.98828125,0,0,1,1.08730792999,,,,,2015_Oct_17_1254,G,facesParametric,15,59.6437560614,
./stim/MorphM4_10_orig.jpg,182,,,,,0,182,182,182,,,,,,,,,,,,,,,,,,,22.8515625,2.98828125,0,0,1,1.0028219223,,,,,2015_Oct_17_1254,G,facesParametric,15,59.6437560614,
./stim/MorphF8_10_orig.jpg,183,,,,,0,183,183,183,,,,,,,,,,,,,,,,,,,22.79296875,3.017578125,0,0,1,0.7865421772,,,,,2015_Oct_17_1254,G,facesParametric,15,59.6437560614,
./stim/MorphM8_09_orig.jpg,184,,,,,0,184,184,184,,,,,,,,,,,,,,,,,,,22.79296875,3.017578125,0,0,1,0.652760028839,,,,,2015_Oct_17_1254,G,facesParametric,15,59.6437560614,
./stim/MorphF9_00_orig.jpg,185,,,,,0,185,185,185,,,,,,,,,,,,,,,,,,,22.79296875,3.017578125,0,0,1,1.67445206642,,,,,2015_Oct_17_1254,G,facesParametric,15,59.6437560614,
./stim/MorphF1_00_orig.jpg,186,,,,,0,186,186,186,,,,,,,,,,,,,,,,,,,22.91015625,2.98828125,1,0,0,1.97657418251,,,,,2015_Oct_17_1254,G,facesParametric,15,59.6437560614,
./stim/MorphF7_00_orig.jpg,187,,,,,0,187,187,187,,,,,,,,,,,,,,,,,,,22.939453125,2.958984375,1,0,0,1.15535402298,,,,,2015_Oct_17_1254,G,facesParametric,15,59.6437560614,
./stim/MorphM7_05_orig.jpg,188,,,,,0,188,188,188,,,,,,,,,,,,,,,,,,,22.939453125,2.958984375,0,0,1,0.852912902832,,,,,2015_Oct_17_1254,G,facesParametric,15,59.6437560614,
./stim/MorphM5_00_orig.jpg,189,,,,,0,189,189,189,,,,,,,,,,,,,,,,,,,22.96875,2.98828125,0,0,1,3.41628623009,,,,,2015_Oct_17_1254,G,facesParametric,15,59.6437560614,
./stim/MorphF1_07_orig.jpg,190,,,,,0,190,190,190,,,,,,,,,,,,,,,,,,,22.96875,2.958984375,0,0,1,0.837400197983,,,,,2015_Oct_17_1254,G,facesParametric,15,59.6437560614,
./stim/MorphM10_09_orig.jpg,191,,,,,0,191,191,191,,,,,,,,,,,,,,,,,,,23.056640625,2.9296875,0,0,1,0.651710033417,,,,,2015_Oct_17_1254,G,facesParametric,15,59.6437560614,
./stim/MorphM9_01_orig.jpg,192,,,,,0,192,192,192,,,,,,,,,,,,,,,,,,,23.203125,2.958984375,0,0,1,5.00992894173,,,,,2015_Oct_17_1254,G,facesParametric,15,59.6437560614,
./stim/MorphF5_10_orig.jpg,193,,,,,0,193,193,193,,,,,,,,,,,,,,,,,,,23.203125,2.958984375,0,0,1,0.88729596138,,,,,2015_Oct_17_1254,G,facesParametric,15,59.6437560614,
./stim/MorphM6_09_orig.jpg,194,,,,,0,194,194,194,,,,,,,,,,,,,,,,,,,23.203125,2.958984375,0,0,1,0.819858074188,,,,,2015_Oct_17_1254,G,facesParametric,15,59.6437560614,
./stim/MorphM9_02_orig.jpg,195,,,,,0,195,195,195,,,,,,,,,,,,,,,,,,,23.349609375,2.87109375,1,0,0,6.97039914131,,,,,2015_Oct_17_1254,G,facesParametric,15,59.6437560614,
./stim/MorphM2_08_orig.jpg,196,,,,,0,196,196,196,,,,,,,,,,,,,,,,,,,23.37890625,2.8125,0,0,1,2.15940999985,,,,,2015_Oct_17_1254,G,facesParametric,15,59.6437560614,
./stim/MorphF2_07_orig.jpg,197,,,,,0,197,197,197,,,,,,,,,,,,,,,,,,,23.408203125,2.6953125,0,0,1,0.636161088943,,,,,2015_Oct_17_1254,G,facesParametric,15,59.6437560614,
./stim/MorphM6_07_orig.jpg,198,,,,,0,198,198,198,,,,,,,,,,,,,,,,,,,23.408203125,2.6953125,0,0,1,6.36747407913,,,,,2015_Oct_17_1254,G,facesParametric,15,59.6437560614,
./stim/MorphM8_00_orig.jpg,199,,,,,0,199,199,199,,,,,,,,,,,,,,,,,,,16.142578125,-0.673828125,0,0,1,2.41181993484,,,,,2015_Oct_17_1254,G,facesParametric,15,59.6437560614,
./stim/MorphF5_09_orig.jpg,200,,,,,0,200,200,200,,,,,,,,,,,,,,,,,,,16.142578125,-0.673828125,0,0,1,0.65031504631,,,,,2015_Oct_17_1254,G,facesParametric,15,59.6437560614,
./stim/MorphF7_04_orig.jpg,201,,,,,0,201,201,201,,,,,,,,,,,,,,,,,,,16.11328125,-1.171875,0,0,1,0.720017194748,,,,,2015_Oct_17_1254,G,facesParametric,15,59.6437560614,
./stim/MorphM9_00_orig.jpg,202,,,,,0,202,202,202,,,,,,,,,,,,,,,,,,,14.443359375,-3.134765625,1,0,0,3.87026906013,,,,,2015_Oct_17_1254,G,facesParametric,15,59.6437560614,
./stim/MorphF3_05_orig.jpg,203,,,,,0,203,203,203,,,,,,,,,,,,,,,,,,,14.58984375,-3.310546875,0,0,1,2.04338884354,,,,,2015_Oct_17_1254,G,facesParametric,15,59.6437560614,
./stim/MorphM5_01_orig.jpg,204,,,,,0,204,204,204,,,,,,,,,,,,,,,,,,,14.677734375,-3.427734375,0,0,1,2.78132009506,,,,,2015_Oct_17_1254,G,facesParametric,15,59.6437560614,
./stim/MorphM7_10_orig.jpg,205,,,,,0,205,205,205,,,,,,,,,,,,,,,,,,,14.677734375,-3.427734375,0,0,1,0.602210998535,,,,,2015_Oct_17_1254,G,facesParametric,15,59.6437560614,
./stim/MorphF8_01_orig.jpg,206,,,,,0,206,206,206,,,,,,,,,,,,,,,,,,,13.76953125,-4.1015625,1,0,0,2.0239648819,,,,,2015_Oct_17_1254,G,facesParametric,15,59.6437560614,
./stim/MorphM2_09_orig.jpg,207,,,,,0,207,207,207,,,,,,,,,,,,,,,,,,,13.798828125,-4.1015625,0,0,1,1.1369228363,,,,,2015_Oct_17_1254,G,facesParametric,15,59.6437560614,
./stim/MorphM6_10_orig.jpg,208,,,,,0,208,208,208,,,,,,,,,,,,,,,,,,,13.798828125,-4.1015625,0,0,1,0.734169006348,,,,,2015_Oct_17_1254,G,facesParametric,15,59.6437560614,
./stim/MorphM8_06_orig.jpg,209,,,,,0,209,209,209,,,,,,,,,,,,,,,,,,,13.828125,-4.130859375,0,0,1,0.787075042725,,,,,2015_Oct_17_1254,G,facesParametric,15,59.6437560614,
./stim/MorphM2_01_orig.jpg,210,,,,,0,210,210,210,,,,,,,,,,,,,,,,,,,13.828125,-4.130859375,1,0,0,1.00322389603,,,,,2015_Oct_17_1254,G,facesParametric,15,59.6437560614,
./stim/MorphF8_07_orig.jpg,211,,,,,0,211,211,211,,,,,,,,,,,,,,,,,,,13.828125,-4.130859375,0,0,1,1.32306599617,,,,,2015_Oct_17_1254,G,facesParametric,15,59.6437560614,
./stim/MorphF6_05_orig.jpg,212,,,,,0,212,212,212,,,,,,,,,,,,,,,,,,,13.828125,-4.130859375,1,0,0,1.30538702011,,,,,2015_Oct_17_1254,G,facesParametric,15,59.6437560614,
./stim/MorphF1_08_orig.jpg,213,,,,,0,213,213,213,,,,,,,,,,,,,,,,,,,13.798828125,-4.16015625,0,0,1,1.54064083099,,,,,2015_Oct_17_1254,G,facesParametric,15,59.6437560614,
./stim/MorphM2_05_orig.jpg,214,,,,,0,214,214,214,,,,,,,,,,,,,,,,,,,13.798828125,-4.16015625,1,0,0,2.12568688393,,,,,2015_Oct_17_1254,G,facesParametric,15,59.6437560614,
./stim/MorphM6_00_orig.jpg,215,,,,,0,215,215,215,,,,,,,,,,,,,,,,,,,13.798828125,-4.16015625,1,0,0,0.802929878235,,,,,2015_Oct_17_1254,G,facesParametric,15,59.6437560614,
./stim/MorphF2_06_orig.jpg,216,,,,,0,216,216,216,,,,,,,,,,,,,,,,,,,13.798828125,-4.16015625,0,0,1,1.10432314873,,,,,2015_Oct_17_1254,G,facesParametric,15,59.6437560614,
./stim/MorphM3_04_orig.jpg,217,,,,,0,217,217,217,,,,,,,,,,,,,,,,,,,13.798828125,-4.16015625,0,0,1,1.43979907036,,,,,2015_Oct_17_1254,G,facesParametric,15,59.6437560614,
./stim/MorphM8_03_orig.jpg,218,,,,,0,218,218,218,,,,,,,,,,,,,,,,,,,13.798828125,-4.16015625,0,0,1,2.25985002518,,,,,2015_Oct_17_1254,G,facesParametric,15,59.6437560614,
./stim/MorphM3_01_orig.jpg,219,,,,,0,219,219,219,,,,,,,,,,,,,,,,,,,13.798828125,-4.189453125,1,0,0,2.91511106491,,,,,2015_Oct_17_1254,G,facesParametric,15,59.6437560614,
,,,,,,,,,,,,,,,,,,,,,,,,,,,,,,,,,,return,55.893666029,,,2015_Oct_17_1254,G,facesParametric,15,59.6437560614,
./stim/MorphM7_04_orig.jpg,0,,,,,,,,,0,0,0,0,,,,,,,,,,,,,,,-5.2734375,-5.80078125,0,0,1,10.5899209976,,,,,2015_Oct_17_1254,G,facesParametric,15,59.6437560614,
./stim/MorphF3_03_orig.jpg,1,,,,,,,,,0,1,1,1,,,,,,,,,,,,,,,13.857421875,1.728515625,1,0,0,6.98493599892,,,,,2015_Oct_17_1254,G,facesParametric,15,59.6437560614,
./stim/MorphF6_01_orig.jpg,2,,,,,,,,,0,2,2,2,,,,,,,,,,,,,,,-20.947265625,-13.154296875,1,0,0,10.7922980785,,,,,2015_Oct_17_1254,G,facesParametric,15,59.6437560614,
./stim/MorphM10_09_orig.jpg,3,,,,,,,,,0,3,3,3,,,,,,,,,,,,,,,-20.947265625,-13.154296875,0,0,1,2.12737202644,,,,,2015_Oct_17_1254,G,facesParametric,15,59.6437560614,
./stim/MorphF2_00_orig.jpg,4,,,,,,,,,0,4,4,4,,,,,,,,,,,,,,,-20.5078125,-13.037109375,1,0,0,2.86458182335,,,,,2015_Oct_17_1254,G,facesParametric,15,59.6437560614,
./stim/MorphF10_05_orig.jpg,5,,,,,,,,,0,5,5,5,,,,,,,,,,,,,,,-20.5078125,-13.037109375,0,0,1,1.13708209991,,,,,2015_Oct_17_1254,G,facesParametric,15,59.6437560614,
./stim/MorphF6_02_orig.jpg,6,,,,,,,,,0,6,6,6,,,,,,,,,,,,,,,-20.712890625,-12.94921875,1,0,0,5.99863886833,,,,,2015_Oct_17_1254,G,facesParametric,15,59.6437560614,
./stim/MorphF9_06_orig.jpg,7,,,,,,,,,0,7,7,7,,,,,,,,,,,,,,,-20.5078125,-12.94921875,0,0,1,2.14160990715,,,,,2015_Oct_17_1254,G,facesParametric,15,59.6437560614,
./stim/MorphF6_05_orig.jpg,8,,,,,,,,,0,8,8,8,,,,,,,,,,,,,,,-20.44921875,-12.919921875,0,0,1,2.91537284851,,,,,2015_Oct_17_1254,G,facesParametric,15,59.6437560614,
./stim/MorphM5_07_orig.jpg,9,,,,,,,,,0,9,9,9,,,,,,,,,,,,,,,-20.185546875,-12.978515625,0,0,1,5.46243906021,,,,,2015_Oct_17_1254,G,facesParametric,15,59.6437560614,
./stim/MorphF1_01_orig.jpg,10,,,,,,,,,0,10,10,10,,,,,,,,,,,,,,,-22.6171875,-13.154296875,1,0,0,9.03229498863,,,,,2015_Oct_17_1254,G,facesParametric,15,59.6437560614,
./stim/MorphM10_06_orig.jpg,11,,,,,,,,,0,11,11,11,,,,,,,,,,,,,,,-22.470703125,-12.978515625,0,0,1,1.13845896721,,,,,2015_Oct_17_1254,G,facesParametric,15,59.6437560614,
./stim/MorphM1_05_orig.jpg,12,,,,,,,,,0,12,12,12,,,,,,,,,,,,,,,-22.470703125,-13.095703125,1,0,0,9.41779279709,,,,,2015_Oct_17_1254,G,facesParametric,15,59.6437560614,
./stim/MorphF4_01_orig.jpg,13,,,,,,,,,0,13,13,13,,,,,,,,,,,,,,,-22.177734375,-13.125,0,0,1,2.7641210556,,,,,2015_Oct_17_1254,G,facesParametric,15,59.6437560614,
./stim/MorphM8_06_orig.jpg,14,,,,,,,,,0,14,14,14,,,,,,,,,,,,,,,-23.291015625,-13.125,0,0,1,1.07150506973,,,,,2015_Oct_17_1254,G,facesParametric,15,59.6437560614,
./stim/MorphM1_00_orig.jpg,15,,,,,,,,,0,15,15,15,,,,,,,,,,,,,,,-22.20703125,-12.978515625,0,0,1,3.28240704536,,,,,2015_Oct_17_1254,G,facesParametric,15,59.6437560614,
./stim/MorphF8_10_orig.jpg,16,,,,,,,,,0,16,16,16,,,,,,,,,,,,,,,-22.20703125,-12.978515625,0,0,1,0.651313066483,,,,,2015_Oct_17_1254,G,facesParametric,15,59.6437560614,
./stim/MorphM9_03_orig.jpg,17,,,,,,,,,0,17,17,17,,,,,,,,,,,,,,,-22.20703125,-12.978515625,0,0,1,0.786762952805,,,,,2015_Oct_17_1254,G,facesParametric,15,59.6437560614,
./stim/MorphF1_03_orig.jpg,18,,,,,,,,,0,18,18,18,,,,,,,,,,,,,,,-22.060546875,-12.919921875,0,0,1,1.69124698639,,,,,2015_Oct_17_1254,G,facesParametric,15,59.6437560614,
./stim/MorphM7_10_orig.jpg,19,,,,,,,,,0,19,19,19,,,,,,,,,,,,,,,-22.060546875,-12.919921875,0,0,1,0.836850881577,,,,,2015_Oct_17_1254,G,facesParametric,15,59.6437560614,
./stim/MorphF7_02_orig.jpg,20,,,,,,,,,0,20,20,20,,,,,,,,,,,,,,,-22.060546875,-12.919921875,1,0,0,1.20371603966,,,,,2015_Oct_17_1254,G,facesParametric,15,59.6437560614,
./stim/MorphF4_03_orig.jpg,21,,,,,,,,,0,21,21,21,,,,,,,,,,,,,,,-22.03125,-12.919921875,1,0,0,0.752890825272,,,,,2015_Oct_17_1254,G,facesParametric,15,59.6437560614,
./stim/MorphM10_10_orig.jpg,22,,,,,,,,,0,22,22,22,,,,,,,,,,,,,,,-22.03125,-12.919921875,0,0,1,0.702719926834,,,,,2015_Oct_17_1254,G,facesParametric,15,59.6437560614,
./stim/MorphF7_04_orig.jpg,23,,,,,,,,,0,23,23,23,,,,,,,,,,,,,,,-21.97265625,-12.861328125,1,0,0,0.786643981934,,,,,2015_Oct_17_1254,G,facesParametric,15,59.6437560614,
./stim/MorphF10_10_orig.jpg,24,,,,,,,,,0,24,24,24,,,,,,,,,,,,,,,-21.943359375,-12.83203125,0,0,1,0.802828073502,,,,,2015_Oct_17_1254,G,facesParametric,15,59.6437560614,
./stim/MorphM3_08_orig.jpg,25,,,,,,,,,0,25,25,25,,,,,,,,,,,,,,,-21.9140625,-12.802734375,0,0,1,1.49019002914,,,,,2015_Oct_17_1254,G,facesParametric,15,59.6437560614,
./stim/MorphM4_08_orig.jpg,26,,,,,,,,,0,26,26,26,,,,,,,,,,,,,,,-21.796875,-12.744140625,0,0,1,0.903687953949,,,,,2015_Oct_17_1254,G,facesParametric,15,59.6437560614,
./stim/MorphM10_03_orig.jpg,27,,,,,,,,,0,27,27,27,,,,,,,,,,,,,,,-21.796875,-12.744140625,1,0,0,1.37300515175,,,,,2015_Oct_17_1254,G,facesParametric,15,59.6437560614,
./stim/MorphM1_07_orig.jpg,28,,,,,,,,,0,28,28,28,,,,,,,,,,,,,,,-21.474609375,-12.744140625,0,0,1,1.48867201805,,,,,2015_Oct_17_1254,G,facesParametric,15,59.6437560614,
./stim/MorphF6_09_orig.jpg,29,,,,,,,,,0,29,29,29,,,,,,,,,,,,,,,-21.38671875,-12.71484375,0,0,1,0.935716867447,,,,,2015_Oct_17_1254,G,facesParametric,15,59.6437560614,
./stim/MorphM3_09_orig.jpg,30,,,,,,,,,0,30,30,30,,,,,,,,,,,,,,,-21.38671875,-12.71484375,0,0,1,0.903856992722,,,,,2015_Oct_17_1254,G,facesParametric,15,59.6437560614,
./stim/MorphM5_09_orig.jpg,31,,,,,,,,,0,31,31,31,,,,,,,,,,,,,,,-21.298828125,-12.685546875,0,0,1,1.05529713631,,,,,2015_Oct_17_1254,G,facesParametric,15,59.6437560614,
./stim/MorphM6_01_orig.jpg,32,,,,,,,,,0,32,32,32,,,,,,,,,,,,,,,-21.26953125,-12.685546875,1,0,0,1.5889070034,,,,,2015_Oct_17_1254,G,facesParametric,15,59.6437560614,
./stim/MorphF5_03_orig.jpg,33,,,,,,,,,0,33,33,33,,,,,,,,,,,,,,,-21.533203125,-9.08203125,0,0,1,1.54051995277,,,,,2015_Oct_17_1254,G,facesParametric,15,59.6437560614,
./stim/MorphF3_09_orig.jpg,34,,,,,,,,,0,34,34,34,,,,,,,,,,,,,,,-21.328125,-9.0234375,0,0,1,5.26087784767,,,,,2015_Oct_17_1254,G,facesParametric,15,59.6437560614,
./stim/MorphM5_02_orig.jpg,35,,,,,,,,,0,35,35,35,,,,,,,,,,,,,,,-21.2109375,-8.96484375,0,0,1,2.26079916954,,,,,2015_Oct_17_1254,G,facesParametric,15,59.6437560614,
./stim/MorphF7_03_orig.jpg,36,,,,,,,,,0,36,36,36,,,,,,,,,,,,,,,-21.064453125,-8.90625,0,0,1,3.82000017166,,,,,2015_Oct_17_1254,G,facesParametric,15,59.6437560614,
./stim/MorphM10_02_orig.jpg,37,,,,,,,,,0,37,37,37,,,,,,,,,,,,,,,-21.03515625,-8.90625,1,0,0,2.67861914635,,,,,2015_Oct_17_1254,G,facesParametric,15,59.6437560614,
./stim/MorphF3_00_orig.jpg,38,,,,,,,,,0,38,38,38,,,,,,,,,,,,,,,-21.03515625,-8.90625,1,0,0,1.67525696754,,,,,2015_Oct_17_1254,G,facesParametric,15,59.6437560614,
./stim/MorphF8_04_orig.jpg,39,,,,,,,,,0,39,39,39,,,,,,,,,,,,,,,-20.712890625,-8.84765625,1,0,0,2.12700605392,,,,,2015_Oct_17_1254,G,facesParametric,15,59.6437560614,
./stim/MorphM3_01_orig.jpg,40,,,,,,,,,0,40,40,40,,,,,,,,,,,,,,,-22.998046875,-7.734375,1,0,0,1.38998699188,,,,,2015_Oct_17_1254,G,facesParametric,15,59.6437560614,
./stim/MorphM10_05_orig.jpg,41,,,,,,,,,0,41,41,41,,,,,,,,,,,,,,,-21.416015625,-8.349609375,0,0,1,1.6069881916,,,,,2015_Oct_17_1254,G,facesParametric,15,59.6437560614,
./stim/MorphF1_08_orig.jpg,42,,,,,,,,,0,42,42,42,,,,,,,,,,,,,,,-21.005859375,-9.55078125,0,0,1,2.02690792084,,,,,2015_Oct_17_1254,G,facesParametric,15,59.6437560614,
./stim/MorphF9_04_orig.jpg,43,,,,,,,,,0,43,43,43,,,,,,,,,,,,,,,-20.947265625,-9.7265625,0,0,1,1.65772795677,,,,,2015_Oct_17_1254,G,facesParametric,15,59.6437560614,
./stim/MorphF1_05_orig.jpg,44,,,,,,,,,0,44,44,44,,,,,,,,,,,,,,,-20.947265625,-9.78515625,1,0,0,2.89769291878,,,,,2015_Oct_17_1254,G,facesParametric,15,59.6437560614,
./stim/MorphM5_10_orig.jpg,45,,,,,,,,,0,45,45,45,,,,,,,,,,,,,,,-20.947265625,-9.78515625,0,0,1,1.03822088242,,,,,2015_Oct_17_1254,G,facesParametric,15,59.6437560614,
./stim/MorphF4_08_orig.jpg,46,,,,,,,,,0,46,46,46,,,,,,,,,,,,,,,-20.9765625,-9.814453125,0,0,1,1.23641085625,,,,,2015_Oct_17_1254,G,facesParametric,15,59.6437560614,
./stim/MorphM2_04_orig.jpg,47,,,,,,,,,0,47,47,47,,,,,,,,,,,,,,,-20.9765625,-9.814453125,1,0,0,3.76907491684,,,,,2015_Oct_17_1254,G,facesParametric,15,59.6437560614,
./stim/MorphM3_07_orig.jpg,48,,,,,,,,,0,48,48,48,,,,,,,,,,,,,,,-20.9765625,-9.814453125,0,0,1,0.970975160599,,,,,2015_Oct_17_1254,G,facesParametric,15,59.6437560614,
./stim/MorphM8_03_orig.jpg,49,,,,,,,,,0,49,49,49,,,,,,,,,,,,,,,-20.9765625,-9.814453125,0,0,1,1.70808291435,,,,,2015_Oct_17_1254,G,facesParametric,15,59.6437560614,
./stim/MorphF2_10_orig.jpg,50,,,,,,,,,0,50,50,50,,,,,,,,,,,,,,,-20.9765625,-9.814453125,0,0,1,0.885344982147,,,,,2015_Oct_17_1254,G,facesParametric,15,59.6437560614,
./stim/MorphF4_09_orig.jpg,51,,,,,,,,,0,51,51,51,,,,,,,,,,,,,,,-20.9765625,-9.814453125,0,0,1,0.852216005325,,,,,2015_Oct_17_1254,G,facesParametric,15,59.6437560614,
./stim/MorphM2_09_orig.jpg,52,,,,,,,,,0,52,52,52,,,,,,,,,,,,,,,-20.9765625,-9.814453125,0,0,1,1.25542116165,,,,,2015_Oct_17_1254,G,facesParametric,15,59.6437560614,
./stim/MorphF2_04_orig.jpg,53,,,,,,,,,0,53,53,53,,,,,,,,,,,,,,,-20.9765625,-9.814453125,0,0,1,2.46186709404,,,,,2015_Oct_17_1254,G,facesParametric,15,59.6437560614,
./stim/MorphF5_02_orig.jpg,54,,,,,,,,,0,54,54,54,,,,,,,,,,,,,,,-20.9765625,-9.814453125,0,0,1,1.87498211861,,,,,2015_Oct_17_1254,G,facesParametric,15,59.6437560614,
./stim/MorphF9_00_orig.jpg,55,,,,,,,,,0,55,55,55,,,,,,,,,,,,,,,-21.15234375,-9.931640625,0,0,1,18.11587286,,,,,2015_Oct_17_1254,G,facesParametric,15,59.6437560614,
./stim/MorphF5_07_orig.jpg,56,,,,,,,,,0,56,56,56,,,,,,,,,,,,,,,-21.26953125,-9.990234375,0,0,1,0.802482128143,,,,,2015_Oct_17_1254,G,facesParametric,15,59.6437560614,
./stim/MorphF8_01_orig.jpg,57,,,,,,,,,0,57,57,57,,,,,,,,,,,,,,,-21.328125,-10.01953125,0,0,1,0.786415815353,,,,,2015_Oct_17_1254,G,facesParametric,15,59.6437560614,
./stim/MorphF5_06_orig.jpg,58,,,,,,,,,0,58,58,58,,,,,,,,,,,,,,,-21.328125,-10.01953125,0,0,1,0.71924996376,,,,,2015_Oct_17_1254,G,facesParametric,15,59.6437560614,
./stim/MorphM2_00_orig.jpg,59,,,,,,,,,0,59,59,59,,,,,,,,,,,,,,,-21.328125,-10.01953125,0,0,1,4.35618710518,,,,,2015_Oct_17_1254,G,facesParametric,15,59.6437560614,
./stim/MorphM7_07_orig.jpg,60,,,,,,,,,0,60,60,60,,,,,,,,,,,,,,,-21.328125,-10.01953125,0,0,1,0.600169181824,,,,,2015_Oct_17_1254,G,facesParametric,15,59.6437560614,
./stim/MorphF7_08_orig.jpg,61,,,,,,,,,0,61,61,61,,,,,,,,,,,,,,,-21.328125,-10.01953125,0,0,1,1.03870892525,,,,,2015_Oct_17_1254,G,facesParametric,15,59.6437560614,
./stim/MorphF4_06_orig.jpg,62,,,,,,,,,0,62,62,62,,,,,,,,,,,,,,,-21.357421875,-10.048828125,0,0,1,0.66726398468,,,,,2015_Oct_17_1254,G,facesParametric,15,59.6437560614,
./stim/MorphM1_01_orig.jpg,63,,,,,,,,,0,63,63,63,,,,,,,,,,,,,,,-21.328125,-10.01953125,0,0,1,0.635438203812,,,,,2015_Oct_17_1254,G,facesParametric,15,59.6437560614,
./stim/MorphF5_10_orig.jpg,64,,,,,,,,,0,64,64,64,,,,,,,,,,,,,,,-21.328125,-10.01953125,0,0,1,0.551929950714,,,,,2015_Oct_17_1254,G,facesParametric,15,59.6437560614,
./stim/MorphM4_06_orig.jpg,65,,,,,,,,,0,65,65,65,,,,,,,,,,,,,,,-21.240234375,-9.990234375,0,0,1,0.870344877243,,,,,2015_Oct_17_1254,G,facesParametric,15,59.6437560614,
./stim/MorphF4_10_orig.jpg,66,,,,,,,,,0,66,66,66,,,,,,,,,,,,,,,-21.2109375,-9.9609375,0,0,1,0.702642917633,,,,,2015_Oct_17_1254,G,facesParametric,15,59.6437560614,
./stim/MorphF6_04_orig.jpg,67,,,,,,,,,0,67,67,67,,,,,,,,,,,,,,,-21.2109375,-9.9609375,0,0,1,0.652037858963,,,,,2015_Oct_17_1254,G,facesParametric,15,59.6437560614,
./stim/MorphF2_09_orig.jpg,68,,,,,,,,,0,68,68,68,,,,,,,,,,,,,,,-21.181640625,-9.931640625,0,0,1,0.633744001389,,,,,2015_Oct_17_1254,G,facesParametric,15,59.6437560614,
./stim/MorphF5_04_orig.jpg,69,,,,,,,,,0,69,69,69,,,,,,,,,,,,,,,-21.181640625,-9.931640625,0,0,1,0.686168909073,,,,,2015_Oct_17_1254,G,facesParametric,15,59.6437560614,
./stim/MorphM4_07_orig.jpg,70,,,,,,,,,0,70,70,70,,,,,,,,,,,,,,,-21.181640625,-9.931640625,0,0,1,0.768105983734,,,,,2015_Oct_17_1254,G,facesParametric,15,59.6437560614,
./stim/MorphF9_08_orig.jpg,71,,,,,,,,,0,71,71,71,,,,,,,,,,,,,,,-21.123046875,-9.90234375,0,0,1,2.19405388832,,,,,2015_Oct_17_1254,G,facesParametric,15,59.6437560614,
./stim/MorphM4_02_orig.jpg,72,,,,,,,,,0,72,72,72,,,,,,,,,,,,,,,-21.064453125,-9.90234375,0,0,1,0.853622913361,,,,,2015_Oct_17_1254,G,facesParametric,15,59.6437560614,
./stim/MorphF10_09_orig.jpg,73,,,,,,,,,0,73,73,73,,,,,,,,,,,,,,,-21.005859375,-9.90234375,0,0,1,0.920698165894,,,,,2015_Oct_17_1254,G,facesParametric,15,59.6437560614,
./stim/MorphM9_07_orig.jpg,74,,,,,,,,,0,74,74,74,,,,,,,,,,,,,,,-21.005859375,-9.90234375,0,0,1,0.669044017792,,,,,2015_Oct_17_1254,G,facesParametric,15,59.6437560614,
./stim/MorphM4_05_orig.jpg,75,,,,,,,,,0,75,75,75,,,,,,,,,,,,,,,-20.9765625,-9.873046875,0,0,1,3.5854010582,,,,,2015_Oct_17_1254,G,facesParametric,15,59.6437560614,
./stim/MorphM9_05_orig.jpg,76,,,,,,,,,0,76,76,76,,,,,,,,,,,,,,,-20.9765625,-9.873046875,0,0,1,0.701081991196,,,,,2015_Oct_17_1254,G,facesParametric,15,59.6437560614,
./stim/MorphM8_10_orig.jpg,77,,,,,,,,,0,77,77,77,,,,,,,,,,,,,,,-20.947265625,-9.873046875,0,0,1,0.5842628479,,,,,2015_Oct_17_1254,G,facesParametric,15,59.6437560614,
./stim/MorphM6_03_orig.jpg,78,,,,,,,,,0,78,78,78,,,,,,,,,,,,,,,-20.947265625,-9.873046875,0,0,1,0.58345913887,,,,,2015_Oct_17_1254,G,facesParametric,15,59.6437560614,
./stim/MorphF8_07_orig.jpg,79,,,,,,,,,0,79,79,79,,,,,,,,,,,,,,,-20.947265625,-9.873046875,0,0,1,0.903874874115,,,,,2015_Oct_17_1254,G,facesParametric,15,59.6437560614,
./stim/MorphF4_07_orig.jpg,80,,,,,,,,,0,80,80,80,,,,,,,,,,,,,,,-20.888671875,-9.90234375,0,0,1,1.0542280674,,,,,2015_Oct_17_1254,G,facesParametric,15,59.6437560614,
./stim/MorphM1_06_orig.jpg,81,,,,,,,,,0,81,81,81,,,,,,,,,,,,,,,-20.888671875,-9.90234375,0,0,1,0.753130912781,,,,,2015_Oct_17_1254,G,facesParametric,15,59.6437560614,
./stim/MorphF6_06_orig.jpg,82,,,,,,,,,0,82,82,82,,,,,,,,,,,,,,,-20.888671875,-9.90234375,0,0,1,0.801918029785,,,,,2015_Oct_17_1254,G,facesParametric,15,59.6437560614,
./stim/MorphM9_01_orig.jpg,83,,,,,,,,,0,83,83,83,,,,,,,,,,,,,,,-20.888671875,-9.90234375,0,0,1,0.650503873825,,,,,2015_Oct_17_1254,G,facesParametric,15,59.6437560614,
./stim/MorphF5_00_orig.jpg,84,,,,,,,,,0,84,84,84,,,,,,,,,,,,,,,-20.888671875,-9.90234375,0,0,1,0.85307097435,,,,,2015_Oct_17_1254,G,facesParametric,15,59.6437560614,
./stim/MorphF2_05_orig.jpg,85,,,,,,,,,0,85,85,85,,,,,,,,,,,,,,,-20.888671875,-9.90234375,0,0,1,0.602431058884,,,,,2015_Oct_17_1254,G,facesParametric,15,59.6437560614,
./stim/MorphM8_02_orig.jpg,86,,,,,,,,,0,86,86,86,,,,,,,,,,,,,,,-20.859375,-9.931640625,1,0,0,2.12491106987,,,,,2015_Oct_17_1254,G,facesParametric,15,59.6437560614,
./stim/MorphF7_00_orig.jpg,87,,,,,,,,,0,87,87,87,,,,,,,,,,,,,,,-20.859375,-9.931640625,1,0,0,0.669270038605,,,,,2015_Oct_17_1254,G,facesParametric,15,59.6437560614,
./stim/MorphF10_08_orig.jpg,88,,,,,,,,,0,88,88,88,,,,,,,,,,,,,,,-20.830078125,-9.990234375,0,0,1,0.769725084305,,,,,2015_Oct_17_1254,G,facesParametric,15,59.6437560614,
./stim/MorphF4_02_orig.jpg,89,,,,,,,,,0,89,89,89,,,,,,,,,,,,,,,-20.830078125,-9.990234375,1,0,0,0.769578933716,,,,,2015_Oct_17_1254,G,facesParametric,15,59.6437560614,
./stim/MorphM2_03_orig.jpg,90,,,,,,,,,0,90,90,90,,,,,,,,,,,,,,,-20.830078125,-9.990234375,1,0,0,0.719351053238,,,,,2015_Oct_17_1254,G,facesParametric,15,59.6437560614,
./stim/MorphM4_01_orig.jpg,91,,,,,,,,,0,91,91,91,,,,,,,,,,,,,,,-20.830078125,-9.990234375,1,0,0,0.819790124893,,,,,2015_Oct_17_1254,G,facesParametric,15,59.6437560614,
./stim/MorphF9_05_orig.jpg,92,,,,,,,,,0,92,92,92,,,,,,,,,,,,,,,-20.80078125,-9.9609375,0,0,1,0.870131015778,,,,,2015_Oct_17_1254,G,facesParametric,15,59.6437560614,
./stim/MorphM9_10_orig.jpg,93,,,,,,,,,0,93,93,93,,,,,,,,,,,,,,,-20.771484375,-9.9609375,0,0,1,0.886963129044,,,,,2015_Oct_17_1254,G,facesParametric,15,59.6437560614,
./stim/MorphF2_03_orig.jpg,94,,,,,,,,,0,94,94,94,,,,,,,,,,,,,,,-20.7421875,-9.9609375,0,0,1,0.702697992325,,,,,2015_Oct_17_1254,G,facesParametric,15,59.6437560614,
./stim/MorphF8_06_orig.jpg,95,,,,,,,,,0,95,95,95,,,,,,,,,,,,,,,-20.68359375,-9.931640625,0,0,1,0.752978086472,,,,,2015_Oct_17_1254,G,facesParametric,15,59.6437560614,
./stim/MorphM5_05_orig.jpg,96,,,,,,,,,0,96,96,96,,,,,,,,,,,,,,,-20.68359375,-9.931640625,0,0,1,1.2730550766,,,,,2015_Oct_17_1254,G,facesParametric,15,59.6437560614,
./stim/MorphF3_02_orig.jpg,97,,,,,,,,,0,97,97,97,,,,,,,,,,,,,,,-20.478515625,-9.90234375,1,0,0,2.51120209694,,,,,2015_Oct_17_1254,G,facesParametric,15,59.6437560614,
./stim/MorphF8_09_orig.jpg,98,,,,,,,,,0,98,98,98,,,,,,,,,,,,,,,-20.44921875,-9.931640625,0,0,1,0.66886305809,,,,,2015_Oct_17_1254,G,facesParametric,15,59.6437560614,
./stim/MorphF9_10_orig.jpg,99,,,,,,,,,0,99,99,99,,,,,,,,,,,,,,,-20.44921875,-9.931640625,0,0,1,0.652882099152,,,,,2015_Oct_17_1254,G,facesParametric,15,59.6437560614,
./stim/MorphF1_04_orig.jpg,100,,,,,,,,,0,100,100,100,,,,,,,,,,,,,,,-20.44921875,-9.931640625,1,0,0,1.20481610298,,,,,2015_Oct_17_1254,G,facesParametric,15,59.6437560614,
./stim/MorphM6_02_orig.jpg,101,,,,,,,,,0,101,101,101,,,,,,,,,,,,,,,-20.44921875,-9.931640625,1,0,0,0.953924894333,,,,,2015_Oct_17_1254,G,facesParametric,15,59.6437560614,
./stim/MorphF2_01_orig.jpg,102,,,,,,,,,0,102,102,102,,,,,,,,,,,,,,,-20.478515625,-9.90234375,1,0,0,0.937216043472,,,,,2015_Oct_17_1254,G,facesParametric,15,59.6437560614,
./stim/MorphM5_01_orig.jpg,103,,,,,,,,,0,103,103,103,,,,,,,,,,,,,,,-20.478515625,-9.90234375,0,0,1,0.821453809738,,,,,2015_Oct_17_1254,G,facesParametric,15,59.6437560614,
./stim/MorphM7_08_orig.jpg,104,,,,,,,,,0,104,104,104,,,,,,,,,,,,,,,-20.44921875,-9.873046875,0,0,1,0.817616939545,,,,,2015_Oct_17_1254,G,facesParametric,15,59.6437560614,
./stim/MorphM5_08_orig.jpg,105,,,,,,,,,0,105,105,105,,,,,,,,,,,,,,,-20.44921875,-9.873046875,0,0,1,0.818191051483,,,,,2015_Oct_17_1254,G,facesParametric,15,59.6437560614,
./stim/MorphM8_04_orig.jpg,106,,,,,,,,,0,106,106,106,,,,,,,,,,,,,,,-20.44921875,-9.873046875,1,0,0,0.971098184586,,,,,2015_Oct_17_1254,G,facesParametric,15,59.6437560614,
./stim/MorphM2_01_orig.jpg,107,,,,,,,,,0,107,107,107,,,,,,,,,,,,,,,-20.419921875,-9.873046875,1,0,0,0.786685943604,,,,,2015_Oct_17_1254,G,facesParametric,15,59.6437560614,
./stim/MorphF9_09_orig.jpg,108,,,,,,,,,0,108,108,108,,,,,,,,,,,,,,,-20.419921875,-9.873046875,0,0,1,0.867759943008,,,,,2015_Oct_17_1254,G,facesParametric,15,59.6437560614,
./stim/MorphM5_06_orig.jpg,109,,,,,,,,,0,109,109,109,,,,,,,,,,,,,,,-20.390625,-9.90234375,0,0,1,1.40506315231,,,,,2015_Oct_17_1254,G,facesParametric,15,59.6437560614,
./stim/MorphF2_08_orig.jpg,110,,,,,,,,,0,110,110,110,,,,,,,,,,,,,,,-20.390625,-9.90234375,0,0,1,0.986786842346,,,,,2015_Oct_17_1254,G,facesParametric,15,59.6437560614,
./stim/MorphF3_06_orig.jpg,111,,,,,,,,,0,111,111,111,,,,,,,,,,,,,,,-21.6796875,-10.869140625,0,0,1,1.62464785576,,,,,2015_Oct_17_1254,G,facesParametric,15,59.6437560614,
./stim/MorphM5_00_orig.jpg,112,,,,,,,,,0,112,112,112,,,,,,,,,,,,,,,-21.591796875,-10.95703125,0,0,1,3.66924786568,,,,,2015_Oct_17_1254,G,facesParametric,15,59.6437560614,
./stim/MorphF6_10_orig.jpg,113,,,,,,,,,0,113,113,113,,,,,,,,,,,,,,,-21.50390625,-10.986328125,0,0,1,1.40649008751,,,,,2015_Oct_17_1254,G,facesParametric,15,59.6437560614,
./stim/MorphM2_02_orig.jpg,114,,,,,,,,,0,114,114,114,,,,,,,,,,,,,,,-21.50390625,-10.986328125,1,0,0,1.27134299278,,,,,2015_Oct_17_1254,G,facesParametric,15,59.6437560614,
./stim/MorphF6_07_orig.jpg,115,,,,,,,,,0,115,115,115,,,,,,,,,,,,,,,-21.50390625,-10.986328125,0,0,1,3.23219895363,,,,,2015_Oct_17_1254,G,facesParametric,15,59.6437560614,
./stim/MorphF8_03_orig.jpg,116,,,,,,,,,0,116,116,116,,,,,,,,,,,,,,,-21.50390625,-10.986328125,1,0,0,0.903892040253,,,,,2015_Oct_17_1254,G,facesParametric,15,59.6437560614,
./stim/MorphF6_08_orig.jpg,117,,,,,,,,,0,117,117,117,,,,,,,,,,,,,,,-21.50390625,-10.986328125,0,0,1,1.30583286285,,,,,2015_Oct_17_1254,G,facesParametric,15,59.6437560614,
./stim/MorphM7_06_orig.jpg,118,,,,,,,,,0,118,118,118,,,,,,,,,,,,,,,-21.50390625,-10.986328125,0,0,1,1.03860497475,,,,,2015_Oct_17_1254,G,facesParametric,15,59.6437560614,
./stim/MorphF3_10_orig.jpg,119,,,,,,,,,0,119,119,119,,,,,,,,,,,,,,,-21.474609375,-11.015625,0,0,1,2.1913459301,,,,,2015_Oct_17_1254,G,facesParametric,15,59.6437560614,
./stim/MorphF9_03_orig.jpg,120,,,,,,,,,0,120,120,120,,,,,,,,,,,,,,,-21.474609375,-11.015625,0,0,1,1.89239597321,,,,,2015_Oct_17_1254,G,facesParametric,15,59.6437560614,
./stim/MorphM4_10_orig.jpg,121,,,,,,,,,0,121,121,121,,,,,,,,,,,,,,,-21.474609375,-11.015625,0,0,1,1.27243590355,,,,,2015_Oct_17_1254,G,facesParametric,15,59.6437560614,
./stim/MorphM10_07_orig.jpg,122,,,,,,,,,0,122,122,122,,,,,,,,,,,,,,,-21.474609375,-11.015625,0,0,1,1.47298002243,,,,,2015_Oct_17_1254,G,facesParametric,15,59.6437560614,
./stim/MorphF2_07_orig.jpg,123,,,,,,,,,0,123,123,123,,,,,,,,,,,,,,,-21.474609375,-11.015625,0,0,1,1.03749108315,,,,,2015_Oct_17_1254,G,facesParametric,15,59.6437560614,
./stim/MorphM2_06_orig.jpg,124,,,,,,,,,0,124,124,124,,,,,,,,,,,,,,,-21.474609375,-11.015625,1,0,0,4.47381305695,,,,,2015_Oct_17_1254,G,facesParametric,15,59.6437560614,
./stim/MorphM9_06_orig.jpg,125,,,,,,,,,0,125,125,125,,,,,,,,,,,,,,,-21.533203125,-12.12890625,1,0,0,2.47763395309,,,,,2015_Oct_17_1254,G,facesParametric,15,59.6437560614,
./stim/MorphM6_08_orig.jpg,126,,,,,,,,,0,126,126,126,,,,,,,,,,,,,,,-21.533203125,-12.12890625,0,0,1,1.74157309532,,,,,2015_Oct_17_1254,G,facesParametric,15,59.6437560614,
./stim/MorphM4_09_orig.jpg,127,,,,,,,,,0,127,127,127,,,,,,,,,,,,,,,-21.533203125,-12.12890625,0,0,1,0.7016518116,,,,,2015_Oct_17_1254,G,facesParametric,15,59.6437560614,
./stim/MorphM2_08_orig.jpg,128,,,,,,,,,0,128,128,128,,,,,,,,,,,,,,,-21.533203125,-12.12890625,0,0,1,0.7694439888,,,,,2015_Oct_17_1254,G,facesParametric,15,59.6437560614,
./stim/MorphM1_03_orig.jpg,129,,,,,,,,,0,129,129,129,,,,,,,,,,,,,,,-21.533203125,-12.12890625,0,0,1,1.03776717186,,,,,2015_Oct_17_1254,G,facesParametric,15,59.6437560614,
./stim/MorphM2_10_orig.jpg,130,,,,,,,,,0,130,130,130,,,,,,,,,,,,,,,-21.533203125,-12.12890625,0,0,1,0.58549118042,,,,,2015_Oct_17_1254,G,facesParametric,15,59.6437560614,
./stim/MorphM9_02_orig.jpg,131,,,,,,,,,0,131,131,131,,,,,,,,,,,,,,,-22.03125,-12.451171875,1,0,0,2.32647705078,,,,,2015_Oct_17_1254,G,facesParametric,15,59.6437560614,
./stim/MorphM1_09_orig.jpg,132,,,,,,,,,0,132,132,132,,,,,,,,,,,,,,,-20.91796875,-12.568359375,0,0,1,1.222397089,,,,,2015_Oct_17_1254,G,facesParametric,15,59.6437560614,
./stim/MorphM8_09_orig.jpg,133,,,,,,,,,0,133,133,133,,,,,,,,,,,,,,,-20.7421875,-12.509765625,1,0,0,1.44022893906,,,,,2015_Oct_17_1254,G,facesParametric,15,59.6437560614,
./stim/MorphF5_08_orig.jpg,134,,,,,,,,,0,134,134,134,,,,,,,,,,,,,,,-20.7421875,-12.509765625,0,0,1,0.769061088562,,,,,2015_Oct_17_1254,G,facesParametric,15,59.6437560614,
./stim/MorphM5_04_orig.jpg,135,,,,,,,,,0,135,135,135,,,,,,,,,,,,,,,-20.7421875,-12.509765625,1,0,0,0.720306158066,,,,,2015_Oct_17_1254,G,facesParametric,15,59.6437560614,
./stim/MorphF4_05_orig.jpg,136,,,,,,,,,0,136,136,136,,,,,,,,,,,,,,,-20.625,-12.48046875,0,0,1,4.89178109169,,,,,2015_Oct_17_1254,G,facesParametric,15,59.6437560614,
./stim/MorphF10_04_orig.jpg,137,,,,,,,,,0,137,137,137,,,,,,,,,,,,,,,-20.625,-12.48046875,0,0,1,0.583378076553,,,,,2015_Oct_17_1254,G,facesParametric,15,59.6437560614,
./stim/MorphF5_09_orig.jpg,138,,,,,,,,,0,138,138,138,,,,,,,,,,,,,,,-20.625,-12.48046875,0,0,1,0.653124094009,,,,,2015_Oct_17_1254,G,facesParametric,15,59.6437560614,
./stim/MorphF3_05_orig.jpg,139,,,,,,,,,0,139,139,139,,,,,,,,,,,,,,,-19.306640625,-12.626953125,0,0,1,0.549429893494,,,,,2015_Oct_17_1254,G,facesParametric,15,59.6437560614,
./stim/MorphF5_01_orig.jpg,140,,,,,,,,,0,140,140,140,,,,,,,,,,,,,,,-19.27734375,-12.59765625,1,0,0,0.686113119125,,,,,2015_Oct_17_1254,G,facesParametric,15,59.6437560614,
./stim/MorphM6_10_orig.jpg,141,,,,,,,,,0,141,141,141,,,,,,,,,,,,,,,-19.27734375,-12.59765625,0,0,1,0.566770076752,,,,,2015_Oct_17_1254,G,facesParametric,15,59.6437560614,
./stim/MorphM5_03_orig.jpg,142,,,,,,,,,0,142,142,142,,,,,,,,,,,,,,,-19.248046875,-12.568359375,0,0,1,0.634984970093,,,,,2015_Oct_17_1254,G,facesParametric,15,59.6437560614,
./stim/MorphM1_02_orig.jpg,143,,,,,,,,,0,143,143,143,,,,,,,,,,,,,,,-19.248046875,-12.568359375,0,0,1,0.652278184891,,,,,2015_Oct_17_1254,G,facesParametric,15,59.6437560614,
./stim/MorphF9_07_orig.jpg,144,,,,,,,,,0,144,144,144,,,,,,,,,,,,,,,-19.27734375,-12.59765625,0,0,1,0.585555076599,,,,,2015_Oct_17_1254,G,facesParametric,15,59.6437560614,
./stim/MorphM1_10_orig.jpg,145,,,,,,,,,0,145,145,145,,,,,,,,,,,,,,,-19.27734375,-12.59765625,0,0,1,0.56773018837,,,,,2015_Oct_17_1254,G,facesParametric,15,59.6437560614,
./stim/MorphM2_07_orig.jpg,146,,,,,,,,,0,146,146,146,,,,,,,,,,,,,,,-19.27734375,-12.59765625,0,0,1,0.652384996414,,,,,2015_Oct_17_1254,G,facesParametric,15,59.6437560614,
./stim/MorphF2_02_orig.jpg,147,,,,,,,,,0,147,147,147,,,,,,,,,,,,,,,-19.306640625,-12.626953125,0,0,1,0.551931142807,,,,,2015_Oct_17_1254,G,facesParametric,15,59.6437560614,
./stim/MorphM9_08_orig.jpg,148,,,,,,,,,0,148,148,148,,,,,,,,,,,,,,,-19.04296875,-12.744140625,0,0,1,7.22212505341,,,,,2015_Oct_17_1254,G,facesParametric,15,59.6437560614,
./stim/MorphF8_02_orig.jpg,149,,,,,,,,,0,149,149,149,,,,,,,,,,,,,,,-19.04296875,-12.744140625,1,0,0,3.1149430275,,,,,2015_Oct_17_1254,G,facesParametric,15,59.6437560614,
./stim/MorphM4_03_orig.jpg,150,,,,,,,,,0,150,150,150,,,,,,,,,,,,,,,-19.04296875,-12.744140625,0,0,1,0.568583965302,,,,,2015_Oct_17_1254,G,facesParametric,15,59.6437560614,
./stim/MorphF6_03_orig.jpg,151,,,,,,,,,0,151,151,151,,,,,,,,,,,,,,,-19.16015625,-12.83203125,1,0,0,4.00433397293,,,,,2015_Oct_17_1254,G,facesParametric,15,59.6437560614,
./stim/MorphF8_05_orig.jpg,152,,,,,,,,,0,152,152,152,,,,,,,,,,,,,,,-19.16015625,-12.83203125,0,0,1,0.784562826157,,,,,2015_Oct_17_1254,G,facesParametric,15,59.6437560614,
./stim/MorphF7_10_orig.jpg,153,,,,,,,,,0,153,153,153,,,,,,,,,,,,,,,-19.1015625,-12.7734375,0,0,1,1.15401697159,,,,,2015_Oct_17_1254,G,facesParametric,15,59.6437560614,
./stim/MorphF3_01_orig.jpg,154,,,,,,,,,0,154,154,154,,,,,,,,,,,,,,,-19.072265625,-12.744140625,1,0,0,2.32632112503,,,,,2015_Oct_17_1254,G,facesParametric,15,59.6437560614,
./stim/MorphF1_10_orig.jpg,155,,,,,,,,,0,155,155,155,,,,,,,,,,,,,,,-19.072265625,-12.744140625,0,0,1,5.22763895988,,,,,2015_Oct_17_1254,G,facesParametric,15,59.6437560614,
./stim/MorphM6_07_orig.jpg,156,,,,,,,,,0,156,156,156,,,,,,,,,,,,,,,-19.072265625,-12.744140625,1,0,0,1.33950805664,,,,,2015_Oct_17_1254,G,facesParametric,15,59.6437560614,
./stim/MorphF6_00_orig.jpg,157,,,,,,,,,0,157,157,157,,,,,,,,,,,,,,,-19.1015625,-12.744140625,0,0,1,4.35550403595,,,,,2015_Oct_17_1254,G,facesParametric,15,59.6437560614,
./stim/MorphM10_08_orig.jpg,158,,,,,,,,,0,158,158,158,,,,,,,,,,,,,,,-19.248046875,-12.71484375,0,0,1,2.64684796333,,,,,2015_Oct_17_1254,G,facesParametric,15,59.6437560614,
./stim/MorphF3_08_orig.jpg,159,,,,,,,,,0,159,159,159,,,,,,,,,,,,,,,-19.306640625,-12.71484375,1,0,0,1.80887007713,,,,,2015_Oct_17_1254,G,facesParametric,15,59.6437560614,
./stim/MorphM4_04_orig.jpg,160,,,,,,,,,0,160,160,160,,,,,,,,,,,,,,,-19.3359375,-12.71484375,0,0,1,1.12128806114,,,,,2015_Oct_17_1254,G,facesParametric,15,59.6437560614,
./stim/MorphM9_04_orig.jpg,161,,,,,,,,,0,161,161,161,,,,,,,,,,,,,,,-19.365234375,-12.71484375,1,0,0,1.13768100739,,,,,2015_Oct_17_1254,G,facesParametric,15,59.6437560614,
./stim/MorphF4_04_orig.jpg,162,,,,,,,,,0,162,162,162,,,,,,,,,,,,,,,-19.365234375,-12.71484375,0,0,1,0.937270879745,,,,,2015_Oct_17_1254,G,facesParametric,15,59.6437560614,
./stim/MorphM8_08_orig.jpg,163,,,,,,,,,0,163,163,163,,,,,,,,,,,,,,,-19.365234375,-12.71484375,0,0,1,0.835484981537,,,,,2015_Oct_17_1254,G,facesParametric,15,59.6437560614,
./stim/MorphM7_01_orig.jpg,164,,,,,,,,,0,164,164,164,,,,,,,,,,,,,,,-19.39453125,-12.71484375,1,0,0,4.84289097786,,,,,2015_Oct_17_1254,G,facesParametric,15,59.6437560614,
./stim/MorphM8_00_orig.jpg,165,,,,,,,,,0,165,165,165,,,,,,,,,,,,,,,-19.423828125,-12.744140625,0,0,1,0.835065841675,,,,,2015_Oct_17_1254,G,facesParametric,15,59.6437560614,
./stim/MorphM6_04_orig.jpg,166,,,,,,,,,0,166,166,166,,,,,,,,,,,,,,,-19.453125,-12.7734375,0,0,1,2.64763689041,,,,,2015_Oct_17_1254,G,facesParametric,15,59.6437560614,
./stim/MorphM9_09_orig.jpg,167,,,,,,,,,0,167,167,167,,,,,,,,,,,,,,,-19.453125,-12.7734375,0,0,1,0.735070943832,,,,,2015_Oct_17_1254,G,facesParametric,15,59.6437560614,
./stim/MorphF1_06_orig.jpg,168,,,,,,,,,0,168,168,168,,,,,,,,,,,,,,,-19.453125,-12.7734375,1,0,0,1.00378084183,,,,,2015_Oct_17_1254,G,facesParametric,15,59.6437560614,
./stim/MorphM7_02_orig.jpg,169,,,,,,,,,0,169,169,169,,,,,,,,,,,,,,,-19.453125,-12.7734375,0,0,1,0.652224063873,,,,,2015_Oct_17_1254,G,facesParametric,15,59.6437560614,
./stim/MorphF7_06_orig.jpg,170,,,,,,,,,0,170,170,170,,,,,,,,,,,,,,,-19.423828125,-12.802734375,0,0,1,2.39417004585,,,,,2015_Oct_17_1254,G,facesParametric,15,59.6437560614,
./stim/MorphM9_00_orig.jpg,171,,,,,,,,,0,171,171,171,,,,,,,,,,,,,,,-21.62109375,-13.037109375,1,0,0,11.3448519707,,,,,2015_Oct_17_1254,G,facesParametric,15,59.6437560614,
./stim/MorphM3_04_orig.jpg,172,,,,,,,,,0,172,172,172,,,,,,,,,,,,,,,-21.62109375,-13.037109375,0,0,1,0.769911050797,,,,,2015_Oct_17_1254,G,facesParametric,15,59.6437560614,
./stim/MorphF7_09_orig.jpg,173,,,,,,,,,0,173,173,173,,,,,,,,,,,,,,,-21.62109375,-13.037109375,0,0,1,0.786395788193,,,,,2015_Oct_17_1254,G,facesParametric,15,59.6437560614,
./stim/MorphM8_07_orig.jpg,174,,,,,,,,,0,174,174,174,,,,,,,,,,,,,,,-21.62109375,-13.037109375,0,0,1,1.87555480003,,,,,2015_Oct_17_1254,G,facesParametric,15,59.6437560614,
./stim/MorphF1_02_orig.jpg,175,,,,,,,,,0,175,175,175,,,,,,,,,,,,,,,-21.62109375,-13.037109375,1,0,0,2.84820103645,,,,,2015_Oct_17_1254,G,facesParametric,15,59.6437560614,
./stim/MorphM7_00_orig.jpg,176,,,,,,,,,0,176,176,176,,,,,,,,,,,,,,,-21.62109375,-13.037109375,0,0,1,1.52206206322,,,,,2015_Oct_17_1254,G,facesParametric,15,59.6437560614,
./stim/MorphF10_03_orig.jpg,177,,,,,,,,,0,177,177,177,,,,,,,,,,,,,,,-21.62109375,-13.0078125,0,0,1,4.792085886,,,,,2015_Oct_17_1254,G,facesParametric,15,59.6437560614,
./stim/MorphM8_01_orig.jpg,178,,,,,,,,,0,178,178,178,,,,,,,,,,,,,,,-21.5625,-12.94921875,0,0,1,6.13252902031,,,,,2015_Oct_17_1254,G,facesParametric,15,59.6437560614,
./stim/MorphF10_07_orig.jpg,179,,,,,,,,,0,179,179,179,,,,,,,,,,,,,,,-21.5625,-12.94921875,0,0,1,0.719504833221,,,,,2015_Oct_17_1254,G,facesParametric,15,59.6437560614,
./stim/MorphM3_10_orig.jpg,180,,,,,,,,,0,180,180,180,,,,,,,,,,,,,,,-21.5625,-12.94921875,0,0,1,0.635974884033,,,,,2015_Oct_17_1254,G,facesParametric,15,59.6437560614,
./stim/MorphF7_07_orig.jpg,181,,,,,,,,,0,181,181,181,,,,,,,,,,,,,,,-21.5625,-12.94921875,0,0,1,0.652377128601,,,,,2015_Oct_17_1254,G,facesParametric,15,59.6437560614,
./stim/MorphM1_04_orig.jpg,182,,,,,,,,,0,182,182,182,,,,,,,,,,,,,,,-21.50390625,-12.919921875,0,0,1,7.60639619827,,,,,2015_Oct_17_1254,G,facesParametric,15,59.6437560614,
./stim/MorphM6_00_orig.jpg,183,,,,,,,,,0,183,183,183,,,,,,,,,,,,,,,-21.474609375,-12.94921875,1,0,0,1.17217087746,,,,,2015_Oct_17_1254,G,facesParametric,15,59.6437560614,
./stim/MorphF1_00_orig.jpg,184,,,,,,,,,0,184,184,184,,,,,,,,,,,,,,,-21.474609375,-12.94921875,1,0,0,0.652301073074,,,,,2015_Oct_17_1254,G,facesParametric,15,59.6437560614,
./stim/MorphF5_05_orig.jpg,185,,,,,,,,,0,185,185,185,,,,,,,,,,,,,,,-21.474609375,-12.94921875,1,0,0,2.07647395134,,,,,2015_Oct_17_1254,G,facesParametric,15,59.6437560614,
./stim/MorphF9_01_orig.jpg,186,,,,,,,,,0,186,186,186,,,,,,,,,,,,,,,-21.4453125,-12.978515625,0,0,1,2.72990107536,,,,,2015_Oct_17_1254,G,facesParametric,15,59.6437560614,
./stim/MorphF8_08_orig.jpg,187,,,,,,,,,0,187,187,187,,,,,,,,,,,,,,,-21.4453125,-13.0078125,0,0,1,0.619292974472,,,,,2015_Oct_17_1254,G,facesParametric,15,59.6437560614,
./stim/MorphM7_05_orig.jpg,188,,,,,,,,,0,188,188,188,,,,,,,,,,,,,,,-21.50390625,-13.037109375,0,0,1,0.518235206604,,,,,2015_Oct_17_1254,G,facesParametric,15,59.6437560614,
./stim/MorphM8_05_orig.jpg,189,,,,,,,,,0,189,189,189,,,,,,,,,,,,,,,-21.533203125,-13.06640625,0,0,1,1.35608005524,,,,,2015_Oct_17_1254,G,facesParametric,15,59.6437560614,
./stim/MorphF7_01_orig.jpg,190,,,,,,,,,0,190,190,190,,,,,,,,,,,,,,,-21.533203125,-13.154296875,0,0,1,0.55176615715,,,,,2015_Oct_17_1254,G,facesParametric,15,59.6437560614,
./stim/MorphF10_06_orig.jpg,191,,,,,,,,,0,191,191,191,,,,,,,,,,,,,,,-21.533203125,-13.154296875,0,0,1,0.685034990311,,,,,2015_Oct_17_1254,G,facesParametric,15,59.6437560614,
./stim/MorphF1_07_orig.jpg,192,,,,,,,,,0,192,192,192,,,,,,,,,,,,,,,-21.533203125,-13.154296875,0,0,1,1.40659308434,,,,,2015_Oct_17_1254,G,facesParametric,15,59.6437560614,
./stim/MorphM10_01_orig.jpg,193,,,,,,,,,0,193,193,193,,,,,,,,,,,,,,,-21.50390625,-13.154296875,1,0,0,2.86502695084,,,,,2015_Oct_17_1254,G,facesParametric,15,59.6437560614,
./stim/MorphF7_05_orig.jpg,194,,,,,,,,,0,194,194,194,,,,,,,,,,,,,,,-21.50390625,-13.154296875,0,0,1,1.1388528347,,,,,2015_Oct_17_1254,G,facesParametric,15,59.6437560614,
./stim/MorphM7_09_orig.jpg,195,,,,,,,,,0,195,195,195,,,,,,,,,,,,,,,-21.50390625,-13.154296875,0,0,1,0.817854881287,,,,,2015_Oct_17_1254,G,facesParametric,15,59.6437560614,
./stim/MorphM4_00_orig.jpg,196,,,,,,,,,0,196,196,196,,,,,,,,,,,,,,,-21.4453125,-13.125,0,0,1,1.05498290062,,,,,2015_Oct_17_1254,G,facesParametric,15,59.6437560614,
./stim/MorphF10_01_orig.jpg,197,,,,,,,,,0,197,197,197,,,,,,,,,,,,,,,-23.056640625,-13.037109375,0,0,1,3.41715312004,,,,,2015_Oct_17_1254,G,facesParametric,15,59.6437560614,
./stim/MorphM6_05_orig.jpg,198,,,,,,,,,0,198,198,198,,,,,,,,,,,,,,,-23.02734375,-13.037109375,0,0,1,0.700182914734,,,,,2015_Oct_17_1254,G,facesParametric,15,59.6437560614,
./stim/MorphM7_03_orig.jpg,199,,,,,,,,,0,199,199,199,,,,,,,,,,,,,,,-23.0859375,-13.037109375,0,0,1,0.63373708725,,,,,2015_Oct_17_1254,G,facesParametric,15,59.6437560614,
./stim/MorphM3_06_orig.jpg,200,,,,,,,,,0,200,200,200,,,,,,,,,,,,,,,-23.115234375,-13.037109375,0,0,1,0.753219127655,,,,,2015_Oct_17_1254,G,facesParametric,15,59.6437560614,
./stim/MorphM6_09_orig.jpg,201,,,,,,,,,0,201,201,201,,,,,,,,,,,,,,,-19.189453125,-13.154296875,1,0,0,3.18258595467,,,,,2015_Oct_17_1254,G,facesParametric,15,59.6437560614,
./stim/MorphF4_00_orig.jpg,202,,,,,,,,,0,202,202,202,,,,,,,,,,,,,,,-18.955078125,-13.154296875,0,0,1,0.802049875259,,,,,2015_Oct_17_1254,G,facesParametric,15,59.6437560614,
./stim/MorphF9_02_orig.jpg,203,,,,,,,,,0,203,203,203,,,,,,,,,,,,,,,-18.984375,-13.154296875,0,0,1,0.836160898209,,,,,2015_Oct_17_1254,G,facesParametric,15,59.6437560614,
./stim/MorphM3_03_orig.jpg,204,,,,,,,,,0,204,204,204,,,,,,,,,,,,,,,-19.013671875,-13.154296875,0,0,1,0.719777822495,,,,,2015_Oct_17_1254,G,facesParametric,15,59.6437560614,
./stim/MorphF10_00_orig.jpg,205,,,,,,,,,0,205,205,205,,,,,,,,,,,,,,,-18.80859375,-13.154296875,0,0,1,1.22169685364,,,,,2015_Oct_17_1254,G,facesParametric,15,59.6437560614,
./stim/MorphM3_00_orig.jpg,206,,,,,,,,,0,206,206,206,,,,,,,,,,,,,,,-18.80859375,-13.154296875,0,0,1,0.91993689537,,,,,2015_Oct_17_1254,G,facesParametric,15,59.6437560614,
./stim/MorphF10_02_orig.jpg,207,,,,,,,,,0,207,207,207,,,,,,,,,,,,,,,-18.8671875,-13.154296875,0,0,1,1.32203483582,,,,,2015_Oct_17_1254,G,facesParametric,15,59.6437560614,
./stim/MorphM3_05_orig.jpg,208,,,,,,,,,0,208,208,208,,,,,,,,,,,,,,,-18.8671875,-13.154296875,0,0,1,0.633455038071,,,,,2015_Oct_17_1254,G,facesParametric,15,59.6437560614,
./stim/MorphM1_08_orig.jpg,209,,,,,,,,,0,209,209,209,,,,,,,,,,,,,,,-18.837890625,-13.154296875,0,0,1,0.736121892929,,,,,2015_Oct_17_1254,G,facesParametric,15,59.6437560614,
./stim/MorphF8_00_orig.jpg,210,,,,,,,,,0,210,210,210,,,,,,,,,,,,,,,-18.80859375,-13.154296875,0,0,1,1.79223513603,,,,,2015_Oct_17_1254,G,facesParametric,15,59.6437560614,
./stim/MorphM6_06_orig.jpg,211,,,,,,,,,0,211,211,211,,,,,,,,,,,,,,,-18.80859375,-13.154296875,0,0,1,0.785504817963,,,,,2015_Oct_17_1254,G,facesParametric,15,59.6437560614,
./stim/MorphM10_04_orig.jpg,212,,,,,,,,,0,212,212,212,,,,,,,,,,,,,,,-13.18359375,-12.12890625,0,0,1,4.95851612091,,,,,2015_Oct_17_1254,G,facesParametric,15,59.6437560614,
./stim/MorphF1_09_orig.jpg,213,,,,,,,,,0,213,213,213,,,,,,,,,,,,,,,-13.18359375,-12.12890625,0,0,1,0.785007953644,,,,,2015_Oct_17_1254,G,facesParametric,15,59.6437560614,
./stim/MorphM2_05_orig.jpg,214,,,,,,,,,0,214,214,214,,,,,,,,,,,,,,,-13.0078125,-12.216796875,0,0,1,0.885730981827,,,,,2015_Oct_17_1254,G,facesParametric,15,59.6437560614,
./stim/MorphF2_06_orig.jpg,215,,,,,,,,,0,215,215,215,,,,,,,,,,,,,,,-12.94921875,-12.802734375,0,0,1,1.84048700333,,,,,2015_Oct_17_1254,G,facesParametric,15,59.6437560614,
./stim/MorphF3_07_orig.jpg,216,,,,,,,,,0,216,216,216,,,,,,,,,,,,,,,-12.626953125,-12.71484375,1,0,0,2.91362905502,,,,,2015_Oct_17_1254,G,facesParametric,15,59.6437560614,
./stim/MorphM10_00_orig.jpg,217,,,,,,,,,0,217,217,217,,,,,,,,,,,,,,,-12.568359375,-12.71484375,1,0,0,0.95266699791,,,,,2015_Oct_17_1254,G,facesParametric,15,59.6437560614,
./stim/MorphF3_04_orig.jpg,218,,,,,,,,,0,218,218,218,,,,,,,,,,,,,,,-12.333984375,-12.744140625,1,0,0,1.17253899574,,,,,2015_Oct_17_1254,G,facesParametric,15,59.6437560614,
./stim/MorphM3_02_orig.jpg,219,,,,,,,,,0,219,219,219,,,,,,,,,,,,,,,-21.73828125,-13.154296875,1,0,0,10.4880299568,,,,,2015_Oct_17_1254,G,facesParametric,15,59.6437560614,
,,,,,,,,,,,,,,,,,,,,,,,,,,,,,,,,,,,,return,6.77874207497,2015_Oct_17_1254,G,facesParametric,15,59.6437560614,
