img,num,basicLoop.thisRepN,basicLoop.thisTrialN,basicLoop.thisN,basicLoop.thisIndex,trials.thisRepN,trials.thisTrialN,trials.thisN,trials.thisIndex,trials2.thisRepN,trials2.thisTrialN,trials2.thisN,trials2.thisIndex,key_resp_2.keys,key_resp_2.rt,basicRating1.response,basicRating1.rt,basicRating2.response,basicRating2.rt,basicRating3.response,basicRating3.rt,basicRating4.response,basicRating4.rt,key_resp_3.keys,key_resp_3.rt,key_resp_4.keys,key_resp_4.rt,mouseResp.x,mouseResp.y,mouseResp.leftButton,mouseResp.midButton,mouseResp.rightButton,mouseResp.time,key_resp_5.keys,key_resp_5.rt,key_resp_7.keys,key_resp_7.rt,date,group,expName,participant,frameRate,
,,,,,,,,,,,,,,return,47.2902851105,,,,,,,,,,,,,,,,,,,,,,,2015_Oct_20_1314,G,facesParametric,16,59.5670130032,
./basicStim/24M_AN_O.jpg,,0,0,0,56,,,,,,,,,,,None,None,None,None,SUP,15.327,None,None,,,,,,,,,,,,,,,2015_Oct_20_1314,G,facesParametric,16,59.5670130032,
./basicStim/21M_SA_C.jpg,,0,1,1,46,,,,,,,,,,,None,None,None,None,SUP,12.203,None,None,,,,,,,,,,,,,,,2015_Oct_20_1314,G,facesParametric,16,59.5670130032,
./basicStim/01F_FE_O.jpg,,0,2,2,2,,,,,,,,,,,None,None,None,None,None,None,NTR,10.933,,,,,,,,,,,,,,,2015_Oct_20_1314,G,facesParametric,16,59.5670130032,
./basicStim/34M_SA_C.jpg,,0,3,3,74,,,,,,,,,,,SAD,8.991,None,None,None,None,None,None,,,,,,,,,,,,,,,2015_Oct_20_1314,G,facesParametric,16,59.5670130032,
./basicStim/36M_HA_O.jpg,,0,4,4,80,,,,,,,,,,,HAP,3.307,None,None,None,None,None,None,,,,,,,,,,,,,,,2015_Oct_20_1314,G,facesParametric,16,59.5670130032,
./basicStim/06F_SA_C.jpg,,0,5,5,25,,,,,,,,,,,None,None,ANG,3.728,None,None,None,None,,,,,,,,,,,,,,,2015_Oct_20_1314,G,facesParametric,16,59.5670130032,
./basicStim/23M_AN_O.jpg,,0,6,6,49,,,,,,,,,,,None,None,ANG,5.19,None,None,None,None,,,,,,,,,,,,,,,2015_Oct_20_1314,G,facesParametric,16,59.5670130032,
./basicStim/21M_HA_O.jpg,,0,7,7,45,,,,,,,,,,,HAP,2.356,None,None,None,None,None,None,,,,,,,,,,,,,,,2015_Oct_20_1314,G,facesParametric,16,59.5670130032,
./basicStim/01F_DI_O.jpg,,0,8,8,1,,,,,,,,,,,None,None,None,None,DIS,3.29,None,None,,,,,,,,,,,,,,,2015_Oct_20_1314,G,facesParametric,16,59.5670130032,
./basicStim/01F_NE_C.jpg,,0,9,9,6,,,,,,,,,,,HAP,2.051,None,None,None,None,None,None,,,,,,,,,,,,,,,2015_Oct_20_1314,G,facesParametric,16,59.5670130032,
./basicStim/07F_HA_O.jpg,,0,10,10,31,,,,,,,,,,,HAP,0.793,None,None,None,None,None,None,,,,,,,,,,,,,,,2015_Oct_20_1314,G,facesParametric,16,59.5670130032,
./basicStim/21M_FE_O.jpg,,0,11,11,44,,,,,,,,,,,None,None,None,None,SUP,2.6,None,None,,,,,,,,,,,,,,,2015_Oct_20_1314,G,facesParametric,16,59.5670130032,
./basicStim/23M_FE_O.jpg,,0,12,12,51,,,,,,,,,,,None,None,None,None,None,None,NTR,2.179,,,,,,,,,,,,,,,2015_Oct_20_1314,G,facesParametric,16,59.5670130032,
./basicStim/09F_HA_O.jpg,,0,13,13,38,,,,,,,,,,,HAP,2.619,None,None,None,None,None,None,,,,,,,,,,,,,,,2015_Oct_20_1314,G,facesParametric,16,59.5670130032,
./basicStim/07F_DI_O.jpg,,0,14,14,29,,,,,,,,,,,None,None,None,None,DIS,2.43,None,None,,,,,,,,,,,,,,,2015_Oct_20_1314,G,facesParametric,16,59.5670130032,
./basicStim/34M_HA_O.jpg,,0,15,15,73,,,,,,,,,,,HAP,1.667,None,None,None,None,None,None,,,,,,,,,,,,,,,2015_Oct_20_1314,G,facesParametric,16,59.5670130032,
./basicStim/07F_SA_C.jpg,,0,16,16,32,,,,,,,,,,,SAD,2.439,None,None,None,None,None,None,,,,,,,,,,,,,,,2015_Oct_20_1314,G,facesParametric,16,59.5670130032,
./basicStim/21M_SP_O.jpg,,0,17,17,47,,,,,,,,,,,None,None,None,None,SUP,2.807,None,None,,,,,,,,,,,,,,,2015_Oct_20_1314,G,facesParametric,16,59.5670130032,
./basicStim/24M_SP_O.jpg,,0,18,18,61,,,,,,,,,,,None,None,None,None,None,None,NTR,3.576,,,,,,,,,,,,,,,2015_Oct_20_1314,G,facesParametric,16,59.5670130032,
./basicStim/28M_DI_O.jpg,,0,19,19,64,,,,,,,,,,,None,None,None,None,DIS,2.151,None,None,,,,,,,,,,,,,,,2015_Oct_20_1314,G,facesParametric,16,59.5670130032,
./basicStim/36M_SP_O.jpg,,0,20,20,82,,,,,,,,,,,None,None,None,None,SUP,2.701,None,None,,,,,,,,,,,,,,,2015_Oct_20_1314,G,facesParametric,16,59.5670130032,
./basicStim/34M_FE_O.jpg,,0,21,21,72,,,,,,,,,,,None,None,None,None,SUP,1.024,None,None,,,,,,,,,,,,,,,2015_Oct_20_1314,G,facesParametric,16,59.5670130032,
./basicStim/28M_SA_C.jpg,,0,22,22,67,,,,,,,,,,,SAD,2.099,None,None,None,None,None,None,,,,,,,,,,,,,,,2015_Oct_20_1314,G,facesParametric,16,59.5670130032,
./basicStim/09F_DI_O.jpg,,0,23,23,36,,,,,,,,,,,None,None,None,None,DIS,1.428,None,None,,,,,,,,,,,,,,,2015_Oct_20_1314,G,facesParametric,16,59.5670130032,
./basicStim/28M_FE_O.jpg,,0,24,24,65,,,,,,,,,,,None,None,FEA,2.503,None,None,None,None,,,,,,,,,,,,,,,2015_Oct_20_1314,G,facesParametric,16,59.5670130032,
./basicStim/23M_DI_O.jpg,,0,25,25,50,,,,,,,,,,,SAD,3.746,None,None,None,None,None,None,,,,,,,,,,,,,,,2015_Oct_20_1314,G,facesParametric,16,59.5670130032,
./basicStim/06F_AN_O.jpg,,0,26,26,21,,,,,,,,,,,None,None,ANG,1.864,None,None,None,None,,,,,,,,,,,,,,,2015_Oct_20_1314,G,facesParametric,16,59.5670130032,
./basicStim/36M_AN_O.jpg,,0,27,27,77,,,,,,,,,,,None,None,ANG,0.81,None,None,None,None,,,,,,,,,,,,,,,2015_Oct_20_1314,G,facesParametric,16,59.5670130032,
./basicStim/24M_DI_O.jpg,,0,28,28,57,,,,,,,,,,,None,None,ANG,1.694,None,None,None,None,,,,,,,,,,,,,,,2015_Oct_20_1314,G,facesParametric,16,59.5670130032,
./basicStim/24M_FE_O.jpg,,0,29,29,58,,,,,,,,,,,None,None,None,None,SUP,4.29,None,None,,,,,,,,,,,,,,,2015_Oct_20_1314,G,facesParametric,16,59.5670130032,
./basicStim/09F_FE_O.jpg,,0,30,30,37,,,,,,,,,,,None,None,None,None,SUP,2.671,None,None,,,,,,,,,,,,,,,2015_Oct_20_1314,G,facesParametric,16,59.5670130032,
./basicStim/09F_AN_O.jpg,,0,31,31,35,,,,,,,,,,,None,None,ANG,2.719,None,None,None,None,,,,,,,,,,,,,,,2015_Oct_20_1314,G,facesParametric,16,59.5670130032,
./basicStim/03F_SP_O.jpg,,0,32,32,19,,,,,,,,,,,None,None,None,None,SUP,1.208,None,None,,,,,,,,,,,,,,,2015_Oct_20_1314,G,facesParametric,16,59.5670130032,
./basicStim/03F_FE_O.jpg,,0,33,33,16,,,,,,,,,,,None,None,None,None,SUP,1.527,None,None,,,,,,,,,,,,,,,2015_Oct_20_1314,G,facesParametric,16,59.5670130032,
./basicStim/07F_NE_C.jpg,,0,34,34,34,,,,,,,,,,,None,None,None,None,None,None,NTR,4.479,,,,,,,,,,,,,,,2015_Oct_20_1314,G,facesParametric,16,59.5670130032,
./basicStim/06F_SP_O.jpg,,0,35,35,26,,,,,,,,,,,None,None,None,None,SUP,1.917,None,None,,,,,,,,,,,,,,,2015_Oct_20_1314,G,facesParametric,16,59.5670130032,
./basicStim/03F_AN_O.jpg,,0,36,36,14,,,,,,,,,,,None,None,ANG,4.771,None,None,None,None,,,,,,,,,,,,,,,2015_Oct_20_1314,G,facesParametric,16,59.5670130032,
./basicStim/07F_AN_O.jpg,,0,37,37,28,,,,,,,,,,,None,None,None,None,SUP,6.879,None,None,,,,,,,,,,,,,,,2015_Oct_20_1314,G,facesParametric,16,59.5670130032,
./basicStim/09F_SA_C.jpg,,0,38,38,39,,,,,,,,,,,None,None,None,None,SUP,4.514,None,None,,,,,,,,,,,,,,,2015_Oct_20_1314,G,facesParametric,16,59.5670130032,
./basicStim/06F_NE_C.jpg,,0,39,39,27,,,,,,,,,,,None,None,None,None,SUP,9.469,None,None,,,,,,,,,,,,,,,2015_Oct_20_1314,G,facesParametric,16,59.5670130032,
./basicStim/36M_SA_C.jpg,,0,40,40,81,,,,,,,,,,,None,None,None,None,SUP,5.287,None,None,,,,,,,,,,,,,,,2015_Oct_20_1314,G,facesParametric,16,59.5670130032,
./basicStim/23M_SA_C.jpg,,0,41,41,53,,,,,,,,,,,SAD,3.173,None,None,None,None,None,None,,,,,,,,,,,,,,,2015_Oct_20_1314,G,facesParametric,16,59.5670130032,
./basicStim/21M_NE_C.jpg,,0,42,42,48,,,,,,,,,,,HAP,2.003,None,None,None,None,None,None,,,,,,,,,,,,,,,2015_Oct_20_1314,G,facesParametric,16,59.5670130032,
./basicStim/03F_NE_C.jpg,,0,43,43,20,,,,,,,,,,,None,None,None,None,None,None,NTR,1.861,,,,,,,,,,,,,,,2015_Oct_20_1314,G,facesParametric,16,59.5670130032,
./basicStim/36M_FE_O.jpg,,0,44,44,79,,,,,,,,,,,None,None,None,None,SUP,3.156,None,None,,,,,,,,,,,,,,,2015_Oct_20_1314,G,facesParametric,16,59.5670130032,
./basicStim/01F_HA_O.jpg,,0,45,45,3,,,,,,,,,,,HAP,2.469,None,None,None,None,None,None,,,,,,,,,,,,,,,2015_Oct_20_1314,G,facesParametric,16,59.5670130032,
./basicStim/02F_HA_O.jpg,,0,46,46,10,,,,,,,,,,,HAP,0.544,None,None,None,None,None,None,,,,,,,,,,,,,,,2015_Oct_20_1314,G,facesParametric,16,59.5670130032,
./basicStim/23M_SP_O.jpg,,0,47,47,54,,,,,,,,,,,None,None,None,None,SUP,2.417,None,None,,,,,,,,,,,,,,,2015_Oct_20_1314,G,facesParametric,16,59.5670130032,
./basicStim/02F_AN_O.jpg,,0,48,48,7,,,,,,,,,,,None,None,ANG,3.526,None,None,None,None,,,,,,,,,,,,,,,2015_Oct_20_1314,G,facesParametric,16,59.5670130032,
./basicStim/28M_SP_O.jpg,,0,49,49,68,,,,,,,,,,,HAP,3.723,None,None,None,None,None,None,,,,,,,,,,,,,,,2015_Oct_20_1314,G,facesParametric,16,59.5670130032,
./basicStim/06F_DI_O.jpg,,0,50,50,22,,,,,,,,,,,None,None,ANG,2.923,None,None,None,None,,,,,,,,,,,,,,,2015_Oct_20_1314,G,facesParametric,16,59.5670130032,
./basicStim/36M_NE_C.jpg,,0,51,51,83,,,,,,,,,,,HAP,4.937,None,None,None,None,None,None,,,,,,,,,,,,,,,2015_Oct_20_1314,G,facesParametric,16,59.5670130032,
./basicStim/01F_SA_C.jpg,,0,52,52,4,,,,,,,,,,,SAD,3.327,None,None,None,None,None,None,,,,,,,,,,,,,,,2015_Oct_20_1314,G,facesParametric,16,59.5670130032,
./basicStim/02F_DI_O.jpg,,0,53,53,8,,,,,,,,,,,None,None,ANG,1.407,None,None,None,None,,,,,,,,,,,,,,,2015_Oct_20_1314,G,facesParametric,16,59.5670130032,
./basicStim/01F_AN_O.jpg,,0,54,54,0,,,,,,,,,,,None,None,ANG,0.558,None,None,None,None,,,,,,,,,,,,,,,2015_Oct_20_1314,G,facesParametric,16,59.5670130032,
./basicStim/24M_SA_C.jpg,,0,55,55,60,,,,,,,,,,,SAD,2.905,None,None,None,None,None,None,,,,,,,,,,,,,,,2015_Oct_20_1314,G,facesParametric,16,59.5670130032,
./basicStim/21M_DI_O.jpg,,0,56,56,43,,,,,,,,,,,None,None,None,None,SUP,2.181,None,None,,,,,,,,,,,,,,,2015_Oct_20_1314,G,facesParametric,16,59.5670130032,
./basicStim/34M_SP_O.jpg,,0,57,57,75,,,,,,,,,,,HAP,2.299,None,None,None,None,None,None,,,,,,,,,,,,,,,2015_Oct_20_1314,G,facesParametric,16,59.5670130032,
./basicStim/34M_NE_C.jpg,,0,58,58,76,,,,,,,,,,,None,None,None,None,None,None,NTR,3.453,,,,,,,,,,,,,,,2015_Oct_20_1314,G,facesParametric,16,59.5670130032,
./basicStim/03F_DI_O.jpg,,0,59,59,15,,,,,,,,,,,None,None,ANG,2.57,None,None,None,None,,,,,,,,,,,,,,,2015_Oct_20_1314,G,facesParametric,16,59.5670130032,
./basicStim/34M_AN_O.jpg,,0,60,60,70,,,,,,,,,,,None,None,ANG,2.367,None,None,None,None,,,,,,,,,,,,,,,2015_Oct_20_1314,G,facesParametric,16,59.5670130032,
./basicStim/21M_AN_O.jpg,,0,61,61,42,,,,,,,,,,,None,None,ANG,0.972,None,None,None,None,,,,,,,,,,,,,,,2015_Oct_20_1314,G,facesParametric,16,59.5670130032,
./basicStim/02F_NE_C.jpg,,0,62,62,13,,,,,,,,,,,HAP,4.253,None,None,None,None,None,None,,,,,,,,,,,,,,,2015_Oct_20_1314,G,facesParametric,16,59.5670130032,
./basicStim/24M_HA_O.jpg,,0,63,63,59,,,,,,,,,,,HAP,0.508,None,None,None,None,None,None,,,,,,,,,,,,,,,2015_Oct_20_1314,G,facesParametric,16,59.5670130032,
./basicStim/24M_NE_C.jpg,,0,64,64,62,,,,,,,,,,,None,None,None,None,None,None,NTR,2.893,,,,,,,,,,,,,,,2015_Oct_20_1314,G,facesParametric,16,59.5670130032,
./basicStim/34M_DI_O.jpg,,0,65,65,71,,,,,,,,,,,None,None,None,None,DIS,3.17,None,None,,,,,,,,,,,,,,,2015_Oct_20_1314,G,facesParametric,16,59.5670130032,
./basicStim/28M_NE_C.jpg,,0,66,66,69,,,,,,,,,,,HAP,2.487,None,None,None,None,None,None,,,,,,,,,,,,,,,2015_Oct_20_1314,G,facesParametric,16,59.5670130032,
./basicStim/07F_FE_O.jpg,,0,67,67,30,,,,,,,,,,,None,None,None,None,SUP,2.149,None,None,,,,,,,,,,,,,,,2015_Oct_20_1314,G,facesParametric,16,59.5670130032,
./basicStim/02F_SA_C.jpg,,0,68,68,11,,,,,,,,,,,SAD,2.232,None,None,None,None,None,None,,,,,,,,,,,,,,,2015_Oct_20_1314,G,facesParametric,16,59.5670130032,
./basicStim/06F_FE_O.jpg,,0,69,69,23,,,,,,,,,,,SAD,1.161,None,None,None,None,None,None,,,,,,,,,,,,,,,2015_Oct_20_1314,G,facesParametric,16,59.5670130032,
./basicStim/28M_HA_O.jpg,,0,70,70,66,,,,,,,,,,,HAP,2.42,None,None,None,None,None,None,,,,,,,,,,,,,,,2015_Oct_20_1314,G,facesParametric,16,59.5670130032,
./basicStim/09F_SP_O.jpg,,0,71,71,40,,,,,,,,,,,None,None,None,None,SUP,2.261,None,None,,,,,,,,,,,,,,,2015_Oct_20_1314,G,facesParametric,16,59.5670130032,
./basicStim/02F_SP_O.jpg,,0,72,72,12,,,,,,,,,,,None,None,None,None,SUP,0.725,None,None,,,,,,,,,,,,,,,2015_Oct_20_1314,G,facesParametric,16,59.5670130032,
./basicStim/03F_SA_C.jpg,,0,73,73,18,,,,,,,,,,,SAD,1.916,None,None,None,None,None,None,,,,,,,,,,,,,,,2015_Oct_20_1314,G,facesParametric,16,59.5670130032,
./basicStim/09F_NE_C.jpg,,0,74,74,41,,,,,,,,,,,None,None,None,None,None,None,NTR,3.206,,,,,,,,,,,,,,,2015_Oct_20_1314,G,facesParametric,16,59.5670130032,
./basicStim/07F_SP_O.jpg,,0,75,75,33,,,,,,,,,,,None,None,None,None,SUP,4.09,None,None,,,,,,,,,,,,,,,2015_Oct_20_1314,G,facesParametric,16,59.5670130032,
./basicStim/36M_DI_O.jpg,,0,76,76,78,,,,,,,,,,,None,None,ANG,1.972,None,None,None,None,,,,,,,,,,,,,,,2015_Oct_20_1314,G,facesParametric,16,59.5670130032,
./basicStim/28M_AN_O.jpg,,0,77,77,63,,,,,,,,,,,None,None,ANG,0.675,None,None,None,None,,,,,,,,,,,,,,,2015_Oct_20_1314,G,facesParametric,16,59.5670130032,
./basicStim/23M_NE_C.jpg,,0,78,78,55,,,,,,,,,,,None,None,None,None,None,None,NTR,1.916,,,,,,,,,,,,,,,2015_Oct_20_1314,G,facesParametric,16,59.5670130032,
./basicStim/23M_HA_O.jpg,,0,79,79,52,,,,,,,,,,,HAP,3.174,None,None,None,None,None,None,,,,,,,,,,,,,,,2015_Oct_20_1314,G,facesParametric,16,59.5670130032,
./basicStim/02F_FE_O.jpg,,0,80,80,9,,,,,,,,,,,None,None,None,None,SUP,1.68,None,None,,,,,,,,,,,,,,,2015_Oct_20_1314,G,facesParametric,16,59.5670130032,
./basicStim/01F_SP_O.jpg,,0,81,81,5,,,,,,,,,,,None,None,None,None,SUP,0.79,None,None,,,,,,,,,,,,,,,2015_Oct_20_1314,G,facesParametric,16,59.5670130032,
./basicStim/06F_HA_O.jpg,,0,82,82,24,,,,,,,,,,,HAP,1.563,None,None,None,None,None,None,,,,,,,,,,,,,,,2015_Oct_20_1314,G,facesParametric,16,59.5670130032,
./basicStim/03F_HA_O.jpg,,0,83,83,17,,,,,,,,,,,HAP,0.541,None,None,None,None,None,None,,,,,,,,,,,,,,,2015_Oct_20_1314,G,facesParametric,16,59.5670130032,
,,,,,,,,,,,,,,,,,,,,,,,,return,7.72705388069,,,,,,,,,,,,,2015_Oct_20_1314,G,facesParametric,16,59.5670130032,
,,,,,,,,,,,,,,return,36.9542050362,,,,,,,,,,,,,,,,,,,,,,,2015_Oct_20_1314,G,facesParametric,16,59.5670130032,
,,,,,,,,,,,,,,,,,,,,,,,,return,4.44154286385,,,,,,,,,,,,,2015_Oct_20_1314,G,facesParametric,16,59.5670130032,
,,,,,,,,,,,,,,,,,,,,,,,,,,return,12.1341090202,,,,,,,,,,,2015_Oct_20_1314,G,facesParametric,16,59.5670130032,
./stim/MorphM3_09_orig.jpg,0,,,,,0,0,0,0,,,,,,,,,,,,,,,,,,,23.408203125,10.869140625,1,0,0,4.52666401863,,,,,2015_Oct_20_1314,G,facesParametric,16,59.5670130032,
./stim/MorphF6_03_orig.jpg,1,,,,,0,1,1,1,,,,,,,,,,,,,,,,,,,23.408203125,10.869140625,0,0,1,3.85316586494,,,,,2015_Oct_20_1314,G,facesParametric,16,59.5670130032,
./stim/MorphM1_10_orig.jpg,2,,,,,0,2,2,2,,,,,,,,,,,,,,,,,,,23.408203125,10.869140625,1,0,0,1.77285194397,,,,,2015_Oct_20_1314,G,facesParametric,16,59.5670130032,
./stim/MorphM3_07_orig.jpg,3,,,,,0,3,3,3,,,,,,,,,,,,,,,,,,,23.408203125,10.83984375,1,0,0,6.50116705894,,,,,2015_Oct_20_1314,G,facesParametric,16,59.5670130032,
./stim/MorphM8_05_orig.jpg,4,,,,,0,4,4,4,,,,,,,,,,,,,,,,,,,23.408203125,10.83984375,1,0,0,5.52841591835,,,,,2015_Oct_20_1314,G,facesParametric,16,59.5670130032,
./stim/MorphF3_02_orig.jpg,5,,,,,0,5,5,5,,,,,,,,,,,,,,,,,,,23.408203125,10.83984375,0,0,1,2.34503698349,,,,,2015_Oct_20_1314,G,facesParametric,16,59.5670130032,
./stim/MorphM7_06_orig.jpg,6,,,,,0,6,6,6,,,,,,,,,,,,,,,,,,,23.3203125,10.8984375,1,0,0,2.34495091438,,,,,2015_Oct_20_1314,G,facesParametric,16,59.5670130032,
./stim/MorphM10_08_orig.jpg,7,,,,,0,7,7,7,,,,,,,,,,,,,,,,,,,23.3203125,10.8984375,1,0,0,1.70861816406,,,,,2015_Oct_20_1314,G,facesParametric,16,59.5670130032,
./stim/MorphF3_07_orig.jpg,8,,,,,0,8,8,8,,,,,,,,,,,,,,,,,,,23.3203125,10.8984375,1,0,0,2.99861693382,,,,,2015_Oct_20_1314,G,facesParametric,16,59.5670130032,
./stim/MorphM5_10_orig.jpg,9,,,,,0,9,9,9,,,,,,,,,,,,,,,,,,,23.3203125,10.8984375,0,0,1,3.04836797714,,,,,2015_Oct_20_1314,G,facesParametric,16,59.5670130032,
./stim/MorphM8_04_orig.jpg,10,,,,,0,10,10,10,,,,,,,,,,,,,,,,,,,23.291015625,10.8984375,0,0,1,4.18742084503,,,,,2015_Oct_20_1314,G,facesParametric,16,59.5670130032,
./stim/MorphF6_01_orig.jpg,11,,,,,0,11,11,11,,,,,,,,,,,,,,,,,,,23.26171875,10.927734375,1,0,0,1.97679901123,,,,,2015_Oct_20_1314,G,facesParametric,16,59.5670130032,
./stim/MorphM2_09_orig.jpg,12,,,,,0,12,12,12,,,,,,,,,,,,,,,,,,,23.26171875,10.927734375,1,0,0,1.54056286812,,,,,2015_Oct_20_1314,G,facesParametric,16,59.5670130032,
./stim/MorphF8_06_orig.jpg,13,,,,,0,13,13,13,,,,,,,,,,,,,,,,,,,23.26171875,10.927734375,1,0,0,0.985748052597,,,,,2015_Oct_20_1314,G,facesParametric,16,59.5670130032,
./stim/MorphF5_00_orig.jpg,14,,,,,0,14,14,14,,,,,,,,,,,,,,,,,,,23.232421875,10.927734375,0,0,1,3.40115809441,,,,,2015_Oct_20_1314,G,facesParametric,16,59.5670130032,
./stim/MorphM10_06_orig.jpg,15,,,,,0,15,15,15,,,,,,,,,,,,,,,,,,,23.173828125,10.869140625,1,0,0,6.0471830368,,,,,2015_Oct_20_1314,G,facesParametric,16,59.5670130032,
./stim/MorphM4_03_orig.jpg,16,,,,,0,16,16,16,,,,,,,,,,,,,,,,,,,23.173828125,10.869140625,0,0,1,2.52997517586,,,,,2015_Oct_20_1314,G,facesParametric,16,59.5670130032,
./stim/MorphF7_00_orig.jpg,17,,,,,0,17,17,17,,,,,,,,,,,,,,,,,,,23.173828125,10.869140625,0,0,1,3.43471884727,,,,,2015_Oct_20_1314,G,facesParametric,16,59.5670130032,
./stim/MorphF4_10_orig.jpg,18,,,,,0,18,18,18,,,,,,,,,,,,,,,,,,,23.173828125,10.869140625,1,0,0,2.84597301483,,,,,2015_Oct_20_1314,G,facesParametric,16,59.5670130032,
./stim/MorphF3_09_orig.jpg,19,,,,,0,19,19,19,,,,,,,,,,,,,,,,,,,23.173828125,10.869140625,1,0,0,2.47903609276,,,,,2015_Oct_20_1314,G,facesParametric,16,59.5670130032,
./stim/MorphM3_10_orig.jpg,20,,,,,0,20,20,20,,,,,,,,,,,,,,,,,,,23.173828125,10.869140625,0,0,1,7.37282299995,,,,,2015_Oct_20_1314,G,facesParametric,16,59.5670130032,
./stim/MorphF5_09_orig.jpg,21,,,,,0,21,21,21,,,,,,,,,,,,,,,,,,,23.173828125,10.869140625,0,0,1,7.63976716995,,,,,2015_Oct_20_1314,G,facesParametric,16,59.5670130032,
./stim/MorphF4_01_orig.jpg,22,,,,,0,22,22,22,,,,,,,,,,,,,,,,,,,23.173828125,10.869140625,0,0,1,2.34525489807,,,,,2015_Oct_20_1314,G,facesParametric,16,59.5670130032,
./stim/MorphM9_06_orig.jpg,23,,,,,0,23,23,23,,,,,,,,,,,,,,,,,,,23.173828125,10.869140625,0,0,1,2.59625291824,,,,,2015_Oct_20_1314,G,facesParametric,16,59.5670130032,
./stim/MorphF3_00_orig.jpg,24,,,,,0,24,24,24,,,,,,,,,,,,,,,,,,,23.173828125,10.869140625,0,0,1,2.91497898102,,,,,2015_Oct_20_1314,G,facesParametric,16,59.5670130032,
./stim/MorphF10_06_orig.jpg,25,,,,,0,25,25,25,,,,,,,,,,,,,,,,,,,23.173828125,10.869140625,0,0,1,6.26655197144,,,,,2015_Oct_20_1314,G,facesParametric,16,59.5670130032,
./stim/MorphM10_04_orig.jpg,26,,,,,0,26,26,26,,,,,,,,,,,,,,,,,,,23.173828125,10.869140625,1,0,0,3.50166988373,,,,,2015_Oct_20_1314,G,facesParametric,16,59.5670130032,
./stim/MorphM4_08_orig.jpg,27,,,,,0,27,27,27,,,,,,,,,,,,,,,,,,,23.173828125,10.869140625,1,0,0,11.2110879421,,,,,2015_Oct_20_1314,G,facesParametric,16,59.5670130032,
./stim/MorphM2_06_orig.jpg,28,,,,,0,28,28,28,,,,,,,,,,,,,,,,,,,23.173828125,10.869140625,0,0,1,2.2441740036,,,,,2015_Oct_20_1314,G,facesParametric,16,59.5670130032,
./stim/MorphF8_00_orig.jpg,29,,,,,0,29,29,29,,,,,,,,,,,,,,,,,,,23.173828125,10.869140625,0,0,1,1.28869986534,,,,,2015_Oct_20_1314,G,facesParametric,16,59.5670130032,
./stim/MorphF3_05_orig.jpg,30,,,,,0,30,30,30,,,,,,,,,,,,,,,,,,,23.173828125,10.869140625,0,0,1,6.66946196556,,,,,2015_Oct_20_1314,G,facesParametric,16,59.5670130032,
./stim/MorphF1_01_orig.jpg,31,,,,,0,31,31,31,,,,,,,,,,,,,,,,,,,23.173828125,10.869140625,0,0,1,1.99069595337,,,,,2015_Oct_20_1314,G,facesParametric,16,59.5670130032,
./stim/MorphM3_00_orig.jpg,32,,,,,0,32,32,32,,,,,,,,,,,,,,,,,,,23.173828125,10.869140625,0,0,1,1.74207115173,,,,,2015_Oct_20_1314,G,facesParametric,16,59.5670130032,
./stim/MorphM6_04_orig.jpg,33,,,,,0,33,33,33,,,,,,,,,,,,,,,,,,,23.173828125,10.869140625,0,0,1,2.44544696808,,,,,2015_Oct_20_1314,G,facesParametric,16,59.5670130032,
./stim/MorphM8_08_orig.jpg,34,,,,,0,34,34,34,,,,,,,,,,,,,,,,,,,23.173828125,10.869140625,0,0,1,4.44050383568,,,,,2015_Oct_20_1314,G,facesParametric,16,59.5670130032,
./stim/MorphM10_10_orig.jpg,35,,,,,0,35,35,35,,,,,,,,,,,,,,,,,,,23.173828125,10.869140625,1,0,0,1.87573504448,,,,,2015_Oct_20_1314,G,facesParametric,16,59.5670130032,
./stim/MorphF4_06_orig.jpg,36,,,,,0,36,36,36,,,,,,,,,,,,,,,,,,,23.173828125,10.869140625,0,0,1,1.54004502296,,,,,2015_Oct_20_1314,G,facesParametric,16,59.5670130032,
./stim/MorphF3_08_orig.jpg,37,,,,,0,37,37,37,,,,,,,,,,,,,,,,,,,23.173828125,10.869140625,0,0,1,1.10491800308,,,,,2015_Oct_20_1314,G,facesParametric,16,59.5670130032,
./stim/MorphM3_01_orig.jpg,38,,,,,0,38,38,38,,,,,,,,,,,,,,,,,,,23.173828125,10.869140625,0,0,1,10.3892850876,,,,,2015_Oct_20_1314,G,facesParametric,16,59.5670130032,
./stim/MorphM7_09_orig.jpg,39,,,,,0,39,39,39,,,,,,,,,,,,,,,,,,,23.173828125,10.869140625,1,0,0,1.4233891964,,,,,2015_Oct_20_1314,G,facesParametric,16,59.5670130032,
./stim/MorphF4_05_orig.jpg,40,,,,,0,40,40,40,,,,,,,,,,,,,,,,,,,23.173828125,10.869140625,0,0,1,6.5348110199,,,,,2015_Oct_20_1314,G,facesParametric,16,59.5670130032,
./stim/MorphM1_02_orig.jpg,41,,,,,0,41,41,41,,,,,,,,,,,,,,,,,,,23.173828125,10.869140625,0,0,1,2.19418001175,,,,,2015_Oct_20_1314,G,facesParametric,16,59.5670130032,
./stim/MorphM8_03_orig.jpg,42,,,,,0,42,42,42,,,,,,,,,,,,,,,,,,,23.173828125,10.869140625,1,0,0,1.80864191055,,,,,2015_Oct_20_1314,G,facesParametric,16,59.5670130032,
./stim/MorphF1_06_orig.jpg,43,,,,,0,43,43,43,,,,,,,,,,,,,,,,,,,23.173828125,10.869140625,0,0,1,3.26689887047,,,,,2015_Oct_20_1314,G,facesParametric,16,59.5670130032,
./stim/MorphM4_04_orig.jpg,44,,,,,0,44,44,44,,,,,,,,,,,,,,,,,,,23.173828125,10.869140625,1,0,0,2.04303407669,,,,,2015_Oct_20_1314,G,facesParametric,16,59.5670130032,
./stim/MorphM3_08_orig.jpg,45,,,,,0,45,45,45,,,,,,,,,,,,,,,,,,,23.173828125,10.869140625,0,0,1,4.40656495094,,,,,2015_Oct_20_1314,G,facesParametric,16,59.5670130032,
./stim/MorphM1_07_orig.jpg,46,,,,,0,46,46,46,,,,,,,,,,,,,,,,,,,23.173828125,10.869140625,1,0,0,1.89246177673,,,,,2015_Oct_20_1314,G,facesParametric,16,59.5670130032,
./stim/MorphM8_00_orig.jpg,47,,,,,0,47,47,47,,,,,,,,,,,,,,,,,,,23.173828125,10.869140625,0,0,1,9.53436779976,,,,,2015_Oct_20_1314,G,facesParametric,16,59.5670130032,
./stim/MorphM6_10_orig.jpg,48,,,,,0,48,48,48,,,,,,,,,,,,,,,,,,,23.173828125,10.869140625,1,0,0,1.30583500862,,,,,2015_Oct_20_1314,G,facesParametric,16,59.5670130032,
./stim/MorphF10_04_orig.jpg,49,,,,,0,49,49,49,,,,,,,,,,,,,,,,,,,23.173828125,10.869140625,1,0,0,1.13863801956,,,,,2015_Oct_20_1314,G,facesParametric,16,59.5670130032,
./stim/MorphF8_03_orig.jpg,50,,,,,0,50,50,50,,,,,,,,,,,,,,,,,,,23.173828125,10.869140625,1,0,0,4.85878801346,,,,,2015_Oct_20_1314,G,facesParametric,16,59.5670130032,
./stim/MorphM8_02_orig.jpg,51,,,,,0,51,51,51,,,,,,,,,,,,,,,,,,,23.173828125,10.869140625,1,0,0,2.46255207062,,,,,2015_Oct_20_1314,G,facesParametric,16,59.5670130032,
./stim/MorphM1_00_orig.jpg,52,,,,,0,52,52,52,,,,,,,,,,,,,,,,,,,23.173828125,10.869140625,1,0,0,1.67486906052,,,,,2015_Oct_20_1314,G,facesParametric,16,59.5670130032,
./stim/MorphF6_04_orig.jpg,53,,,,,0,53,53,53,,,,,,,,,,,,,,,,,,,23.173828125,10.869140625,0,0,1,1.17173504829,,,,,2015_Oct_20_1314,G,facesParametric,16,59.5670130032,
./stim/MorphF10_03_orig.jpg,54,,,,,0,54,54,54,,,,,,,,,,,,,,,,,,,23.14453125,10.869140625,1,0,0,3.90260791779,,,,,2015_Oct_20_1314,G,facesParametric,16,59.5670130032,
./stim/MorphM8_01_orig.jpg,55,,,,,0,55,55,55,,,,,,,,,,,,,,,,,,,23.14453125,10.869140625,0,0,1,7.95937800407,,,,,2015_Oct_20_1314,G,facesParametric,16,59.5670130032,
./stim/MorphF3_01_orig.jpg,56,,,,,0,56,56,56,,,,,,,,,,,,,,,,,,,23.14453125,10.869140625,0,0,1,1.52406311035,,,,,2015_Oct_20_1314,G,facesParametric,16,59.5670130032,
./stim/MorphF2_07_orig.jpg,57,,,,,0,57,57,57,,,,,,,,,,,,,,,,,,,23.14453125,10.869140625,1,0,0,1.57415699959,,,,,2015_Oct_20_1314,G,facesParametric,16,59.5670130032,
./stim/MorphM8_09_orig.jpg,58,,,,,0,58,58,58,,,,,,,,,,,,,,,,,,,23.14453125,10.869140625,0,0,1,1.35727000237,,,,,2015_Oct_20_1314,G,facesParametric,16,59.5670130032,
./stim/MorphF9_08_orig.jpg,59,,,,,0,59,59,59,,,,,,,,,,,,,,,,,,,23.14453125,10.869140625,1,0,0,1.42238497734,,,,,2015_Oct_20_1314,G,facesParametric,16,59.5670130032,
./stim/MorphM2_04_orig.jpg,60,,,,,0,60,60,60,,,,,,,,,,,,,,,,,,,23.14453125,10.869140625,0,0,1,8.09153699875,,,,,2015_Oct_20_1314,G,facesParametric,16,59.5670130032,
./stim/MorphF9_06_orig.jpg,61,,,,,0,61,61,61,,,,,,,,,,,,,,,,,,,23.0859375,10.83984375,0,0,1,2.49545478821,,,,,2015_Oct_20_1314,G,facesParametric,16,59.5670130032,
./stim/MorphF8_04_orig.jpg,62,,,,,0,62,62,62,,,,,,,,,,,,,,,,,,,23.0859375,10.83984375,0,0,1,4.84041309357,,,,,2015_Oct_20_1314,G,facesParametric,16,59.5670130032,
./stim/MorphF3_10_orig.jpg,63,,,,,0,63,63,63,,,,,,,,,,,,,,,,,,,23.0859375,10.83984375,1,0,0,1.40486907959,,,,,2015_Oct_20_1314,G,facesParametric,16,59.5670130032,
./stim/MorphF7_03_orig.jpg,64,,,,,0,64,64,64,,,,,,,,,,,,,,,,,,,23.0859375,10.83984375,0,0,1,9.55091500282,,,,,2015_Oct_20_1314,G,facesParametric,16,59.5670130032,
./stim/MorphF3_06_orig.jpg,65,,,,,0,65,65,65,,,,,,,,,,,,,,,,,,,23.0859375,10.83984375,0,0,1,3.76825499535,,,,,2015_Oct_20_1314,G,facesParametric,16,59.5670130032,
./stim/MorphM5_06_orig.jpg,66,,,,,0,66,66,66,,,,,,,,,,,,,,,,,,,23.0859375,10.83984375,1,0,0,1.72262191772,,,,,2015_Oct_20_1314,G,facesParametric,16,59.5670130032,
./stim/MorphF10_02_orig.jpg,67,,,,,0,67,67,67,,,,,,,,,,,,,,,,,,,23.0859375,10.83984375,0,0,1,1.2052628994,,,,,2015_Oct_20_1314,G,facesParametric,16,59.5670130032,
./stim/MorphF2_01_orig.jpg,68,,,,,0,68,68,68,,,,,,,,,,,,,,,,,,,23.0859375,10.83984375,0,0,1,5.42694306374,,,,,2015_Oct_20_1314,G,facesParametric,16,59.5670130032,
./stim/MorphM6_03_orig.jpg,69,,,,,0,69,69,69,,,,,,,,,,,,,,,,,,,23.0859375,10.83984375,0,0,1,3.97064304352,,,,,2015_Oct_20_1314,G,facesParametric,16,59.5670130032,
./stim/MorphM2_00_orig.jpg,70,,,,,0,70,70,70,,,,,,,,,,,,,,,,,,,23.0859375,10.83984375,0,0,1,6.97078299522,,,,,2015_Oct_20_1314,G,facesParametric,16,59.5670130032,
./stim/MorphM9_10_orig.jpg,71,,,,,0,71,71,71,,,,,,,,,,,,,,,,,,,23.0859375,10.83984375,1,0,0,1.69135403633,,,,,2015_Oct_20_1314,G,facesParametric,16,59.5670130032,
./stim/MorphM3_03_orig.jpg,72,,,,,0,72,72,72,,,,,,,,,,,,,,,,,,,23.0859375,10.83984375,1,0,0,4.3727991581,,,,,2015_Oct_20_1314,G,facesParametric,16,59.5670130032,
./stim/MorphF10_05_orig.jpg,73,,,,,0,73,73,73,,,,,,,,,,,,,,,,,,,23.0859375,10.83984375,0,0,1,1.72508788109,,,,,2015_Oct_20_1314,G,facesParametric,16,59.5670130032,
./stim/MorphF2_00_orig.jpg,74,,,,,0,74,74,74,,,,,,,,,,,,,,,,,,,23.0859375,10.83984375,0,0,1,4.45471811295,,,,,2015_Oct_20_1314,G,facesParametric,16,59.5670130032,
./stim/MorphF4_08_orig.jpg,75,,,,,0,75,75,75,,,,,,,,,,,,,,,,,,,23.0859375,10.869140625,1,0,0,1.60758304596,,,,,2015_Oct_20_1314,G,facesParametric,16,59.5670130032,
./stim/MorphM10_03_orig.jpg,76,,,,,0,76,76,76,,,,,,,,,,,,,,,,,,,23.0859375,10.869140625,1,0,0,6.51869297028,,,,,2015_Oct_20_1314,G,facesParametric,16,59.5670130032,
./stim/MorphM2_02_orig.jpg,77,,,,,0,77,77,77,,,,,,,,,,,,,,,,,,,23.0859375,10.869140625,0,0,1,2.059664011,,,,,2015_Oct_20_1314,G,facesParametric,16,59.5670130032,
./stim/MorphM1_08_orig.jpg,78,,,,,0,78,78,78,,,,,,,,,,,,,,,,,,,23.02734375,10.869140625,1,0,0,1.0869550705,,,,,2015_Oct_20_1314,G,facesParametric,16,59.5670130032,
./stim/MorphF6_05_orig.jpg,79,,,,,0,79,79,79,,,,,,,,,,,,,,,,,,,23.02734375,10.869140625,0,0,1,8.37867808342,,,,,2015_Oct_20_1314,G,facesParametric,16,59.5670130032,
./stim/MorphF9_03_orig.jpg,80,,,,,0,80,80,80,,,,,,,,,,,,,,,,,,,23.02734375,10.869140625,1,0,0,2.31135702133,,,,,2015_Oct_20_1314,G,facesParametric,16,59.5670130032,
./stim/MorphM7_01_orig.jpg,81,,,,,0,81,81,81,,,,,,,,,,,,,,,,,,,23.02734375,10.869140625,1,0,0,1.97641897202,,,,,2015_Oct_20_1314,G,facesParametric,16,59.5670130032,
./stim/MorphM2_10_orig.jpg,82,,,,,0,82,82,82,,,,,,,,,,,,,,,,,,,23.02734375,10.869140625,1,0,0,2.04329800606,,,,,2015_Oct_20_1314,G,facesParametric,16,59.5670130032,
./stim/MorphF1_03_orig.jpg,83,,,,,0,83,83,83,,,,,,,,,,,,,,,,,,,23.02734375,10.869140625,0,0,1,2.00715494156,,,,,2015_Oct_20_1314,G,facesParametric,16,59.5670130032,
./stim/MorphM9_07_orig.jpg,84,,,,,0,84,84,84,,,,,,,,,,,,,,,,,,,23.02734375,10.869140625,1,0,0,5.26130390167,,,,,2015_Oct_20_1314,G,facesParametric,16,59.5670130032,
./stim/MorphM7_00_orig.jpg,85,,,,,0,85,85,85,,,,,,,,,,,,,,,,,,,23.02734375,10.869140625,1,0,0,1.80896997452,,,,,2015_Oct_20_1314,G,facesParametric,16,59.5670130032,
./stim/MorphM4_07_orig.jpg,86,,,,,0,86,86,86,,,,,,,,,,,,,,,,,,,23.02734375,10.869140625,1,0,0,1.85751795769,,,,,2015_Oct_20_1314,G,facesParametric,16,59.5670130032,
./stim/MorphM8_10_orig.jpg,87,,,,,0,87,87,87,,,,,,,,,,,,,,,,,,,23.02734375,10.869140625,1,0,0,1.55625700951,,,,,2015_Oct_20_1314,G,facesParametric,16,59.5670130032,
./stim/MorphM9_01_orig.jpg,88,,,,,0,88,88,88,,,,,,,,,,,,,,,,,,,23.02734375,10.869140625,1,0,0,3.90321993828,,,,,2015_Oct_20_1314,G,facesParametric,16,59.5670130032,
./stim/MorphM3_06_orig.jpg,89,,,,,0,89,89,89,,,,,,,,,,,,,,,,,,,23.02734375,10.869140625,1,0,0,2.24224305153,,,,,2015_Oct_20_1314,G,facesParametric,16,59.5670130032,
./stim/MorphF10_10_orig.jpg,90,,,,,0,90,90,90,,,,,,,,,,,,,,,,,,,23.02734375,10.869140625,1,0,0,1.92592000961,,,,,2015_Oct_20_1314,G,facesParametric,16,59.5670130032,
./stim/MorphF2_10_orig.jpg,91,,,,,0,91,91,91,,,,,,,,,,,,,,,,,,,23.02734375,10.869140625,1,0,0,2.36211204529,,,,,2015_Oct_20_1314,G,facesParametric,16,59.5670130032,
./stim/MorphM9_00_orig.jpg,92,,,,,0,92,92,92,,,,,,,,,,,,,,,,,,,23.02734375,10.869140625,1,0,0,2.82899212837,,,,,2015_Oct_20_1314,G,facesParametric,16,59.5670130032,
./stim/MorphF7_05_orig.jpg,93,,,,,0,93,93,93,,,,,,,,,,,,,,,,,,,23.02734375,10.869140625,1,0,0,3.08288311958,,,,,2015_Oct_20_1314,G,facesParametric,16,59.5670130032,
./stim/MorphF8_07_orig.jpg,94,,,,,0,94,94,94,,,,,,,,,,,,,,,,,,,23.02734375,10.869140625,1,0,0,1.44000601768,,,,,2015_Oct_20_1314,G,facesParametric,16,59.5670130032,
./stim/MorphM2_07_orig.jpg,95,,,,,0,95,95,95,,,,,,,,,,,,,,,,,,,23.02734375,10.869140625,1,0,0,4.40694689751,,,,,2015_Oct_20_1314,G,facesParametric,16,59.5670130032,
./stim/MorphF7_08_orig.jpg,96,,,,,0,96,96,96,,,,,,,,,,,,,,,,,,,23.02734375,10.869140625,1,0,0,1.95916318893,,,,,2015_Oct_20_1314,G,facesParametric,16,59.5670130032,
./stim/MorphF10_09_orig.jpg,97,,,,,0,97,97,97,,,,,,,,,,,,,,,,,,,22.998046875,10.8984375,1,0,0,1.02165794373,,,,,2015_Oct_20_1314,G,facesParametric,16,59.5670130032,
./stim/MorphF7_06_orig.jpg,98,,,,,0,98,98,98,,,,,,,,,,,,,,,,,,,22.998046875,10.8984375,0,0,1,4.85816311836,,,,,2015_Oct_20_1314,G,facesParametric,16,59.5670130032,
./stim/MorphM4_09_orig.jpg,99,,,,,0,99,99,99,,,,,,,,,,,,,,,,,,,22.998046875,10.8984375,0,0,1,9.01593112946,,,,,2015_Oct_20_1314,G,facesParametric,16,59.5670130032,
./stim/MorphF5_02_orig.jpg,100,,,,,0,100,100,100,,,,,,,,,,,,,,,,,,,22.998046875,10.8984375,0,0,1,3.13237214088,,,,,2015_Oct_20_1314,G,facesParametric,16,59.5670130032,
./stim/MorphM7_03_orig.jpg,101,,,,,0,101,101,101,,,,,,,,,,,,,,,,,,,22.998046875,10.8984375,1,0,0,6.78520107269,,,,,2015_Oct_20_1314,G,facesParametric,16,59.5670130032,
./stim/MorphF4_04_orig.jpg,102,,,,,0,102,102,102,,,,,,,,,,,,,,,,,,,22.998046875,10.8984375,1,0,0,1.25411105156,,,,,2015_Oct_20_1314,G,facesParametric,16,59.5670130032,
./stim/MorphF8_10_orig.jpg,103,,,,,0,103,103,103,,,,,,,,,,,,,,,,,,,22.998046875,10.8984375,1,0,0,1.22225999832,,,,,2015_Oct_20_1314,G,facesParametric,16,59.5670130032,
./stim/MorphF10_08_orig.jpg,104,,,,,0,104,104,104,,,,,,,,,,,,,,,,,,,22.998046875,10.8984375,1,0,0,2.79614090919,,,,,2015_Oct_20_1314,G,facesParametric,16,59.5670130032,
./stim/MorphM1_04_orig.jpg,105,,,,,0,105,105,105,,,,,,,,,,,,,,,,,,,23.02734375,10.869140625,1,0,0,6.38408493996,,,,,2015_Oct_20_1314,G,facesParametric,16,59.5670130032,
./stim/MorphM7_07_orig.jpg,106,,,,,0,106,106,106,,,,,,,,,,,,,,,,,,,23.02734375,10.869140625,1,0,0,1.11981010437,,,,,2015_Oct_20_1314,G,facesParametric,16,59.5670130032,
./stim/MorphM5_08_orig.jpg,107,,,,,0,107,107,107,,,,,,,,,,,,,,,,,,,23.02734375,10.869140625,1,0,0,1.13713622093,,,,,2015_Oct_20_1314,G,facesParametric,16,59.5670130032,
./stim/MorphF9_01_orig.jpg,108,,,,,0,108,108,108,,,,,,,,,,,,,,,,,,,23.02734375,10.869140625,0,0,1,6.3340690136,,,,,2015_Oct_20_1314,G,facesParametric,16,59.5670130032,
./stim/MorphM1_05_orig.jpg,109,,,,,0,109,109,109,,,,,,,,,,,,,,,,,,,23.02734375,10.869140625,1,0,0,2.2118999958,,,,,2015_Oct_20_1314,G,facesParametric,16,59.5670130032,
./stim/MorphF7_10_orig.jpg,110,,,,,0,110,110,110,,,,,,,,,,,,,,,,,,,23.02734375,10.869140625,1,0,0,9.46695613861,,,,,2015_Oct_20_1314,G,facesParametric,16,59.5670130032,
./stim/MorphF5_05_orig.jpg,111,,,,,0,111,111,111,,,,,,,,,,,,,,,,,,,23.02734375,10.869140625,0,0,1,1.03811597824,,,,,2015_Oct_20_1314,G,facesParametric,16,59.5670130032,
./stim/MorphF3_03_orig.jpg,112,,,,,0,112,112,112,,,,,,,,,,,,,,,,,,,23.02734375,10.869140625,1,0,0,1.37322711945,,,,,2015_Oct_20_1314,G,facesParametric,16,59.5670130032,
./stim/MorphF1_08_orig.jpg,113,,,,,0,113,113,113,,,,,,,,,,,,,,,,,,,22.998046875,10.8984375,1,0,0,1.50735092163,,,,,2015_Oct_20_1314,G,facesParametric,16,59.5670130032,
./stim/MorphM7_05_orig.jpg,114,,,,,0,114,114,114,,,,,,,,,,,,,,,,,,,22.998046875,10.8984375,1,0,0,0.836469173431,,,,,2015_Oct_20_1314,G,facesParametric,16,59.5670130032,
./stim/MorphF1_04_orig.jpg,115,,,,,0,115,115,115,,,,,,,,,,,,,,,,,,,22.998046875,10.8984375,1,0,0,5.78030490875,,,,,2015_Oct_20_1314,G,facesParametric,16,59.5670130032,
./stim/MorphM10_02_orig.jpg,116,,,,,0,116,116,116,,,,,,,,,,,,,,,,,,,22.998046875,10.8984375,0,0,1,2.47952604294,,,,,2015_Oct_20_1314,G,facesParametric,16,59.5670130032,
./stim/MorphF9_07_orig.jpg,117,,,,,0,117,117,117,,,,,,,,,,,,,,,,,,,22.998046875,10.8984375,1,0,0,0.95391201973,,,,,2015_Oct_20_1314,G,facesParametric,16,59.5670130032,
./stim/MorphM5_03_orig.jpg,118,,,,,0,118,118,118,,,,,,,,,,,,,,,,,,,22.998046875,10.8984375,1,0,0,1.3225440979,,,,,2015_Oct_20_1314,G,facesParametric,16,59.5670130032,
./stim/MorphM10_07_orig.jpg,119,,,,,0,119,119,119,,,,,,,,,,,,,,,,,,,22.998046875,10.8984375,1,0,0,1.18853092194,,,,,2015_Oct_20_1314,G,facesParametric,16,59.5670130032,
./stim/MorphM5_09_orig.jpg,120,,,,,0,120,120,120,,,,,,,,,,,,,,,,,,,22.998046875,10.8984375,1,0,0,1.17134594917,,,,,2015_Oct_20_1314,G,facesParametric,16,59.5670130032,
./stim/MorphF4_03_orig.jpg,121,,,,,0,121,121,121,,,,,,,,,,,,,,,,,,,22.998046875,10.8984375,1,0,0,6.34909200668,,,,,2015_Oct_20_1314,G,facesParametric,16,59.5670130032,
./stim/MorphM6_01_orig.jpg,122,,,,,0,122,122,122,,,,,,,,,,,,,,,,,,,22.998046875,10.8984375,0,0,1,1.30373215675,,,,,2015_Oct_20_1314,G,facesParametric,16,59.5670130032,
./stim/MorphF10_07_orig.jpg,123,,,,,0,123,123,123,,,,,,,,,,,,,,,,,,,22.998046875,10.8984375,1,0,0,0.836435079575,,,,,2015_Oct_20_1314,G,facesParametric,16,59.5670130032,
./stim/MorphF5_01_orig.jpg,124,,,,,0,124,124,124,,,,,,,,,,,,,,,,,,,22.998046875,10.8984375,0,0,1,0.836533069611,,,,,2015_Oct_20_1314,G,facesParametric,16,59.5670130032,
./stim/MorphM4_00_orig.jpg,125,,,,,0,125,125,125,,,,,,,,,,,,,,,,,,,22.998046875,10.8984375,1,0,0,0.937429904938,,,,,2015_Oct_20_1314,G,facesParametric,16,59.5670130032,
./stim/MorphF4_02_orig.jpg,126,,,,,0,126,126,126,,,,,,,,,,,,,,,,,,,22.998046875,10.8984375,0,0,1,11.2946100235,,,,,2015_Oct_20_1314,G,facesParametric,16,59.5670130032,
./stim/MorphF9_02_orig.jpg,127,,,,,0,127,127,127,,,,,,,,,,,,,,,,,,,22.998046875,10.8984375,1,0,0,3.34985995293,,,,,2015_Oct_20_1314,G,facesParametric,16,59.5670130032,
./stim/MorphF8_05_orig.jpg,128,,,,,0,128,128,128,,,,,,,,,,,,,,,,,,,22.998046875,10.8984375,1,0,0,1.12153816223,,,,,2015_Oct_20_1314,G,facesParametric,16,59.5670130032,
./stim/MorphF2_03_orig.jpg,129,,,,,0,129,129,129,,,,,,,,,,,,,,,,,,,22.998046875,10.8984375,1,0,0,0.769520998001,,,,,2015_Oct_20_1314,G,facesParametric,16,59.5670130032,
./stim/MorphF1_02_orig.jpg,130,,,,,0,130,130,130,,,,,,,,,,,,,,,,,,,22.998046875,10.8984375,0,0,1,1.55549192429,,,,,2015_Oct_20_1314,G,facesParametric,16,59.5670130032,
./stim/MorphM10_01_orig.jpg,131,,,,,0,131,131,131,,,,,,,,,,,,,,,,,,,22.998046875,10.8984375,1,0,0,0.853493928909,,,,,2015_Oct_20_1314,G,facesParametric,16,59.5670130032,
./stim/MorphM5_07_orig.jpg,132,,,,,0,132,132,132,,,,,,,,,,,,,,,,,,,22.998046875,10.8984375,1,0,0,1.15620589256,,,,,2015_Oct_20_1314,G,facesParametric,16,59.5670130032,
./stim/MorphM6_07_orig.jpg,133,,,,,0,133,133,133,,,,,,,,,,,,,,,,,,,22.998046875,10.8984375,1,0,0,1.99243021011,,,,,2015_Oct_20_1314,G,facesParametric,16,59.5670130032,
./stim/MorphM4_05_orig.jpg,134,,,,,0,134,134,134,,,,,,,,,,,,,,,,,,,22.998046875,10.8984375,1,0,0,1.95747303963,,,,,2015_Oct_20_1314,G,facesParametric,16,59.5670130032,
./stim/MorphM5_01_orig.jpg,135,,,,,0,135,135,135,,,,,,,,,,,,,,,,,,,22.998046875,10.8984375,1,0,0,3.58503913879,,,,,2015_Oct_20_1314,G,facesParametric,16,59.5670130032,
./stim/MorphM9_08_orig.jpg,136,,,,,0,136,136,136,,,,,,,,,,,,,,,,,,,22.998046875,10.8984375,1,0,0,1.07049894333,,,,,2015_Oct_20_1314,G,facesParametric,16,59.5670130032,
./stim/MorphM3_05_orig.jpg,137,,,,,0,137,137,137,,,,,,,,,,,,,,,,,,,22.998046875,10.8984375,1,0,0,1.72356700897,,,,,2015_Oct_20_1314,G,facesParametric,16,59.5670130032,
./stim/MorphF6_09_orig.jpg,138,,,,,0,138,138,138,,,,,,,,,,,,,,,,,,,22.998046875,10.8984375,1,0,0,6.43463397026,,,,,2015_Oct_20_1314,G,facesParametric,16,59.5670130032,
./stim/MorphF9_04_orig.jpg,139,,,,,0,139,139,139,,,,,,,,,,,,,,,,,,,22.998046875,10.8984375,0,0,1,1.7411839962,,,,,2015_Oct_20_1314,G,facesParametric,16,59.5670130032,
./stim/MorphF6_06_orig.jpg,140,,,,,0,140,140,140,,,,,,,,,,,,,,,,,,,22.998046875,10.8984375,1,0,0,0.970804214478,,,,,2015_Oct_20_1314,G,facesParametric,16,59.5670130032,
./stim/MorphF7_02_orig.jpg,141,,,,,0,141,141,141,,,,,,,,,,,,,,,,,,,22.998046875,10.8984375,0,0,1,6.9035179615,,,,,2015_Oct_20_1314,G,facesParametric,16,59.5670130032,
./stim/MorphF2_02_orig.jpg,142,,,,,0,142,142,142,,,,,,,,,,,,,,,,,,,22.998046875,10.8984375,1,0,0,2.56331515312,,,,,2015_Oct_20_1314,G,facesParametric,16,59.5670130032,
./stim/MorphF8_09_orig.jpg,143,,,,,0,143,143,143,,,,,,,,,,,,,,,,,,,22.998046875,10.8984375,1,0,0,0.786181926727,,,,,2015_Oct_20_1314,G,facesParametric,16,59.5670130032,
./stim/MorphF3_04_orig.jpg,144,,,,,0,144,144,144,,,,,,,,,,,,,,,,,,,22.998046875,10.8984375,0,0,1,2.91544795036,,,,,2015_Oct_20_1314,G,facesParametric,16,59.5670130032,
./stim/MorphF9_05_orig.jpg,145,,,,,0,145,145,145,,,,,,,,,,,,,,,,,,,22.998046875,10.8984375,0,0,1,1.33901405334,,,,,2015_Oct_20_1314,G,facesParametric,16,59.5670130032,
./stim/MorphF1_05_orig.jpg,146,,,,,0,146,146,146,,,,,,,,,,,,,,,,,,,22.998046875,10.8984375,0,0,1,1.60732412338,,,,,2015_Oct_20_1314,G,facesParametric,16,59.5670130032,
./stim/MorphM4_06_orig.jpg,147,,,,,0,147,147,147,,,,,,,,,,,,,,,,,,,22.998046875,10.8984375,1,0,0,1.18716883659,,,,,2015_Oct_20_1314,G,facesParametric,16,59.5670130032,
./stim/MorphM6_02_orig.jpg,148,,,,,0,148,148,148,,,,,,,,,,,,,,,,,,,22.998046875,10.8984375,1,0,0,6.78739905357,,,,,2015_Oct_20_1314,G,facesParametric,16,59.5670130032,
./stim/MorphF2_04_orig.jpg,149,,,,,0,149,149,149,,,,,,,,,,,,,,,,,,,22.998046875,10.8984375,1,0,0,1.00341010094,,,,,2015_Oct_20_1314,G,facesParametric,16,59.5670130032,
./stim/MorphM6_00_orig.jpg,150,,,,,0,150,150,150,,,,,,,,,,,,,,,,,,,22.998046875,10.8984375,1,0,0,1.69094395638,,,,,2015_Oct_20_1314,G,facesParametric,16,59.5670130032,
./stim/MorphF6_08_orig.jpg,151,,,,,0,151,151,151,,,,,,,,,,,,,,,,,,,22.998046875,10.8984375,1,0,0,0.935329914093,,,,,2015_Oct_20_1314,G,facesParametric,16,59.5670130032,
./stim/MorphF7_04_orig.jpg,152,,,,,0,152,152,152,,,,,,,,,,,,,,,,,,,22.998046875,10.8984375,1,0,0,1.10519099236,,,,,2015_Oct_20_1314,G,facesParametric,16,59.5670130032,
./stim/MorphF1_00_orig.jpg,153,,,,,0,153,153,153,,,,,,,,,,,,,,,,,,,22.998046875,10.8984375,0,0,1,5.04353404045,,,,,2015_Oct_20_1314,G,facesParametric,16,59.5670130032,
./stim/MorphF5_10_orig.jpg,154,,,,,0,154,154,154,,,,,,,,,,,,,,,,,,,22.998046875,10.8984375,1,0,0,3.21682882309,,,,,2015_Oct_20_1314,G,facesParametric,16,59.5670130032,
./stim/MorphM7_08_orig.jpg,155,,,,,0,155,155,155,,,,,,,,,,,,,,,,,,,22.998046875,10.8984375,1,0,0,0.835797071457,,,,,2015_Oct_20_1314,G,facesParametric,16,59.5670130032,
./stim/MorphM6_09_orig.jpg,156,,,,,0,156,156,156,,,,,,,,,,,,,,,,,,,22.998046875,10.8984375,1,0,0,1.86023807526,,,,,2015_Oct_20_1314,G,facesParametric,16,59.5670130032,
./stim/MorphM4_10_orig.jpg,157,,,,,0,157,157,157,,,,,,,,,,,,,,,,,,,22.998046875,10.8984375,1,0,0,0.584448099136,,,,,2015_Oct_20_1314,G,facesParametric,16,59.5670130032,
./stim/MorphF4_09_orig.jpg,158,,,,,0,158,158,158,,,,,,,,,,,,,,,,,,,22.998046875,10.8984375,1,0,0,1.32087802887,,,,,2015_Oct_20_1314,G,facesParametric,16,59.5670130032,
./stim/MorphM1_09_orig.jpg,159,,,,,0,159,159,159,,,,,,,,,,,,,,,,,,,22.998046875,10.8984375,1,0,0,0.700576782227,,,,,2015_Oct_20_1314,G,facesParametric,16,59.5670130032,
./stim/MorphF7_01_orig.jpg,160,,,,,0,160,160,160,,,,,,,,,,,,,,,,,,,22.998046875,10.8984375,1,0,0,3.13106799126,,,,,2015_Oct_20_1314,G,facesParametric,16,59.5670130032,
./stim/MorphF6_00_orig.jpg,161,,,,,0,161,161,161,,,,,,,,,,,,,,,,,,,22.998046875,10.8984375,0,0,1,1.67455792427,,,,,2015_Oct_20_1314,G,facesParametric,16,59.5670130032,
./stim/MorphM3_02_orig.jpg,162,,,,,0,162,162,162,,,,,,,,,,,,,,,,,,,22.998046875,10.8984375,1,0,0,1.28922605515,,,,,2015_Oct_20_1314,G,facesParametric,16,59.5670130032,
./stim/MorphF1_07_orig.jpg,163,,,,,0,163,163,163,,,,,,,,,,,,,,,,,,,22.998046875,10.8984375,0,0,1,2.44540596008,,,,,2015_Oct_20_1314,G,facesParametric,16,59.5670130032,
./stim/MorphM8_06_orig.jpg,164,,,,,0,164,164,164,,,,,,,,,,,,,,,,,,,22.998046875,10.8984375,1,0,0,1.322275877,,,,,2015_Oct_20_1314,G,facesParametric,16,59.5670130032,
./stim/MorphF5_04_orig.jpg,165,,,,,0,165,165,165,,,,,,,,,,,,,,,,,,,22.998046875,10.8984375,0,0,1,5.41098093987,,,,,2015_Oct_20_1314,G,facesParametric,16,59.5670130032,
./stim/MorphM9_03_orig.jpg,166,,,,,0,166,166,166,,,,,,,,,,,,,,,,,,,22.998046875,10.8984375,0,0,1,2.52959418297,,,,,2015_Oct_20_1314,G,facesParametric,16,59.5670130032,
./stim/MorphF7_07_orig.jpg,167,,,,,0,167,167,167,,,,,,,,,,,,,,,,,,,22.998046875,10.8984375,1,0,0,0.851830005646,,,,,2015_Oct_20_1314,G,facesParametric,16,59.5670130032,
./stim/MorphF8_01_orig.jpg,168,,,,,0,168,168,168,,,,,,,,,,,,,,,,,,,22.998046875,10.8984375,1,0,0,5.46253585815,,,,,2015_Oct_20_1314,G,facesParametric,16,59.5670130032,
./stim/MorphF10_01_orig.jpg,169,,,,,0,169,169,169,,,,,,,,,,,,,,,,,,,22.998046875,10.8984375,1,0,0,1.40664601326,,,,,2015_Oct_20_1314,G,facesParametric,16,59.5670130032,
./stim/MorphM7_04_orig.jpg,170,,,,,0,170,170,170,,,,,,,,,,,,,,,,,,,22.998046875,10.8984375,1,0,0,0.652490139008,,,,,2015_Oct_20_1314,G,facesParametric,16,59.5670130032,
./stim/MorphM2_08_orig.jpg,171,,,,,0,171,171,171,,,,,,,,,,,,,,,,,,,22.998046875,10.8984375,1,0,0,0.634986877441,,,,,2015_Oct_20_1314,G,facesParametric,16,59.5670130032,
./stim/MorphF9_00_orig.jpg,172,,,,,0,172,172,172,,,,,,,,,,,,,,,,,,,22.998046875,10.8984375,1,0,0,0.767368078232,,,,,2015_Oct_20_1314,G,facesParametric,16,59.5670130032,
./stim/MorphM5_04_orig.jpg,173,,,,,0,173,173,173,,,,,,,,,,,,,,,,,,,22.998046875,10.8984375,1,0,0,1.23824691772,,,,,2015_Oct_20_1314,G,facesParametric,16,59.5670130032,
./stim/MorphF5_03_orig.jpg,174,,,,,0,174,174,174,,,,,,,,,,,,,,,,,,,22.998046875,10.869140625,0,0,1,1.91068792343,,,,,2015_Oct_20_1314,G,facesParametric,16,59.5670130032,
./stim/MorphF2_06_orig.jpg,175,,,,,0,175,175,175,,,,,,,,,,,,,,,,,,,22.998046875,10.869140625,1,0,0,0.886381864548,,,,,2015_Oct_20_1314,G,facesParametric,16,59.5670130032,
./stim/MorphM4_01_orig.jpg,176,,,,,0,176,176,176,,,,,,,,,,,,,,,,,,,22.998046875,10.869140625,1,0,0,1.1724550724,,,,,2015_Oct_20_1314,G,facesParametric,16,59.5670130032,
./stim/MorphM1_01_orig.jpg,177,,,,,0,177,177,177,,,,,,,,,,,,,,,,,,,22.998046875,10.869140625,1,0,0,0.835029125214,,,,,2015_Oct_20_1314,G,facesParametric,16,59.5670130032,
./stim/MorphF6_02_orig.jpg,178,,,,,0,178,178,178,,,,,,,,,,,,,,,,,,,22.998046875,10.869140625,1,0,0,7.28911685944,,,,,2015_Oct_20_1314,G,facesParametric,16,59.5670130032,
./stim/MorphM1_03_orig.jpg,179,,,,,0,179,179,179,,,,,,,,,,,,,,,,,,,22.998046875,10.869140625,1,0,0,2.69521594048,,,,,2015_Oct_20_1314,G,facesParametric,16,59.5670130032,
./stim/MorphF8_02_orig.jpg,180,,,,,0,180,180,180,,,,,,,,,,,,,,,,,,,22.998046875,10.869140625,1,0,0,0.937255859375,,,,,2015_Oct_20_1314,G,facesParametric,16,59.5670130032,
./stim/MorphM6_05_orig.jpg,181,,,,,0,181,181,181,,,,,,,,,,,,,,,,,,,22.998046875,10.83984375,1,0,0,0.702693939209,,,,,2015_Oct_20_1314,G,facesParametric,16,59.5670130032,
./stim/MorphM10_05_orig.jpg,182,,,,,0,182,182,182,,,,,,,,,,,,,,,,,,,22.998046875,10.83984375,1,0,0,3.63613200188,,,,,2015_Oct_20_1314,G,facesParametric,16,59.5670130032,
./stim/MorphM1_06_orig.jpg,183,,,,,0,183,183,183,,,,,,,,,,,,,,,,,,,22.998046875,10.83984375,1,0,0,1.89213705063,,,,,2015_Oct_20_1314,G,facesParametric,16,59.5670130032,
./stim/MorphF2_08_orig.jpg,184,,,,,0,184,184,184,,,,,,,,,,,,,,,,,,,22.998046875,10.83984375,1,0,0,0.852380037308,,,,,2015_Oct_20_1314,G,facesParametric,16,59.5670130032,
./stim/MorphM9_02_orig.jpg,185,,,,,0,185,185,185,,,,,,,,,,,,,,,,,,,22.998046875,10.83984375,1,0,0,1.59095096588,,,,,2015_Oct_20_1314,G,facesParametric,16,59.5670130032,
./stim/MorphF2_05_orig.jpg,186,,,,,0,186,186,186,,,,,,,,,,,,,,,,,,,22.998046875,10.83984375,1,0,0,0.752933979034,,,,,2015_Oct_20_1314,G,facesParametric,16,59.5670130032,
./stim/MorphM2_03_orig.jpg,187,,,,,0,187,187,187,,,,,,,,,,,,,,,,,,,22.998046875,10.83984375,1,0,0,2.49559402466,,,,,2015_Oct_20_1314,G,facesParametric,16,59.5670130032,
./stim/MorphM5_00_orig.jpg,188,,,,,0,188,188,188,,,,,,,,,,,,,,,,,,,22.998046875,10.83984375,1,0,0,1.33939003944,,,,,2015_Oct_20_1314,G,facesParametric,16,59.5670130032,
./stim/MorphM9_09_orig.jpg,189,,,,,0,189,189,189,,,,,,,,,,,,,,,,,,,22.998046875,10.83984375,1,0,0,0.853748083115,,,,,2015_Oct_20_1314,G,facesParametric,16,59.5670130032,
./stim/MorphF8_08_orig.jpg,190,,,,,0,190,190,190,,,,,,,,,,,,,,,,,,,22.998046875,10.83984375,1,0,0,1.15499806404,,,,,2015_Oct_20_1314,G,facesParametric,16,59.5670130032,
./stim/MorphF7_09_orig.jpg,191,,,,,0,191,191,191,,,,,,,,,,,,,,,,,,,22.998046875,10.83984375,1,0,0,2.84832000732,,,,,2015_Oct_20_1314,G,facesParametric,16,59.5670130032,
./stim/MorphM6_08_orig.jpg,192,,,,,0,192,192,192,,,,,,,,,,,,,,,,,,,22.998046875,10.83984375,1,0,0,4.17142796516,,,,,2015_Oct_20_1314,G,facesParametric,16,59.5670130032,
./stim/MorphM4_02_orig.jpg,193,,,,,0,193,193,193,,,,,,,,,,,,,,,,,,,22.998046875,10.83984375,1,0,0,1.45585680008,,,,,2015_Oct_20_1314,G,facesParametric,16,59.5670130032,
./stim/MorphF2_09_orig.jpg,194,,,,,0,194,194,194,,,,,,,,,,,,,,,,,,,22.998046875,10.83984375,1,0,0,0.803218126297,,,,,2015_Oct_20_1314,G,facesParametric,16,59.5670130032,
./stim/MorphF4_00_orig.jpg,195,,,,,0,195,195,195,,,,,,,,,,,,,,,,,,,22.998046875,10.83984375,0,0,1,3.13274288177,,,,,2015_Oct_20_1314,G,facesParametric,16,59.5670130032,
./stim/MorphM5_05_orig.jpg,196,,,,,0,196,196,196,,,,,,,,,,,,,,,,,,,22.998046875,10.83984375,1,0,0,1.03787112236,,,,,2015_Oct_20_1314,G,facesParametric,16,59.5670130032,
./stim/MorphM10_00_orig.jpg,197,,,,,0,197,197,197,,,,,,,,,,,,,,,,,,,22.998046875,10.83984375,1,0,0,1.13618993759,,,,,2015_Oct_20_1314,G,facesParametric,16,59.5670130032,
./stim/MorphF1_10_orig.jpg,198,,,,,0,198,198,198,,,,,,,,,,,,,,,,,,,22.998046875,10.83984375,0,0,1,1.67421483994,,,,,2015_Oct_20_1314,G,facesParametric,16,59.5670130032,
./stim/MorphM2_01_orig.jpg,199,,,,,0,199,199,199,,,,,,,,,,,,,,,,,,,22.998046875,10.83984375,1,0,0,9.61680793762,,,,,2015_Oct_20_1314,G,facesParametric,16,59.5670130032,
./stim/MorphF1_09_orig.jpg,200,,,,,0,200,200,200,,,,,,,,,,,,,,,,,,,22.998046875,10.83984375,0,0,1,1.67375993729,,,,,2015_Oct_20_1314,G,facesParametric,16,59.5670130032,
./stim/MorphF4_07_orig.jpg,201,,,,,0,201,201,201,,,,,,,,,,,,,,,,,,,22.998046875,10.83984375,1,0,0,0.702465057373,,,,,2015_Oct_20_1314,G,facesParametric,16,59.5670130032,
./stim/MorphF6_10_orig.jpg,202,,,,,0,202,202,202,,,,,,,,,,,,,,,,,,,22.998046875,10.810546875,1,0,0,0.768989801407,,,,,2015_Oct_20_1314,G,facesParametric,16,59.5670130032,
./stim/MorphM10_09_orig.jpg,203,,,,,0,203,203,203,,,,,,,,,,,,,,,,,,,22.998046875,10.810546875,1,0,0,0.719444990158,,,,,2015_Oct_20_1314,G,facesParametric,16,59.5670130032,
./stim/MorphM5_02_orig.jpg,204,,,,,0,204,204,204,,,,,,,,,,,,,,,,,,,22.998046875,10.810546875,1,0,0,0.801831007004,,,,,2015_Oct_20_1314,G,facesParametric,16,59.5670130032,
./stim/MorphM2_05_orig.jpg,205,,,,,0,205,205,205,,,,,,,,,,,,,,,,,,,22.998046875,10.810546875,1,0,0,1.27138090134,,,,,2015_Oct_20_1314,G,facesParametric,16,59.5670130032,
./stim/MorphM3_04_orig.jpg,206,,,,,0,206,206,206,,,,,,,,,,,,,,,,,,,22.998046875,10.810546875,1,0,0,0.736111879349,,,,,2015_Oct_20_1314,G,facesParametric,16,59.5670130032,
./stim/MorphF5_06_orig.jpg,207,,,,,0,207,207,207,,,,,,,,,,,,,,,,,,,22.998046875,10.810546875,0,0,1,1.97682094574,,,,,2015_Oct_20_1314,G,facesParametric,16,59.5670130032,
./stim/MorphM7_02_orig.jpg,208,,,,,0,208,208,208,,,,,,,,,,,,,,,,,,,22.998046875,10.810546875,1,0,0,0.649709939957,,,,,2015_Oct_20_1314,G,facesParametric,16,59.5670130032,
./stim/MorphF9_10_orig.jpg,209,,,,,0,209,209,209,,,,,,,,,,,,,,,,,,,22.998046875,10.810546875,1,0,0,0.903975009918,,,,,2015_Oct_20_1314,G,facesParametric,16,59.5670130032,
./stim/MorphM9_04_orig.jpg,210,,,,,0,210,210,210,,,,,,,,,,,,,,,,,,,22.998046875,10.810546875,1,0,0,0.601198911667,,,,,2015_Oct_20_1314,G,facesParametric,16,59.5670130032,
./stim/MorphF5_07_orig.jpg,211,,,,,0,211,211,211,,,,,,,,,,,,,,,,,,,22.998046875,10.810546875,1,0,0,8.63012194633,,,,,2015_Oct_20_1314,G,facesParametric,16,59.5670130032,
./stim/MorphM9_05_orig.jpg,212,,,,,0,212,212,212,,,,,,,,,,,,,,,,,,,22.998046875,10.810546875,1,0,0,1.10452890396,,,,,2015_Oct_20_1314,G,facesParametric,16,59.5670130032,
./stim/MorphF10_00_orig.jpg,213,,,,,0,213,213,213,,,,,,,,,,,,,,,,,,,22.998046875,10.810546875,1,0,0,5.83066511154,,,,,2015_Oct_20_1314,G,facesParametric,16,59.5670130032,
./stim/MorphF6_07_orig.jpg,214,,,,,0,214,214,214,,,,,,,,,,,,,,,,,,,22.998046875,10.810546875,1,0,0,0.73499917984,,,,,2015_Oct_20_1314,G,facesParametric,16,59.5670130032,
./stim/MorphF5_08_orig.jpg,215,,,,,0,215,215,215,,,,,,,,,,,,,,,,,,,22.998046875,10.810546875,1,0,0,1.95893383026,,,,,2015_Oct_20_1314,G,facesParametric,16,59.5670130032,
./stim/MorphM6_06_orig.jpg,216,,,,,0,216,216,216,,,,,,,,,,,,,,,,,,,22.998046875,10.810546875,1,0,0,3.71965503693,,,,,2015_Oct_20_1314,G,facesParametric,16,59.5670130032,
./stim/MorphF9_09_orig.jpg,217,,,,,0,217,217,217,,,,,,,,,,,,,,,,,,,22.998046875,10.810546875,1,0,0,0.702656984329,,,,,2015_Oct_20_1314,G,facesParametric,16,59.5670130032,
./stim/MorphM7_10_orig.jpg,218,,,,,0,218,218,218,,,,,,,,,,,,,,,,,,,22.998046875,10.810546875,1,0,0,0.703036785126,,,,,2015_Oct_20_1314,G,facesParametric,16,59.5670130032,
./stim/MorphM8_07_orig.jpg,219,,,,,0,219,219,219,,,,,,,,,,,,,,,,,,,22.998046875,10.78125,1,0,0,2.19426298141,,,,,2015_Oct_20_1314,G,facesParametric,16,59.5670130032,
,,,,,,,,,,,,,,,,,,,,,,,,,,,,,,,,,,return,25.592386961,,,2015_Oct_20_1314,G,facesParametric,16,59.5670130032,
./stim/MorphF6_10_orig.jpg,0,,,,,,,,,0,0,0,0,,,,,,,,,,,,,,,23.0859375,0.1171875,1,0,0,4.13589811325,,,,,2015_Oct_20_1314,G,facesParametric,16,59.5670130032,
./stim/MorphF2_06_orig.jpg,1,,,,,,,,,0,1,1,1,,,,,,,,,,,,,,,23.056640625,0.087890625,1,0,0,0.985689878464,,,,,2015_Oct_20_1314,G,facesParametric,16,59.5670130032,
./stim/MorphF1_01_orig.jpg,2,,,,,,,,,0,2,2,2,,,,,,,,,,,,,,,22.96875,-0.087890625,0,0,1,3.31638002396,,,,,2015_Oct_20_1314,G,facesParametric,16,59.5670130032,
./stim/MorphF3_06_orig.jpg,3,,,,,,,,,0,3,3,3,,,,,,,,,,,,,,,22.91015625,-0.05859375,0,0,1,5.73021888733,,,,,2015_Oct_20_1314,G,facesParametric,16,59.5670130032,
./stim/MorphM9_04_orig.jpg,4,,,,,,,,,0,4,4,4,,,,,,,,,,,,,,,22.880859375,-0.05859375,1,0,0,1.07149887085,,,,,2015_Oct_20_1314,G,facesParametric,16,59.5670130032,
./stim/MorphM1_03_orig.jpg,5,,,,,,,,,0,5,5,5,,,,,,,,,,,,,,,22.822265625,-0.05859375,1,0,0,4.57438015938,,,,,2015_Oct_20_1314,G,facesParametric,16,59.5670130032,
./stim/MorphF7_01_orig.jpg,6,,,,,,,,,0,6,6,6,,,,,,,,,,,,,,,22.587890625,0.29296875,0,0,1,3.41764187813,,,,,2015_Oct_20_1314,G,facesParametric,16,59.5670130032,
./stim/MorphF4_06_orig.jpg,7,,,,,,,,,0,7,7,7,,,,,,,,,,,,,,,22.353515625,0.263671875,1,0,0,5.29447698593,,,,,2015_Oct_20_1314,G,facesParametric,16,59.5670130032,
./stim/MorphF5_03_orig.jpg,8,,,,,,,,,0,8,8,8,,,,,,,,,,,,,,,22.353515625,0.234375,0,0,1,1.59126186371,,,,,2015_Oct_20_1314,G,facesParametric,16,59.5670130032,
./stim/MorphF7_08_orig.jpg,9,,,,,,,,,0,9,9,9,,,,,,,,,,,,,,,22.353515625,0.234375,1,0,0,0.903751850128,,,,,2015_Oct_20_1314,G,facesParametric,16,59.5670130032,
./stim/MorphF4_05_orig.jpg,10,,,,,,,,,0,10,10,10,,,,,,,,,,,,,,,22.353515625,0.234375,1,0,0,3.35086393356,,,,,2015_Oct_20_1314,G,facesParametric,16,59.5670130032,
./stim/MorphF6_05_orig.jpg,11,,,,,,,,,0,11,11,11,,,,,,,,,,,,,,,22.353515625,0.205078125,1,0,0,3.01523184776,,,,,2015_Oct_20_1314,G,facesParametric,16,59.5670130032,
./stim/MorphF1_10_orig.jpg,12,,,,,,,,,0,12,12,12,,,,,,,,,,,,,,,22.32421875,0.17578125,1,0,0,7.75848293304,,,,,2015_Oct_20_1314,G,facesParametric,16,59.5670130032,
./stim/MorphF5_06_orig.jpg,13,,,,,,,,,0,13,13,13,,,,,,,,,,,,,,,22.236328125,-0.380859375,0,0,1,1.50719213486,,,,,2015_Oct_20_1314,G,facesParametric,16,59.5670130032,
./stim/MorphM4_02_orig.jpg,14,,,,,,,,,0,14,14,14,,,,,,,,,,,,,,,22.236328125,-0.380859375,1,0,0,2.1273150444,,,,,2015_Oct_20_1314,G,facesParametric,16,59.5670130032,
./stim/MorphM1_10_orig.jpg,15,,,,,,,,,0,15,15,15,,,,,,,,,,,,,,,22.20703125,-0.41015625,1,0,0,3.51806688309,,,,,2015_Oct_20_1314,G,facesParametric,16,59.5670130032,
./stim/MorphF3_08_orig.jpg,16,,,,,,,,,0,16,16,16,,,,,,,,,,,,,,,22.20703125,-0.41015625,0,0,1,1.42343187332,,,,,2015_Oct_20_1314,G,facesParametric,16,59.5670130032,
./stim/MorphM2_09_orig.jpg,17,,,,,,,,,0,17,17,17,,,,,,,,,,,,,,,22.177734375,-0.41015625,1,0,0,0.936523914337,,,,,2015_Oct_20_1314,G,facesParametric,16,59.5670130032,
./stim/MorphM4_03_orig.jpg,18,,,,,,,,,0,18,18,18,,,,,,,,,,,,,,,22.1484375,-0.439453125,1,0,0,1.72563099861,,,,,2015_Oct_20_1314,G,facesParametric,16,59.5670130032,
./stim/MorphF4_02_orig.jpg,19,,,,,,,,,0,19,19,19,,,,,,,,,,,,,,,22.1484375,-0.439453125,0,0,1,1.8749730587,,,,,2015_Oct_20_1314,G,facesParametric,16,59.5670130032,
./stim/MorphF8_03_orig.jpg,20,,,,,,,,,0,20,20,20,,,,,,,,,,,,,,,21.5625,-0.263671875,0,0,1,6.46790790558,,,,,2015_Oct_20_1314,G,facesParametric,16,59.5670130032,
./stim/MorphM5_04_orig.jpg,21,,,,,,,,,0,21,21,21,,,,,,,,,,,,,,,21.474609375,-0.234375,1,0,0,0.954280853271,,,,,2015_Oct_20_1314,G,facesParametric,16,59.5670130032,
./stim/MorphF6_08_orig.jpg,22,,,,,,,,,0,22,22,22,,,,,,,,,,,,,,,21.474609375,-0.234375,1,0,0,0.870382070541,,,,,2015_Oct_20_1314,G,facesParametric,16,59.5670130032,
./stim/MorphF3_02_orig.jpg,23,,,,,,,,,0,23,23,23,,,,,,,,,,,,,,,21.328125,-0.234375,0,0,1,1.50683307648,,,,,2015_Oct_20_1314,G,facesParametric,16,59.5670130032,
./stim/MorphM1_05_orig.jpg,24,,,,,,,,,0,24,24,24,,,,,,,,,,,,,,,22.939453125,0.76171875,1,0,0,5.44579601288,,,,,2015_Oct_20_1314,G,facesParametric,16,59.5670130032,
./stim/MorphM10_09_orig.jpg,25,,,,,,,,,0,25,25,25,,,,,,,,,,,,,,,22.939453125,0.76171875,1,0,0,1.00257492065,,,,,2015_Oct_20_1314,G,facesParametric,16,59.5670130032,
./stim/MorphF2_00_orig.jpg,26,,,,,,,,,0,26,26,26,,,,,,,,,,,,,,,22.939453125,0.76171875,1,0,0,0.853096008301,,,,,2015_Oct_20_1314,G,facesParametric,16,59.5670130032,
./stim/MorphM7_05_orig.jpg,27,,,,,,,,,0,27,27,27,,,,,,,,,,,,,,,22.939453125,0.76171875,1,0,0,1.44002985954,,,,,2015_Oct_20_1314,G,facesParametric,16,59.5670130032,
./stim/MorphM1_07_orig.jpg,28,,,,,,,,,0,28,28,28,,,,,,,,,,,,,,,22.646484375,0.76171875,1,0,0,1.30572509766,,,,,2015_Oct_20_1314,G,facesParametric,16,59.5670130032,
./stim/MorphF6_03_orig.jpg,29,,,,,,,,,0,29,29,29,,,,,,,,,,,,,,,22.587890625,0.791015625,1,0,0,6.78615307808,,,,,2015_Oct_20_1314,G,facesParametric,16,59.5670130032,
./stim/MorphM7_10_orig.jpg,30,,,,,,,,,0,30,30,30,,,,,,,,,,,,,,,22.587890625,0.791015625,1,0,0,1.44047617912,,,,,2015_Oct_20_1314,G,facesParametric,16,59.5670130032,
./stim/MorphF10_08_orig.jpg,31,,,,,,,,,0,31,31,31,,,,,,,,,,,,,,,22.5,0.8203125,1,0,0,1.08882904053,,,,,2015_Oct_20_1314,G,facesParametric,16,59.5670130032,
./stim/MorphM6_10_orig.jpg,32,,,,,,,,,0,32,32,32,,,,,,,,,,,,,,,22.44140625,0.849609375,1,0,0,1.35529112816,,,,,2015_Oct_20_1314,G,facesParametric,16,59.5670130032,
./stim/MorphM9_00_orig.jpg,33,,,,,,,,,0,33,33,33,,,,,,,,,,,,,,,20.888671875,1.34765625,0,0,1,5.66342592239,,,,,2015_Oct_20_1314,G,facesParametric,16,59.5670130032,
./stim/MorphF3_10_orig.jpg,34,,,,,,,,,0,34,34,34,,,,,,,,,,,,,,,20.80078125,1.34765625,0,0,1,2.14422297478,,,,,2015_Oct_20_1314,G,facesParametric,16,59.5670130032,
./stim/MorphM9_01_orig.jpg,35,,,,,,,,,0,35,35,35,,,,,,,,,,,,,,,20.80078125,1.34765625,0,0,1,2.24315309525,,,,,2015_Oct_20_1314,G,facesParametric,16,59.5670130032,
./stim/MorphM4_07_orig.jpg,36,,,,,,,,,0,36,36,36,,,,,,,,,,,,,,,20.80078125,1.34765625,1,0,0,1.23922491074,,,,,2015_Oct_20_1314,G,facesParametric,16,59.5670130032,
./stim/MorphM9_10_orig.jpg,37,,,,,,,,,0,37,37,37,,,,,,,,,,,,,,,20.7421875,1.40625,1,0,0,0.903717041016,,,,,2015_Oct_20_1314,G,facesParametric,16,59.5670130032,
./stim/MorphM10_03_orig.jpg,38,,,,,,,,,0,38,38,38,,,,,,,,,,,,,,,20.7421875,1.40625,1,0,0,1.02093505859,,,,,2015_Oct_20_1314,G,facesParametric,16,59.5670130032,
./stim/MorphM6_05_orig.jpg,39,,,,,,,,,0,39,39,39,,,,,,,,,,,,,,,20.7421875,1.40625,1,0,0,0.602247953415,,,,,2015_Oct_20_1314,G,facesParametric,16,59.5670130032,
./stim/MorphM1_06_orig.jpg,40,,,,,,,,,0,40,40,40,,,,,,,,,,,,,,,20.7421875,1.40625,0,0,1,5.37711811066,,,,,2015_Oct_20_1314,G,facesParametric,16,59.5670130032,
./stim/MorphF2_08_orig.jpg,41,,,,,,,,,0,41,41,41,,,,,,,,,,,,,,,20.7421875,1.40625,1,0,0,0.73432302475,,,,,2015_Oct_20_1314,G,facesParametric,16,59.5670130032,
./stim/MorphM3_00_orig.jpg,42,,,,,,,,,0,42,42,42,,,,,,,,,,,,,,,20.7421875,1.435546875,1,0,0,0.853808879852,,,,,2015_Oct_20_1314,G,facesParametric,16,59.5670130032,
./stim/MorphM7_04_orig.jpg,43,,,,,,,,,0,43,43,43,,,,,,,,,,,,,,,20.7421875,1.435546875,1,0,0,0.951639890671,,,,,2015_Oct_20_1314,G,facesParametric,16,59.5670130032,
./stim/MorphF3_04_orig.jpg,44,,,,,,,,,0,44,44,44,,,,,,,,,,,,,,,20.7421875,1.435546875,0,0,1,1.23928308487,,,,,2015_Oct_20_1314,G,facesParametric,16,59.5670130032,
./stim/MorphM2_06_orig.jpg,45,,,,,,,,,0,45,45,45,,,,,,,,,,,,,,,20.7421875,1.435546875,1,0,0,0.851709127426,,,,,2015_Oct_20_1314,G,facesParametric,16,59.5670130032,
./stim/MorphF8_02_orig.jpg,46,,,,,,,,,0,46,46,46,,,,,,,,,,,,,,,20.68359375,1.494140625,0,0,1,10.5739181042,,,,,2015_Oct_20_1314,G,facesParametric,16,59.5670130032,
./stim/MorphM5_02_orig.jpg,47,,,,,,,,,0,47,47,47,,,,,,,,,,,,,,,20.68359375,1.494140625,1,0,0,0.803072929382,,,,,2015_Oct_20_1314,G,facesParametric,16,59.5670130032,
./stim/MorphF4_07_orig.jpg,48,,,,,,,,,0,48,48,48,,,,,,,,,,,,,,,20.68359375,1.494140625,0,0,1,3.76996183395,,,,,2015_Oct_20_1314,G,facesParametric,16,59.5670130032,
./stim/MorphM3_02_orig.jpg,49,,,,,,,,,0,49,49,49,,,,,,,,,,,,,,,20.68359375,1.494140625,0,0,1,2.53033494949,,,,,2015_Oct_20_1314,G,facesParametric,16,59.5670130032,
./stim/MorphF7_02_orig.jpg,50,,,,,,,,,0,50,50,50,,,,,,,,,,,,,,,20.68359375,1.494140625,1,0,0,4.00179815292,,,,,2015_Oct_20_1314,G,facesParametric,16,59.5670130032,
./stim/MorphM5_01_orig.jpg,51,,,,,,,,,0,51,51,51,,,,,,,,,,,,,,,20.68359375,1.494140625,1,0,0,0.719101905823,,,,,2015_Oct_20_1314,G,facesParametric,16,59.5670130032,
./stim/MorphF6_04_orig.jpg,52,,,,,,,,,0,52,52,52,,,,,,,,,,,,,,,20.68359375,1.494140625,1,0,0,0.737173080444,,,,,2015_Oct_20_1314,G,facesParametric,16,59.5670130032,
./stim/MorphM1_01_orig.jpg,53,,,,,,,,,0,53,53,53,,,,,,,,,,,,,,,20.68359375,1.494140625,1,0,0,5.39268708229,,,,,2015_Oct_20_1314,G,facesParametric,16,59.5670130032,
./stim/MorphF8_00_orig.jpg,54,,,,,,,,,0,54,54,54,,,,,,,,,,,,,,,20.68359375,1.494140625,0,0,1,5.02409815788,,,,,2015_Oct_20_1314,G,facesParametric,16,59.5670130032,
./stim/MorphF2_02_orig.jpg,55,,,,,,,,,0,55,55,55,,,,,,,,,,,,,,,20.625,1.5234375,1,0,0,0.701694011688,,,,,2015_Oct_20_1314,G,facesParametric,16,59.5670130032,
./stim/MorphF3_01_orig.jpg,56,,,,,,,,,0,56,56,56,,,,,,,,,,,,,,,20.537109375,1.552734375,0,0,1,0.800707101822,,,,,2015_Oct_20_1314,G,facesParametric,16,59.5670130032,
./stim/MorphF1_00_orig.jpg,57,,,,,,,,,0,57,57,57,,,,,,,,,,,,,,,20.419921875,1.69921875,0,0,1,0.985271930695,,,,,2015_Oct_20_1314,G,facesParametric,16,59.5670130032,
./stim/MorphM6_09_orig.jpg,58,,,,,,,,,0,58,58,58,,,,,,,,,,,,,,,20.419921875,1.69921875,1,0,0,0.585529088974,,,,,2015_Oct_20_1314,G,facesParametric,16,59.5670130032,
./stim/MorphF1_07_orig.jpg,59,,,,,,,,,0,59,59,59,,,,,,,,,,,,,,,20.33203125,1.728515625,0,0,1,1.37104201317,,,,,2015_Oct_20_1314,G,facesParametric,16,59.5670130032,
./stim/MorphF10_10_orig.jpg,60,,,,,,,,,0,60,60,60,,,,,,,,,,,,,,,20.33203125,1.728515625,1,0,0,0.619089126587,,,,,2015_Oct_20_1314,G,facesParametric,16,59.5670130032,
./stim/MorphM5_06_orig.jpg,61,,,,,,,,,0,61,61,61,,,,,,,,,,,,,,,20.33203125,1.728515625,1,0,0,0.618999958038,,,,,2015_Oct_20_1314,G,facesParametric,16,59.5670130032,
./stim/MorphF10_04_orig.jpg,62,,,,,,,,,0,62,62,62,,,,,,,,,,,,,,,20.2734375,1.7578125,1,0,0,2.01033306122,,,,,2015_Oct_20_1314,G,facesParametric,16,59.5670130032,
./stim/MorphF9_05_orig.jpg,63,,,,,,,,,0,63,63,63,,,,,,,,,,,,,,,20.2734375,1.7578125,1,0,0,0.90363407135,,,,,2015_Oct_20_1314,G,facesParametric,16,59.5670130032,
./stim/MorphM4_08_orig.jpg,64,,,,,,,,,0,64,64,64,,,,,,,,,,,,,,,20.2734375,1.7578125,1,0,0,0.819677114487,,,,,2015_Oct_20_1314,G,facesParametric,16,59.5670130032,
./stim/MorphF9_10_orig.jpg,65,,,,,,,,,0,65,65,65,,,,,,,,,,,,,,,20.2734375,1.7578125,1,0,0,0.7860891819,,,,,2015_Oct_20_1314,G,facesParametric,16,59.5670130032,
./stim/MorphF6_02_orig.jpg,66,,,,,,,,,0,66,66,66,,,,,,,,,,,,,,,20.244140625,1.787109375,0,0,1,2.29450583458,,,,,2015_Oct_20_1314,G,facesParametric,16,59.5670130032,
./stim/MorphM5_07_orig.jpg,67,,,,,,,,,0,67,67,67,,,,,,,,,,,,,,,20.244140625,1.787109375,1,0,0,0.703756093979,,,,,2015_Oct_20_1314,G,facesParametric,16,59.5670130032,
./stim/MorphF3_05_orig.jpg,68,,,,,,,,,0,68,68,68,,,,,,,,,,,,,,,20.244140625,1.787109375,0,0,1,0.953059911728,,,,,2015_Oct_20_1314,G,facesParametric,16,59.5670130032,
./stim/MorphF9_02_orig.jpg,69,,,,,,,,,0,69,69,69,,,,,,,,,,,,,,,20.244140625,1.787109375,1,0,0,1.03790998459,,,,,2015_Oct_20_1314,G,facesParametric,16,59.5670130032,
./stim/MorphM8_00_orig.jpg,70,,,,,,,,,0,70,70,70,,,,,,,,,,,,,,,20.244140625,1.787109375,1,0,0,1.28943705559,,,,,2015_Oct_20_1314,G,facesParametric,16,59.5670130032,
./stim/MorphF10_03_orig.jpg,71,,,,,,,,,0,71,71,71,,,,,,,,,,,,,,,20.244140625,1.787109375,1,0,0,2.49583005905,,,,,2015_Oct_20_1314,G,facesParametric,16,59.5670130032,
./stim/MorphF9_08_orig.jpg,72,,,,,,,,,0,72,72,72,,,,,,,,,,,,,,,20.244140625,1.787109375,1,0,0,3.60222387314,,,,,2015_Oct_20_1314,G,facesParametric,16,59.5670130032,
./stim/MorphF4_00_orig.jpg,73,,,,,,,,,0,73,73,73,,,,,,,,,,,,,,,20.244140625,1.787109375,0,0,1,4.91005206108,,,,,2015_Oct_20_1314,G,facesParametric,16,59.5670130032,
./stim/MorphM6_04_orig.jpg,74,,,,,,,,,0,74,74,74,,,,,,,,,,,,,,,20.185546875,1.7578125,1,0,0,1.36992788315,,,,,2015_Oct_20_1314,G,facesParametric,16,59.5670130032,
./stim/MorphM3_09_orig.jpg,75,,,,,,,,,0,75,75,75,,,,,,,,,,,,,,,19.98046875,1.69921875,1,0,0,1.60776209831,,,,,2015_Oct_20_1314,G,facesParametric,16,59.5670130032,
./stim/MorphM10_02_orig.jpg,76,,,,,,,,,0,76,76,76,,,,,,,,,,,,,,,19.8046875,1.58203125,1,0,0,4.42387413979,,,,,2015_Oct_20_1314,G,facesParametric,16,59.5670130032,
./stim/MorphM8_08_orig.jpg,77,,,,,,,,,0,77,77,77,,,,,,,,,,,,,,,19.775390625,1.58203125,1,0,0,1.01827096939,,,,,2015_Oct_20_1314,G,facesParametric,16,59.5670130032,
./stim/MorphM4_05_orig.jpg,78,,,,,,,,,0,78,78,78,,,,,,,,,,,,,,,19.775390625,1.58203125,1,0,0,2.09355902672,,,,,2015_Oct_20_1314,G,facesParametric,16,59.5670130032,
./stim/MorphM2_08_orig.jpg,79,,,,,,,,,0,79,79,79,,,,,,,,,,,,,,,19.599609375,1.669921875,1,0,0,2.37881493568,,,,,2015_Oct_20_1314,G,facesParametric,16,59.5670130032,
./stim/MorphF6_07_orig.jpg,80,,,,,,,,,0,80,80,80,,,,,,,,,,,,,,,19.599609375,1.669921875,1,0,0,0.736320972443,,,,,2015_Oct_20_1314,G,facesParametric,16,59.5670130032,
./stim/MorphF3_07_orig.jpg,81,,,,,,,,,0,81,81,81,,,,,,,,,,,,,,,19.599609375,1.669921875,0,0,1,0.786273002625,,,,,2015_Oct_20_1314,G,facesParametric,16,59.5670130032,
./stim/MorphM9_02_orig.jpg,82,,,,,,,,,0,82,82,82,,,,,,,,,,,,,,,19.5703125,1.640625,1,0,0,0.685737848282,,,,,2015_Oct_20_1314,G,facesParametric,16,59.5670130032,
./stim/MorphF4_01_orig.jpg,83,,,,,,,,,0,83,83,83,,,,,,,,,,,,,,,19.5703125,1.640625,0,0,1,0.837173938751,,,,,2015_Oct_20_1314,G,facesParametric,16,59.5670130032,
./stim/MorphM2_04_orig.jpg,84,,,,,,,,,0,84,84,84,,,,,,,,,,,,,,,19.5703125,1.640625,1,0,0,0.618632078171,,,,,2015_Oct_20_1314,G,facesParametric,16,59.5670130032,
./stim/MorphM9_08_orig.jpg,85,,,,,,,,,0,85,85,85,,,,,,,,,,,,,,,19.541015625,1.69921875,1,0,0,5.22782588005,,,,,2015_Oct_20_1314,G,facesParametric,16,59.5670130032,
./stim/MorphF1_09_orig.jpg,86,,,,,,,,,0,86,86,86,,,,,,,,,,,,,,,19.1015625,1.962890625,0,0,1,0.784579992294,,,,,2015_Oct_20_1314,G,facesParametric,16,59.5670130032,
./stim/MorphM10_08_orig.jpg,87,,,,,,,,,0,87,87,87,,,,,,,,,,,,,,,19.1015625,1.962890625,1,0,0,0.617313146591,,,,,2015_Oct_20_1314,G,facesParametric,16,59.5670130032,
./stim/MorphF9_07_orig.jpg,88,,,,,,,,,0,88,88,88,,,,,,,,,,,,,,,19.1015625,1.962890625,1,0,0,0.734982013702,,,,,2015_Oct_20_1314,G,facesParametric,16,59.5670130032,
./stim/MorphF10_07_orig.jpg,89,,,,,,,,,0,89,89,89,,,,,,,,,,,,,,,19.1015625,1.962890625,1,0,0,0.70299911499,,,,,2015_Oct_20_1314,G,facesParametric,16,59.5670130032,
./stim/MorphM7_03_orig.jpg,90,,,,,,,,,0,90,90,90,,,,,,,,,,,,,,,19.1015625,1.962890625,1,0,0,0.853711843491,,,,,2015_Oct_20_1314,G,facesParametric,16,59.5670130032,
./stim/MorphM9_03_orig.jpg,91,,,,,,,,,0,91,91,91,,,,,,,,,,,,,,,19.1015625,1.962890625,0,0,1,3.29844093323,,,,,2015_Oct_20_1314,G,facesParametric,16,59.5670130032,
./stim/MorphM4_10_orig.jpg,92,,,,,,,,,0,92,92,92,,,,,,,,,,,,,,,19.1015625,1.962890625,1,0,0,0.82037115097,,,,,2015_Oct_20_1314,G,facesParametric,16,59.5670130032,
./stim/MorphF4_10_orig.jpg,93,,,,,,,,,0,93,93,93,,,,,,,,,,,,,,,19.1015625,1.962890625,1,0,0,1.30590009689,,,,,2015_Oct_20_1314,G,facesParametric,16,59.5670130032,
./stim/MorphF5_10_orig.jpg,94,,,,,,,,,0,94,94,94,,,,,,,,,,,,,,,19.1015625,1.962890625,0,0,1,2.36170196533,,,,,2015_Oct_20_1314,G,facesParametric,16,59.5670130032,
./stim/MorphM1_08_orig.jpg,95,,,,,,,,,0,95,95,95,,,,,,,,,,,,,,,18.837890625,2.138671875,1,0,0,4.40664196014,,,,,2015_Oct_20_1314,G,facesParametric,16,59.5670130032,
./stim/MorphM3_06_orig.jpg,96,,,,,,,,,0,96,96,96,,,,,,,,,,,,,,,18.837890625,2.138671875,1,0,0,1.35621905327,,,,,2015_Oct_20_1314,G,facesParametric,16,59.5670130032,
./stim/MorphF8_08_orig.jpg,97,,,,,,,,,0,97,97,97,,,,,,,,,,,,,,,18.837890625,2.138671875,1,0,0,0.551916122437,,,,,2015_Oct_20_1314,G,facesParametric,16,59.5670130032,
./stim/MorphM4_06_orig.jpg,98,,,,,,,,,0,98,98,98,,,,,,,,,,,,,,,18.837890625,2.138671875,1,0,0,3.0643761158,,,,,2015_Oct_20_1314,G,facesParametric,16,59.5670130032,
./stim/MorphM2_05_orig.jpg,99,,,,,,,,,0,99,99,99,,,,,,,,,,,,,,,18.837890625,2.138671875,1,0,0,4.25633192062,,,,,2015_Oct_20_1314,G,facesParametric,16,59.5670130032,
./stim/MorphF6_09_orig.jpg,100,,,,,,,,,0,100,100,100,,,,,,,,,,,,,,,18.837890625,2.138671875,1,0,0,4.9909799099,,,,,2015_Oct_20_1314,G,facesParametric,16,59.5670130032,
./stim/MorphF7_00_orig.jpg,101,,,,,,,,,0,101,101,101,,,,,,,,,,,,,,,18.837890625,2.138671875,0,0,1,5.58004689217,,,,,2015_Oct_20_1314,G,facesParametric,16,59.5670130032,
./stim/MorphM3_08_orig.jpg,102,,,,,,,,,0,102,102,102,,,,,,,,,,,,,,,18.69140625,2.109375,1,0,0,0.853708982468,,,,,2015_Oct_20_1314,G,facesParametric,16,59.5670130032,
./stim/MorphM7_07_orig.jpg,103,,,,,,,,,0,103,103,103,,,,,,,,,,,,,,,18.662109375,2.080078125,1,0,0,1.18839502335,,,,,2015_Oct_20_1314,G,facesParametric,16,59.5670130032,
./stim/MorphF3_00_orig.jpg,104,,,,,,,,,0,104,104,104,,,,,,,,,,,,,,,18.662109375,2.080078125,0,0,1,0.987977027893,,,,,2015_Oct_20_1314,G,facesParametric,16,59.5670130032,
./stim/MorphF2_01_orig.jpg,105,,,,,,,,,0,105,105,105,,,,,,,,,,,,,,,18.544921875,2.080078125,1,0,0,0.650029182434,,,,,2015_Oct_20_1314,G,facesParametric,16,59.5670130032,
./stim/MorphF1_08_orig.jpg,106,,,,,,,,,0,106,106,106,,,,,,,,,,,,,,,18.544921875,2.080078125,0,0,1,0.820405960083,,,,,2015_Oct_20_1314,G,facesParametric,16,59.5670130032,
./stim/MorphM10_10_orig.jpg,107,,,,,,,,,0,107,107,107,,,,,,,,,,,,,,,18.544921875,2.080078125,1,0,0,0.634934186935,,,,,2015_Oct_20_1314,G,facesParametric,16,59.5670130032,
./stim/MorphF5_00_orig.jpg,108,,,,,,,,,0,108,108,108,,,,,,,,,,,,,,,18.544921875,2.080078125,0,0,1,4.57171392441,,,,,2015_Oct_20_1314,G,facesParametric,16,59.5670130032,
./stim/MorphF7_03_orig.jpg,109,,,,,,,,,0,109,109,109,,,,,,,,,,,,,,,18.310546875,1.962890625,0,0,1,2.72983193398,,,,,2015_Oct_20_1314,G,facesParametric,16,59.5670130032,
./stim/MorphF9_04_orig.jpg,110,,,,,,,,,0,110,110,110,,,,,,,,,,,,,,,18.310546875,1.962890625,0,0,1,2.21033096313,,,,,2015_Oct_20_1314,G,facesParametric,16,59.5670130032,
./stim/MorphM6_08_orig.jpg,111,,,,,,,,,0,111,111,111,,,,,,,,,,,,,,,18.310546875,1.962890625,1,0,0,1.72334003448,,,,,2015_Oct_20_1314,G,facesParametric,16,59.5670130032,
./stim/MorphF10_01_orig.jpg,112,,,,,,,,,0,112,112,112,,,,,,,,,,,,,,,18.310546875,1.962890625,1,0,0,1.99307179451,,,,,2015_Oct_20_1314,G,facesParametric,16,59.5670130032,
./stim/MorphM2_07_orig.jpg,113,,,,,,,,,0,113,113,113,,,,,,,,,,,,,,,18.310546875,1.962890625,1,0,0,1.22053480148,,,,,2015_Oct_20_1314,G,facesParametric,16,59.5670130032,
./stim/MorphM9_06_orig.jpg,114,,,,,,,,,0,114,114,114,,,,,,,,,,,,,,,18.310546875,1.962890625,1,0,0,0.903121948242,,,,,2015_Oct_20_1314,G,facesParametric,16,59.5670130032,
./stim/MorphM1_04_orig.jpg,115,,,,,,,,,0,115,115,115,,,,,,,,,,,,,,,18.310546875,1.962890625,1,0,0,3.35068917274,,,,,2015_Oct_20_1314,G,facesParametric,16,59.5670130032,
./stim/MorphF4_03_orig.jpg,116,,,,,,,,,0,116,116,116,,,,,,,,,,,,,,,18.310546875,1.962890625,1,0,0,0.803516864777,,,,,2015_Oct_20_1314,G,facesParametric,16,59.5670130032,
./stim/MorphM6_02_orig.jpg,117,,,,,,,,,0,117,117,117,,,,,,,,,,,,,,,18.310546875,1.962890625,1,0,0,0.703013896942,,,,,2015_Oct_20_1314,G,facesParametric,16,59.5670130032,
./stim/MorphM1_02_orig.jpg,118,,,,,,,,,0,118,118,118,,,,,,,,,,,,,,,18.310546875,1.962890625,0,0,1,3.80280685425,,,,,2015_Oct_20_1314,G,facesParametric,16,59.5670130032,
./stim/MorphF7_10_orig.jpg,119,,,,,,,,,0,119,119,119,,,,,,,,,,,,,,,18.310546875,1.962890625,1,0,0,0.820526123047,,,,,2015_Oct_20_1314,G,facesParametric,16,59.5670130032,
./stim/MorphM2_01_orig.jpg,120,,,,,,,,,0,120,120,120,,,,,,,,,,,,,,,18.310546875,1.962890625,1,0,0,0.58376789093,,,,,2015_Oct_20_1314,G,facesParametric,16,59.5670130032,
./stim/MorphF1_06_orig.jpg,121,,,,,,,,,0,121,121,121,,,,,,,,,,,,,,,18.22265625,2.05078125,0,0,1,0.886666059494,,,,,2015_Oct_20_1314,G,facesParametric,16,59.5670130032,
./stim/MorphF5_02_orig.jpg,122,,,,,,,,,0,122,122,122,,,,,,,,,,,,,,,18.10546875,2.109375,0,0,1,1.15501213074,,,,,2015_Oct_20_1314,G,facesParametric,16,59.5670130032,
./stim/MorphM7_01_orig.jpg,123,,,,,,,,,0,123,123,123,,,,,,,,,,,,,,,16.9921875,1.93359375,1,0,0,0.720440149307,,,,,2015_Oct_20_1314,G,facesParametric,16,59.5670130032,
./stim/MorphF10_00_orig.jpg,124,,,,,,,,,0,124,124,124,,,,,,,,,,,,,,,16.93359375,1.93359375,1,0,0,5.07657599449,,,,,2015_Oct_20_1314,G,facesParametric,16,59.5670130032,
./stim/MorphM7_06_orig.jpg,125,,,,,,,,,0,125,125,125,,,,,,,,,,,,,,,16.93359375,1.93359375,1,0,0,0.803180932999,,,,,2015_Oct_20_1314,G,facesParametric,16,59.5670130032,
./stim/MorphF8_04_orig.jpg,126,,,,,,,,,0,126,126,126,,,,,,,,,,,,,,,16.93359375,1.93359375,1,0,0,3.80302810669,,,,,2015_Oct_20_1314,G,facesParametric,16,59.5670130032,
./stim/MorphF2_09_orig.jpg,127,,,,,,,,,0,127,127,127,,,,,,,,,,,,,,,16.93359375,1.93359375,1,0,0,0.685832023621,,,,,2015_Oct_20_1314,G,facesParametric,16,59.5670130032,
./stim/MorphM10_04_orig.jpg,128,,,,,,,,,0,128,128,128,,,,,,,,,,,,,,,16.93359375,1.93359375,1,0,0,0.702564001083,,,,,2015_Oct_20_1314,G,facesParametric,16,59.5670130032,
./stim/MorphM6_00_orig.jpg,129,,,,,,,,,0,129,129,129,,,,,,,,,,,,,,,16.93359375,1.93359375,1,0,0,0.786744832993,,,,,2015_Oct_20_1314,G,facesParametric,16,59.5670130032,
./stim/MorphF4_08_orig.jpg,130,,,,,,,,,0,130,130,130,,,,,,,,,,,,,,,16.904296875,1.875,1,0,0,0.585567951202,,,,,2015_Oct_20_1314,G,facesParametric,16,59.5670130032,
./stim/MorphM8_09_orig.jpg,131,,,,,,,,,0,131,131,131,,,,,,,,,,,,,,,16.904296875,1.875,1,0,0,3.282310009,,,,,2015_Oct_20_1314,G,facesParametric,16,59.5670130032,
./stim/MorphF10_09_orig.jpg,132,,,,,,,,,0,132,132,132,,,,,,,,,,,,,,,16.904296875,1.875,1,0,0,0.768668174744,,,,,2015_Oct_20_1314,G,facesParametric,16,59.5670130032,
./stim/MorphM10_07_orig.jpg,133,,,,,,,,,0,133,133,133,,,,,,,,,,,,,,,16.904296875,1.875,1,0,0,3.30033802986,,,,,2015_Oct_20_1314,G,facesParametric,16,59.5670130032,
./stim/MorphM4_00_orig.jpg,134,,,,,,,,,0,134,134,134,,,,,,,,,,,,,,,16.904296875,1.875,1,0,0,0.652267932892,,,,,2015_Oct_20_1314,G,facesParametric,16,59.5670130032,
./stim/MorphM6_03_orig.jpg,135,,,,,,,,,0,135,135,135,,,,,,,,,,,,,,,16.904296875,1.875,1,0,0,0.635782957077,,,,,2015_Oct_20_1314,G,facesParametric,16,59.5670130032,
./stim/MorphF9_09_orig.jpg,136,,,,,,,,,0,136,136,136,,,,,,,,,,,,,,,16.904296875,1.875,1,0,0,0.45033788681,,,,,2015_Oct_20_1314,G,facesParametric,16,59.5670130032,
./stim/MorphM10_00_orig.jpg,137,,,,,,,,,0,137,137,137,,,,,,,,,,,,,,,16.904296875,1.875,1,0,0,1.1051261425,,,,,2015_Oct_20_1314,G,facesParametric,16,59.5670130032,
./stim/MorphF7_09_orig.jpg,138,,,,,,,,,0,138,138,138,,,,,,,,,,,,,,,16.904296875,1.962890625,1,0,0,1.10442495346,,,,,2015_Oct_20_1314,G,facesParametric,16,59.5670130032,
./stim/MorphF6_01_orig.jpg,139,,,,,,,,,0,139,139,139,,,,,,,,,,,,,,,16.904296875,1.962890625,0,0,1,3.40152597427,,,,,2015_Oct_20_1314,G,facesParametric,16,59.5670130032,
./stim/MorphF8_06_orig.jpg,140,,,,,,,,,0,140,140,140,,,,,,,,,,,,,,,16.904296875,1.962890625,1,0,0,0.702753067017,,,,,2015_Oct_20_1314,G,facesParametric,16,59.5670130032,
./stim/MorphF1_05_orig.jpg,141,,,,,,,,,0,141,141,141,,,,,,,,,,,,,,,16.904296875,1.962890625,0,0,1,0.753425836563,,,,,2015_Oct_20_1314,G,facesParametric,16,59.5670130032,
./stim/MorphF8_09_orig.jpg,142,,,,,,,,,0,142,142,142,,,,,,,,,,,,,,,16.81640625,1.9921875,1,0,0,1.52435016632,,,,,2015_Oct_20_1314,G,facesParametric,16,59.5670130032,
./stim/MorphF2_03_orig.jpg,143,,,,,,,,,0,143,143,143,,,,,,,,,,,,,,,16.81640625,1.9921875,1,0,0,0.937365055084,,,,,2015_Oct_20_1314,G,facesParametric,16,59.5670130032,
./stim/MorphF8_01_orig.jpg,144,,,,,,,,,0,144,144,144,,,,,,,,,,,,,,,16.81640625,1.9921875,1,0,0,1.02222704887,,,,,2015_Oct_20_1314,G,facesParametric,16,59.5670130032,
./stim/MorphF1_04_orig.jpg,145,,,,,,,,,0,145,145,145,,,,,,,,,,,,,,,16.7578125,2.021484375,0,0,1,0.903537988663,,,,,2015_Oct_20_1314,G,facesParametric,16,59.5670130032,
./stim/MorphM5_00_orig.jpg,146,,,,,,,,,0,146,146,146,,,,,,,,,,,,,,,16.728515625,2.05078125,1,0,0,1.1042201519,,,,,2015_Oct_20_1314,G,facesParametric,16,59.5670130032,
./stim/MorphM2_02_orig.jpg,147,,,,,,,,,0,147,147,147,,,,,,,,,,,,,,,16.728515625,2.05078125,1,0,0,1.10517501831,,,,,2015_Oct_20_1314,G,facesParametric,16,59.5670130032,
./stim/MorphF8_10_orig.jpg,148,,,,,,,,,0,148,148,148,,,,,,,,,,,,,,,16.728515625,2.05078125,1,0,0,0.969213962555,,,,,2015_Oct_20_1314,G,facesParametric,16,59.5670130032,
./stim/MorphM4_09_orig.jpg,149,,,,,,,,,0,149,149,149,,,,,,,,,,,,,,,16.728515625,2.05078125,1,0,0,4.95885491371,,,,,2015_Oct_20_1314,G,facesParametric,16,59.5670130032,
./stim/MorphF5_04_orig.jpg,150,,,,,,,,,0,150,150,150,,,,,,,,,,,,,,,16.728515625,2.05078125,0,0,1,0.885099887848,,,,,2015_Oct_20_1314,G,facesParametric,16,59.5670130032,
./stim/MorphM9_07_orig.jpg,151,,,,,,,,,0,151,151,151,,,,,,,,,,,,,,,16.728515625,2.05078125,1,0,0,0.752795934677,,,,,2015_Oct_20_1314,G,facesParametric,16,59.5670130032,
./stim/MorphF1_02_orig.jpg,152,,,,,,,,,0,152,152,152,,,,,,,,,,,,,,,16.728515625,2.05078125,0,0,1,2.32797193527,,,,,2015_Oct_20_1314,G,facesParametric,16,59.5670130032,
./stim/MorphF5_07_orig.jpg,153,,,,,,,,,0,153,153,153,,,,,,,,,,,,,,,16.669921875,2.05078125,1,0,0,3.06555199623,,,,,2015_Oct_20_1314,G,facesParametric,16,59.5670130032,
./stim/MorphF7_07_orig.jpg,154,,,,,,,,,0,154,154,154,,,,,,,,,,,,,,,16.669921875,2.05078125,1,0,0,2.61260890961,,,,,2015_Oct_20_1314,G,facesParametric,16,59.5670130032,
./stim/MorphF10_06_orig.jpg,155,,,,,,,,,0,155,155,155,,,,,,,,,,,,,,,16.669921875,2.05078125,1,0,0,0.518469810486,,,,,2015_Oct_20_1314,G,facesParametric,16,59.5670130032,
./stim/MorphM1_00_orig.jpg,156,,,,,,,,,0,156,156,156,,,,,,,,,,,,,,,16.669921875,2.05078125,0,0,1,1.99303293228,,,,,2015_Oct_20_1314,G,facesParametric,16,59.5670130032,
./stim/MorphF5_05_orig.jpg,157,,,,,,,,,0,157,157,157,,,,,,,,,,,,,,,16.640625,2.080078125,1,0,0,11.0586528778,,,,,2015_Oct_20_1314,G,facesParametric,16,59.5670130032,
./stim/MorphF8_05_orig.jpg,158,,,,,,,,,0,158,158,158,,,,,,,,,,,,,,,16.640625,2.080078125,1,0,0,0.836824893951,,,,,2015_Oct_20_1314,G,facesParametric,16,59.5670130032,
./stim/MorphM4_04_orig.jpg,159,,,,,,,,,0,159,159,159,,,,,,,,,,,,,,,16.640625,2.080078125,1,0,0,0.617383956909,,,,,2015_Oct_20_1314,G,facesParametric,16,59.5670130032,
./stim/MorphM6_01_orig.jpg,160,,,,,,,,,0,160,160,160,,,,,,,,,,,,,,,16.640625,2.080078125,1,0,0,0.501986980438,,,,,2015_Oct_20_1314,G,facesParametric,16,59.5670130032,
./stim/MorphM8_06_orig.jpg,161,,,,,,,,,0,161,161,161,,,,,,,,,,,,,,,16.640625,2.080078125,1,0,0,0.600975036621,,,,,2015_Oct_20_1314,G,facesParametric,16,59.5670130032,
./stim/MorphF1_03_orig.jpg,162,,,,,,,,,0,162,162,162,,,,,,,,,,,,,,,16.640625,2.080078125,0,0,1,0.920612096786,,,,,2015_Oct_20_1314,G,facesParametric,16,59.5670130032,
./stim/MorphF9_06_orig.jpg,163,,,,,,,,,0,163,163,163,,,,,,,,,,,,,,,16.640625,2.080078125,1,0,0,0.835098028183,,,,,2015_Oct_20_1314,G,facesParametric,16,59.5670130032,
./stim/MorphM6_06_orig.jpg,164,,,,,,,,,0,164,164,164,,,,,,,,,,,,,,,16.640625,2.080078125,1,0,0,0.601680994034,,,,,2015_Oct_20_1314,G,facesParametric,16,59.5670130032,
./stim/MorphM5_09_orig.jpg,165,,,,,,,,,0,165,165,165,,,,,,,,,,,,,,,16.640625,2.080078125,1,0,0,0.684206962585,,,,,2015_Oct_20_1314,G,facesParametric,16,59.5670130032,
./stim/MorphM10_01_orig.jpg,166,,,,,,,,,0,166,166,166,,,,,,,,,,,,,,,16.640625,2.080078125,1,0,0,1.64028096199,,,,,2015_Oct_20_1314,G,facesParametric,16,59.5670130032,
./stim/MorphF2_10_orig.jpg,167,,,,,,,,,0,167,167,167,,,,,,,,,,,,,,,16.640625,2.080078125,1,0,0,0.718851804733,,,,,2015_Oct_20_1314,G,facesParametric,16,59.5670130032,
./stim/MorphM2_10_orig.jpg,168,,,,,,,,,0,168,168,168,,,,,,,,,,,,,,,16.640625,2.080078125,1,0,0,0.820167064667,,,,,2015_Oct_20_1314,G,facesParametric,16,59.5670130032,
./stim/MorphF9_00_orig.jpg,169,,,,,,,,,0,169,169,169,,,,,,,,,,,,,,,16.640625,2.080078125,1,0,0,0.449270963669,,,,,2015_Oct_20_1314,G,facesParametric,16,59.5670130032,
./stim/MorphM9_09_orig.jpg,170,,,,,,,,,0,170,170,170,,,,,,,,,,,,,,,16.640625,2.080078125,1,0,0,1.38960599899,,,,,2015_Oct_20_1314,G,facesParametric,16,59.5670130032,
./stim/MorphF3_09_orig.jpg,171,,,,,,,,,0,171,171,171,,,,,,,,,,,,,,,16.435546875,2.314453125,0,0,1,2.22684502602,,,,,2015_Oct_20_1314,G,facesParametric,16,59.5670130032,
./stim/MorphF4_09_orig.jpg,172,,,,,,,,,0,172,172,172,,,,,,,,,,,,,,,16.435546875,2.314453125,1,0,0,0.618712902069,,,,,2015_Oct_20_1314,G,facesParametric,16,59.5670130032,
./stim/MorphF3_03_orig.jpg,173,,,,,,,,,0,173,173,173,,,,,,,,,,,,,,,16.435546875,2.314453125,0,0,1,0.836686849594,,,,,2015_Oct_20_1314,G,facesParametric,16,59.5670130032,
./stim/MorphM7_08_orig.jpg,174,,,,,,,,,0,174,174,174,,,,,,,,,,,,,,,16.435546875,2.314453125,1,0,0,0.535327911377,,,,,2015_Oct_20_1314,G,facesParametric,16,59.5670130032,
./stim/MorphF6_00_orig.jpg,175,,,,,,,,,0,175,175,175,,,,,,,,,,,,,,,16.435546875,2.314453125,0,0,1,1.92637300491,,,,,2015_Oct_20_1314,G,facesParametric,16,59.5670130032,
./stim/MorphM8_04_orig.jpg,176,,,,,,,,,0,176,176,176,,,,,,,,,,,,,,,16.435546875,2.314453125,1,0,0,0.568441152573,,,,,2015_Oct_20_1314,G,facesParametric,16,59.5670130032,
./stim/MorphM3_04_orig.jpg,177,,,,,,,,,0,177,177,177,,,,,,,,,,,,,,,16.435546875,2.314453125,1,0,0,1.1046628952,,,,,2015_Oct_20_1314,G,facesParametric,16,59.5670130032,
./stim/MorphF2_07_orig.jpg,178,,,,,,,,,0,178,178,178,,,,,,,,,,,,,,,16.435546875,2.314453125,1,0,0,0.534767866135,,,,,2015_Oct_20_1314,G,facesParametric,16,59.5670130032,
./stim/MorphM6_07_orig.jpg,179,,,,,,,,,0,179,179,179,,,,,,,,,,,,,,,16.435546875,2.314453125,1,0,0,1.27270388603,,,,,2015_Oct_20_1314,G,facesParametric,16,59.5670130032,
./stim/MorphM4_01_orig.jpg,180,,,,,,,,,0,180,180,180,,,,,,,,,,,,,,,16.435546875,2.314453125,1,0,0,3.24983787537,,,,,2015_Oct_20_1314,G,facesParametric,16,59.5670130032,
./stim/MorphM1_09_orig.jpg,181,,,,,,,,,0,181,181,181,,,,,,,,,,,,,,,16.435546875,2.314453125,1,0,0,1.11984395981,,,,,2015_Oct_20_1314,G,facesParametric,16,59.5670130032,
./stim/MorphF10_02_orig.jpg,182,,,,,,,,,0,182,182,182,,,,,,,,,,,,,,,16.435546875,2.314453125,1,0,0,0.669432163239,,,,,2015_Oct_20_1314,G,facesParametric,16,59.5670130032,
./stim/MorphM5_10_orig.jpg,183,,,,,,,,,0,183,183,183,,,,,,,,,,,,,,,16.435546875,2.314453125,1,0,0,0.568266153336,,,,,2015_Oct_20_1314,G,facesParametric,16,59.5670130032,
./stim/MorphF5_01_orig.jpg,184,,,,,,,,,0,184,184,184,,,,,,,,,,,,,,,16.435546875,2.314453125,0,0,1,0.83641409874,,,,,2015_Oct_20_1314,G,facesParametric,16,59.5670130032,
./stim/MorphM3_05_orig.jpg,185,,,,,,,,,0,185,185,185,,,,,,,,,,,,,,,16.435546875,2.314453125,1,0,0,0.601917982101,,,,,2015_Oct_20_1314,G,facesParametric,16,59.5670130032,
./stim/MorphF10_05_orig.jpg,186,,,,,,,,,0,186,186,186,,,,,,,,,,,,,,,16.435546875,2.314453125,1,0,0,0.903516054153,,,,,2015_Oct_20_1314,G,facesParametric,16,59.5670130032,
./stim/MorphM5_05_orig.jpg,187,,,,,,,,,0,187,187,187,,,,,,,,,,,,,,,16.435546875,2.314453125,1,0,0,0.702567815781,,,,,2015_Oct_20_1314,G,facesParametric,16,59.5670130032,
./stim/MorphF8_07_orig.jpg,188,,,,,,,,,0,188,188,188,,,,,,,,,,,,,,,16.435546875,2.314453125,1,0,0,0.953768968582,,,,,2015_Oct_20_1314,G,facesParametric,16,59.5670130032,
./stim/MorphM7_02_orig.jpg,189,,,,,,,,,0,189,189,189,,,,,,,,,,,,,,,16.435546875,2.314453125,1,0,0,4.12187695503,,,,,2015_Oct_20_1314,G,facesParametric,16,59.5670130032,
./stim/MorphF5_08_orig.jpg,190,,,,,,,,,0,190,190,190,,,,,,,,,,,,,,,16.435546875,2.314453125,0,0,1,4.25486397743,,,,,2015_Oct_20_1314,G,facesParametric,16,59.5670130032,
./stim/MorphM2_03_orig.jpg,191,,,,,,,,,0,191,191,191,,,,,,,,,,,,,,,16.435546875,2.314453125,1,0,0,0.549311161041,,,,,2015_Oct_20_1314,G,facesParametric,16,59.5670130032,
./stim/MorphM10_06_orig.jpg,192,,,,,,,,,0,192,192,192,,,,,,,,,,,,,,,16.435546875,2.314453125,1,0,0,0.552044153214,,,,,2015_Oct_20_1314,G,facesParametric,16,59.5670130032,
./stim/MorphF2_04_orig.jpg,193,,,,,,,,,0,193,193,193,,,,,,,,,,,,,,,16.435546875,2.314453125,1,0,0,0.971056938171,,,,,2015_Oct_20_1314,G,facesParametric,16,59.5670130032,
./stim/MorphM8_10_orig.jpg,194,,,,,,,,,0,194,194,194,,,,,,,,,,,,,,,16.435546875,2.314453125,1,0,0,0.40106511116,,,,,2015_Oct_20_1314,G,facesParametric,16,59.5670130032,
./stim/MorphM9_05_orig.jpg,195,,,,,,,,,0,195,195,195,,,,,,,,,,,,,,,16.435546875,2.314453125,1,0,0,0.467954874039,,,,,2015_Oct_20_1314,G,facesParametric,16,59.5670130032,
./stim/MorphF5_09_orig.jpg,196,,,,,,,,,0,196,196,196,,,,,,,,,,,,,,,16.435546875,2.314453125,1,0,0,2.51270699501,,,,,2015_Oct_20_1314,G,facesParametric,16,59.5670130032,
./stim/MorphF7_04_orig.jpg,197,,,,,,,,,0,197,197,197,,,,,,,,,,,,,,,16.435546875,2.314453125,1,0,0,1.23677301407,,,,,2015_Oct_20_1314,G,facesParametric,16,59.5670130032,
./stim/MorphM3_07_orig.jpg,198,,,,,,,,,0,198,198,198,,,,,,,,,,,,,,,16.435546875,2.314453125,1,0,0,0.635690927505,,,,,2015_Oct_20_1314,G,facesParametric,16,59.5670130032,
./stim/MorphM7_00_orig.jpg,199,,,,,,,,,0,199,199,199,,,,,,,,,,,,,,,16.435546875,2.314453125,1,0,0,0.954220056534,,,,,2015_Oct_20_1314,G,facesParametric,16,59.5670130032,
./stim/MorphF7_05_orig.jpg,200,,,,,,,,,0,200,200,200,,,,,,,,,,,,,,,16.435546875,2.314453125,0,0,1,1.73924589157,,,,,2015_Oct_20_1314,G,facesParametric,16,59.5670130032,
./stim/MorphM8_02_orig.jpg,201,,,,,,,,,0,201,201,201,,,,,,,,,,,,,,,16.34765625,2.314453125,1,0,0,0.602020025253,,,,,2015_Oct_20_1314,G,facesParametric,16,59.5670130032,
./stim/MorphM3_01_orig.jpg,202,,,,,,,,,0,202,202,202,,,,,,,,,,,,,,,16.201171875,2.40234375,1,0,0,3.80360507965,,,,,2015_Oct_20_1314,G,facesParametric,16,59.5670130032,
./stim/MorphF9_03_orig.jpg,203,,,,,,,,,0,203,203,203,,,,,,,,,,,,,,,16.201171875,2.40234375,1,0,0,0.616935968399,,,,,2015_Oct_20_1314,G,facesParametric,16,59.5670130032,
./stim/MorphM7_09_orig.jpg,204,,,,,,,,,0,204,204,204,,,,,,,,,,,,,,,16.201171875,2.40234375,1,0,0,0.467432975769,,,,,2015_Oct_20_1314,G,facesParametric,16,59.5670130032,
./stim/MorphF2_05_orig.jpg,205,,,,,,,,,0,205,205,205,,,,,,,,,,,,,,,16.201171875,2.40234375,1,0,0,0.836412906647,,,,,2015_Oct_20_1314,G,facesParametric,16,59.5670130032,
./stim/MorphM3_03_orig.jpg,206,,,,,,,,,0,206,206,206,,,,,,,,,,,,,,,16.201171875,2.40234375,1,0,0,0.55134510994,,,,,2015_Oct_20_1314,G,facesParametric,16,59.5670130032,
./stim/MorphM10_05_orig.jpg,207,,,,,,,,,0,207,207,207,,,,,,,,,,,,,,,16.201171875,2.40234375,1,0,0,0.802791118622,,,,,2015_Oct_20_1314,G,facesParametric,16,59.5670130032,
./stim/MorphM8_01_orig.jpg,208,,,,,,,,,0,208,208,208,,,,,,,,,,,,,,,16.201171875,2.40234375,1,0,0,2.72941184044,,,,,2015_Oct_20_1314,G,facesParametric,16,59.5670130032,
./stim/MorphF7_06_orig.jpg,209,,,,,,,,,0,209,209,209,,,,,,,,,,,,,,,16.142578125,2.40234375,0,0,1,4.00184082985,,,,,2015_Oct_20_1314,G,facesParametric,16,59.5670130032,
./stim/MorphM3_10_orig.jpg,210,,,,,,,,,0,210,210,210,,,,,,,,,,,,,,,16.083984375,2.431640625,1,0,0,0.635470867157,,,,,2015_Oct_20_1314,G,facesParametric,16,59.5670130032,
./stim/MorphM8_07_orig.jpg,211,,,,,,,,,0,211,211,211,,,,,,,,,,,,,,,16.083984375,2.431640625,1,0,0,3.75264787674,,,,,2015_Oct_20_1314,G,facesParametric,16,59.5670130032,
./stim/MorphF6_06_orig.jpg,212,,,,,,,,,0,212,212,212,,,,,,,,,,,,,,,16.083984375,2.431640625,1,0,0,0.971035003662,,,,,2015_Oct_20_1314,G,facesParametric,16,59.5670130032,
./stim/MorphM5_03_orig.jpg,213,,,,,,,,,0,213,213,213,,,,,,,,,,,,,,,16.083984375,2.431640625,1,0,0,2.73038077354,,,,,2015_Oct_20_1314,G,facesParametric,16,59.5670130032,
./stim/MorphM2_00_orig.jpg,214,,,,,,,,,0,214,214,214,,,,,,,,,,,,,,,16.083984375,2.431640625,1,0,0,0.602557897568,,,,,2015_Oct_20_1314,G,facesParametric,16,59.5670130032,
./stim/MorphM5_08_orig.jpg,215,,,,,,,,,0,215,215,215,,,,,,,,,,,,,,,16.083984375,2.431640625,1,0,0,0.66753411293,,,,,2015_Oct_20_1314,G,facesParametric,16,59.5670130032,
./stim/MorphM8_03_orig.jpg,216,,,,,,,,,0,216,216,216,,,,,,,,,,,,,,,16.083984375,2.431640625,1,0,0,0.836463928223,,,,,2015_Oct_20_1314,G,facesParametric,16,59.5670130032,
./stim/MorphF4_04_orig.jpg,217,,,,,,,,,0,217,217,217,,,,,,,,,,,,,,,16.083984375,2.431640625,1,0,0,0.68411898613,,,,,2015_Oct_20_1314,G,facesParametric,16,59.5670130032,
./stim/MorphF9_01_orig.jpg,218,,,,,,,,,0,218,218,218,,,,,,,,,,,,,,,15.966796875,2.490234375,1,0,0,6.60035896301,,,,,2015_Oct_20_1314,G,facesParametric,16,59.5670130032,
./stim/MorphM8_05_orig.jpg,219,,,,,,,,,0,219,219,219,,,,,,,,,,,,,,,15.966796875,2.490234375,1,0,0,0.73642206192,,,,,2015_Oct_20_1314,G,facesParametric,16,59.5670130032,
,,,,,,,,,,,,,,,,,,,,,,,,,,,,,,,,,,,,return,2.45249891281,2015_Oct_20_1314,G,facesParametric,16,59.5670130032,
