img,num,basicLoop.thisRepN,basicLoop.thisTrialN,basicLoop.thisN,basicLoop.thisIndex,trials.thisRepN,trials.thisTrialN,trials.thisN,trials.thisIndex,trials2.thisRepN,trials2.thisTrialN,trials2.thisN,trials2.thisIndex,key_resp_2.keys,key_resp_2.rt,basicRating1.response,basicRating1.rt,basicRating2.response,basicRating2.rt,basicRating3.response,basicRating3.rt,basicRating4.response,basicRating4.rt,key_resp_3.keys,key_resp_3.rt,key_resp_4.keys,key_resp_4.rt,mouseResp.x,mouseResp.y,mouseResp.leftButton,mouseResp.midButton,mouseResp.rightButton,mouseResp.time,key_resp_5.keys,key_resp_5.rt,key_resp_7.keys,key_resp_7.rt,date,group,expName,participant,frameRate,
,,,,,,,,,,,,,,return,147.177402973,,,,,,,,,,,,,,,,,,,,,,,2015_Nov_04_1911,A,facesParametric,17,59.6213734381,
./basicStim/01F_DI_O.jpg,,0,0,0,1,,,,,,,,,,,None,None,None,None,DIS,12.318,None,None,,,,,,,,,,,,,,,2015_Nov_04_1911,A,facesParametric,17,59.6213734381,
./basicStim/28M_HA_O.jpg,,0,1,1,66,,,,,,,,,,,None,None,None,None,DIS,27.992,None,None,,,,,,,,,,,,,,,2015_Nov_04_1911,A,facesParametric,17,59.6213734381,
./basicStim/07F_HA_O.jpg,,0,2,2,31,,,,,,,,,,,HAP,4.882,None,None,None,None,None,None,,,,,,,,,,,,,,,2015_Nov_04_1911,A,facesParametric,17,59.6213734381,
./basicStim/23M_NE_C.jpg,,0,3,3,55,,,,,,,,,,,None,None,None,None,None,None,NTR,4.412,,,,,,,,,,,,,,,2015_Nov_04_1911,A,facesParametric,17,59.6213734381,
./basicStim/03F_HA_O.jpg,,0,4,4,17,,,,,,,,,,,HAP,4.078,None,None,None,None,None,None,,,,,,,,,,,,,,,2015_Nov_04_1911,A,facesParametric,17,59.6213734381,
./basicStim/03F_NE_C.jpg,,0,5,5,20,,,,,,,,,,,None,None,None,None,None,None,NTR,2.785,,,,,,,,,,,,,,,2015_Nov_04_1911,A,facesParametric,17,59.6213734381,
./basicStim/09F_DI_O.jpg,,0,6,6,36,,,,,,,,,,,None,None,None,None,DIS,2.433,None,None,,,,,,,,,,,,,,,2015_Nov_04_1911,A,facesParametric,17,59.6213734381,
./basicStim/07F_DI_O.jpg,,0,7,7,29,,,,,,,,,,,None,None,None,None,DIS,1.411,None,None,,,,,,,,,,,,,,,2015_Nov_04_1911,A,facesParametric,17,59.6213734381,
./basicStim/02F_FE_O.jpg,,0,8,8,9,,,,,,,,,,,None,None,None,None,SUP,1.73,None,None,,,,,,,,,,,,,,,2015_Nov_04_1911,A,facesParametric,17,59.6213734381,
./basicStim/34M_FE_O.jpg,,0,9,9,72,,,,,,,,,,,None,None,None,None,SUP,1.58,None,None,,,,,,,,,,,,,,,2015_Nov_04_1911,A,facesParametric,17,59.6213734381,
./basicStim/23M_AN_O.jpg,,0,10,10,49,,,,,,,,,,,None,None,ANG,1.831,None,None,None,None,,,,,,,,,,,,,,,2015_Nov_04_1911,A,facesParametric,17,59.6213734381,
./basicStim/06F_AN_O.jpg,,0,11,11,21,,,,,,,,,,,None,None,None,None,DIS,3.59,None,None,,,,,,,,,,,,,,,2015_Nov_04_1911,A,facesParametric,17,59.6213734381,
./basicStim/02F_SP_O.jpg,,0,12,12,12,,,,,,,,,,,None,None,None,None,SUP,1.161,None,None,,,,,,,,,,,,,,,2015_Nov_04_1911,A,facesParametric,17,59.6213734381,
./basicStim/23M_FE_O.jpg,,0,13,13,51,,,,,,,,,,,None,None,None,None,SUP,3.741,None,None,,,,,,,,,,,,,,,2015_Nov_04_1911,A,facesParametric,17,59.6213734381,
./basicStim/28M_AN_O.jpg,,0,14,14,63,,,,,,,,,,,None,None,None,None,DIS,5.954,None,None,,,,,,,,,,,,,,,2015_Nov_04_1911,A,facesParametric,17,59.6213734381,
./basicStim/01F_FE_O.jpg,,0,15,15,2,,,,,,,,,,,None,None,None,None,SUP,1.563,None,None,,,,,,,,,,,,,,,2015_Nov_04_1911,A,facesParametric,17,59.6213734381,
./basicStim/36M_SA_C.jpg,,0,16,16,81,,,,,,,,,,,None,None,None,None,None,None,NTR,5.87,,,,,,,,,,,,,,,2015_Nov_04_1911,A,facesParametric,17,59.6213734381,
./basicStim/36M_DI_O.jpg,,0,17,17,78,,,,,,,,,,,None,None,None,None,DIS,3.205,None,None,,,,,,,,,,,,,,,2015_Nov_04_1911,A,facesParametric,17,59.6213734381,
./basicStim/21M_HA_O.jpg,,0,18,18,45,,,,,,,,,,,HAP,3.106,None,None,None,None,None,None,,,,,,,,,,,,,,,2015_Nov_04_1911,A,facesParametric,17,59.6213734381,
./basicStim/06F_SA_C.jpg,,0,19,19,25,,,,,,,,,,,SAD,7.665,None,None,None,None,None,None,,,,,,,,,,,,,,,2015_Nov_04_1911,A,facesParametric,17,59.6213734381,
./basicStim/34M_SA_C.jpg,,0,20,20,74,,,,,,,,,,,SAD,10.077,None,None,None,None,None,None,,,,,,,,,,,,,,,2015_Nov_04_1911,A,facesParametric,17,59.6213734381,
./basicStim/07F_NE_C.jpg,,0,21,21,34,,,,,,,,,,,None,None,None,None,None,None,NTR,1.143,,,,,,,,,,,,,,,2015_Nov_04_1911,A,facesParametric,17,59.6213734381,
./basicStim/34M_SP_O.jpg,,0,22,22,75,,,,,,,,,,,None,None,None,None,SUP,1.379,None,None,,,,,,,,,,,,,,,2015_Nov_04_1911,A,facesParametric,17,59.6213734381,
./basicStim/36M_SP_O.jpg,,0,23,23,82,,,,,,,,,,,None,None,None,None,SUP,2.753,None,None,,,,,,,,,,,,,,,2015_Nov_04_1911,A,facesParametric,17,59.6213734381,
./basicStim/28M_FE_O.jpg,,0,24,24,65,,,,,,,,,,,None,None,FEA,2.955,None,None,None,None,,,,,,,,,,,,,,,2015_Nov_04_1911,A,facesParametric,17,59.6213734381,
./basicStim/24M_SP_O.jpg,,0,25,25,61,,,,,,,,,,,None,None,None,None,None,None,NTR,18.757,,,,,,,,,,,,,,,2015_Nov_04_1911,A,facesParametric,17,59.6213734381,
./basicStim/09F_SP_O.jpg,,0,26,26,40,,,,,,,,,,,None,None,FEA,6.206,None,None,None,None,,,,,,,,,,,,,,,2015_Nov_04_1911,A,facesParametric,17,59.6213734381,
./basicStim/34M_AN_O.jpg,,0,27,27,70,,,,,,,,,,,None,None,ANG,2.485,None,None,None,None,,,,,,,,,,,,,,,2015_Nov_04_1911,A,facesParametric,17,59.6213734381,
./basicStim/21M_FE_O.jpg,,0,28,28,44,,,,,,,,,,,None,None,FEA,3.842,None,None,None,None,,,,,,,,,,,,,,,2015_Nov_04_1911,A,facesParametric,17,59.6213734381,
./basicStim/03F_FE_O.jpg,,0,29,29,16,,,,,,,,,,,None,None,FEA,2.87,None,None,None,None,,,,,,,,,,,,,,,2015_Nov_04_1911,A,facesParametric,17,59.6213734381,
./basicStim/23M_SA_C.jpg,,0,30,30,53,,,,,,,,,,,SAD,3.891,None,None,None,None,None,None,,,,,,,,,,,,,,,2015_Nov_04_1911,A,facesParametric,17,59.6213734381,
./basicStim/02F_NE_C.jpg,,0,31,31,13,,,,,,,,,,,None,None,None,None,None,None,NTR,2.651,,,,,,,,,,,,,,,2015_Nov_04_1911,A,facesParametric,17,59.6213734381,
./basicStim/03F_SA_C.jpg,,0,32,32,18,,,,,,,,,,,None,None,None,None,None,None,NTR,13.714,,,,,,,,,,,,,,,2015_Nov_04_1911,A,facesParametric,17,59.6213734381,
./basicStim/03F_AN_O.jpg,,0,33,33,14,,,,,,,,,,,None,None,ANG,3.323,None,None,None,None,,,,,,,,,,,,,,,2015_Nov_04_1911,A,facesParametric,17,59.6213734381,
./basicStim/36M_FE_O.jpg,,0,34,34,79,,,,,,,,,,,None,None,FEA,1.848,None,None,None,None,,,,,,,,,,,,,,,2015_Nov_04_1911,A,facesParametric,17,59.6213734381,
./basicStim/01F_NE_C.jpg,,0,35,35,6,,,,,,,,,,,None,None,None,None,None,None,NTR,1.261,,,,,,,,,,,,,,,2015_Nov_04_1911,A,facesParametric,17,59.6213734381,
./basicStim/23M_HA_O.jpg,,0,36,36,52,,,,,,,,,,,HAP,1.179,None,None,None,None,None,None,,,,,,,,,,,,,,,2015_Nov_04_1911,A,facesParametric,17,59.6213734381,
./basicStim/01F_AN_O.jpg,,0,37,37,0,,,,,,,,,,,None,None,ANG,1.797,None,None,None,None,,,,,,,,,,,,,,,2015_Nov_04_1911,A,facesParametric,17,59.6213734381,
./basicStim/01F_HA_O.jpg,,0,38,38,3,,,,,,,,,,,HAP,1.363,None,None,None,None,None,None,,,,,,,,,,,,,,,2015_Nov_04_1911,A,facesParametric,17,59.6213734381,
./basicStim/21M_NE_C.jpg,,0,39,39,48,,,,,,,,,,,None,None,None,None,None,None,NTR,2.819,,,,,,,,,,,,,,,2015_Nov_04_1911,A,facesParametric,17,59.6213734381,
./basicStim/24M_SA_C.jpg,,0,40,40,60,,,,,,,,,,,SAD,4.095,None,None,None,None,None,None,,,,,,,,,,,,,,,2015_Nov_04_1911,A,facesParametric,17,59.6213734381,
./basicStim/24M_NE_C.jpg,,0,41,41,62,,,,,,,,,,,None,None,None,None,None,None,NTR,1.058,,,,,,,,,,,,,,,2015_Nov_04_1911,A,facesParametric,17,59.6213734381,
./basicStim/21M_SA_C.jpg,,0,42,42,46,,,,,,,,,,,SAD,2.771,None,None,None,None,None,None,,,,,,,,,,,,,,,2015_Nov_04_1911,A,facesParametric,17,59.6213734381,
./basicStim/06F_DI_O.jpg,,0,43,43,22,,,,,,,,,,,None,None,None,None,DIS,1.93,None,None,,,,,,,,,,,,,,,2015_Nov_04_1911,A,facesParametric,17,59.6213734381,
./basicStim/36M_NE_C.jpg,,0,44,44,83,,,,,,,,,,,None,None,None,None,None,None,NTR,2.902,,,,,,,,,,,,,,,2015_Nov_04_1911,A,facesParametric,17,59.6213734381,
./basicStim/21M_SP_O.jpg,,0,45,45,47,,,,,,,,,,,None,None,None,None,SUP,5.384,None,None,,,,,,,,,,,,,,,2015_Nov_04_1911,A,facesParametric,17,59.6213734381,
./basicStim/36M_HA_O.jpg,,0,46,46,80,,,,,,,,,,,HAP,6.139,None,None,None,None,None,None,,,,,,,,,,,,,,,2015_Nov_04_1911,A,facesParametric,17,59.6213734381,
./basicStim/02F_AN_O.jpg,,0,47,47,7,,,,,,,,,,,None,None,None,None,None,None,NTR,15.83,,,,,,,,,,,,,,,2015_Nov_04_1911,A,facesParametric,17,59.6213734381,
./basicStim/03F_DI_O.jpg,,0,48,48,15,,,,,,,,,,,None,None,None,None,DIS,1.964,None,None,,,,,,,,,,,,,,,2015_Nov_04_1911,A,facesParametric,17,59.6213734381,
./basicStim/34M_HA_O.jpg,,0,49,49,73,,,,,,,,,,,HAP,4.059,None,None,None,None,None,None,,,,,,,,,,,,,,,2015_Nov_04_1911,A,facesParametric,17,59.6213734381,
./basicStim/09F_AN_O.jpg,,0,50,50,35,,,,,,,,,,,None,None,ANG,2.4,None,None,None,None,,,,,,,,,,,,,,,2015_Nov_04_1911,A,facesParametric,17,59.6213734381,
./basicStim/24M_DI_O.jpg,,0,51,51,57,,,,,,,,,,,None,None,FEA,4.113,None,None,None,None,,,,,,,,,,,,,,,2015_Nov_04_1911,A,facesParametric,17,59.6213734381,
./basicStim/36M_AN_O.jpg,,0,52,52,77,,,,,,,,,,,None,None,None,None,None,None,NTR,11.325,,,,,,,,,,,,,,,2015_Nov_04_1911,A,facesParametric,17,59.6213734381,
./basicStim/24M_FE_O.jpg,,0,53,53,58,,,,,,,,,,,None,None,FEA,7.332,None,None,None,None,,,,,,,,,,,,,,,2015_Nov_04_1911,A,facesParametric,17,59.6213734381,
./basicStim/01F_SA_C.jpg,,0,54,54,4,,,,,,,,,,,SAD,4.514,None,None,None,None,None,None,,,,,,,,,,,,,,,2015_Nov_04_1911,A,facesParametric,17,59.6213734381,
./basicStim/23M_SP_O.jpg,,0,55,55,54,,,,,,,,,,,None,None,None,None,SUP,3.239,None,None,,,,,,,,,,,,,,,2015_Nov_04_1911,A,facesParametric,17,59.6213734381,
./basicStim/06F_SP_O.jpg,,0,56,56,26,,,,,,,,,,,None,None,FEA,4.632,None,None,None,None,,,,,,,,,,,,,,,2015_Nov_04_1911,A,facesParametric,17,59.6213734381,
./basicStim/28M_SA_C.jpg,,0,57,57,67,,,,,,,,,,,None,None,None,None,None,None,NTR,5.168,,,,,,,,,,,,,,,2015_Nov_04_1911,A,facesParametric,17,59.6213734381,
./basicStim/07F_AN_O.jpg,,0,58,58,28,,,,,,,,,,,None,None,ANG,1.331,None,None,None,None,,,,,,,,,,,,,,,2015_Nov_04_1911,A,facesParametric,17,59.6213734381,
./basicStim/21M_AN_O.jpg,,0,59,59,42,,,,,,,,,,,None,None,ANG,1.077,None,None,None,None,,,,,,,,,,,,,,,2015_Nov_04_1911,A,facesParametric,17,59.6213734381,
./basicStim/34M_DI_O.jpg,,0,60,60,71,,,,,,,,,,,None,None,None,None,DIS,1.561,None,None,,,,,,,,,,,,,,,2015_Nov_04_1911,A,facesParametric,17,59.6213734381,
./basicStim/01F_SP_O.jpg,,0,61,61,5,,,,,,,,,,,None,None,None,None,SUP,1.613,None,None,,,,,,,,,,,,,,,2015_Nov_04_1911,A,facesParametric,17,59.6213734381,
./basicStim/09F_NE_C.jpg,,0,62,62,41,,,,,,,,,,,None,None,None,None,None,None,NTR,1.645,,,,,,,,,,,,,,,2015_Nov_04_1911,A,facesParametric,17,59.6213734381,
./basicStim/06F_NE_C.jpg,,0,63,63,27,,,,,,,,,,,None,None,None,None,None,None,NTR,0.959,,,,,,,,,,,,,,,2015_Nov_04_1911,A,facesParametric,17,59.6213734381,
./basicStim/09F_HA_O.jpg,,0,64,64,38,,,,,,,,,,,HAP,0.844,None,None,None,None,None,None,,,,,,,,,,,,,,,2015_Nov_04_1911,A,facesParametric,17,59.6213734381,
./basicStim/21M_DI_O.jpg,,0,65,65,43,,,,,,,,,,,None,None,None,None,DIS,1.947,None,None,,,,,,,,,,,,,,,2015_Nov_04_1911,A,facesParametric,17,59.6213734381,
./basicStim/28M_DI_O.jpg,,0,66,66,64,,,,,,,,,,,None,None,None,None,DIS,0.874,None,None,,,,,,,,,,,,,,,2015_Nov_04_1911,A,facesParametric,17,59.6213734381,
./basicStim/23M_DI_O.jpg,,0,67,67,50,,,,,,,,,,,SAD,1.615,None,None,None,None,None,None,,,,,,,,,,,,,,,2015_Nov_04_1911,A,facesParametric,17,59.6213734381,
./basicStim/24M_HA_O.jpg,,0,68,68,59,,,,,,,,,,,HAP,5.0,None,None,None,None,None,None,,,,,,,,,,,,,,,2015_Nov_04_1911,A,facesParametric,17,59.6213734381,
./basicStim/07F_FE_O.jpg,,0,69,69,30,,,,,,,,,,,None,None,None,None,SUP,6.825,None,None,,,,,,,,,,,,,,,2015_Nov_04_1911,A,facesParametric,17,59.6213734381,
./basicStim/06F_FE_O.jpg,,0,70,70,23,,,,,,,,,,,None,None,None,None,None,None,NTR,11.384,,,,,,,,,,,,,,,2015_Nov_04_1911,A,facesParametric,17,59.6213734381,
./basicStim/02F_HA_O.jpg,,0,71,71,10,,,,,,,,,,,HAP,1.296,None,None,None,None,None,None,,,,,,,,,,,,,,,2015_Nov_04_1911,A,facesParametric,17,59.6213734381,
./basicStim/09F_SA_C.jpg,,0,72,72,39,,,,,,,,,,,SAD,2.956,None,None,None,None,None,None,,,,,,,,,,,,,,,2015_Nov_04_1911,A,facesParametric,17,59.6213734381,
./basicStim/09F_FE_O.jpg,,0,73,73,37,,,,,,,,,,,None,None,FEA,3.657,None,None,None,None,,,,,,,,,,,,,,,2015_Nov_04_1911,A,facesParametric,17,59.6213734381,
./basicStim/34M_NE_C.jpg,,0,74,74,76,,,,,,,,,,,None,None,None,None,None,None,NTR,1.897,,,,,,,,,,,,,,,2015_Nov_04_1911,A,facesParametric,17,59.6213734381,
./basicStim/02F_SA_C.jpg,,0,75,75,11,,,,,,,,,,,SAD,4.614,None,None,None,None,None,None,,,,,,,,,,,,,,,2015_Nov_04_1911,A,facesParametric,17,59.6213734381,
./basicStim/06F_HA_O.jpg,,0,76,76,24,,,,,,,,,,,HAP,3.341,None,None,None,None,None,None,,,,,,,,,,,,,,,2015_Nov_04_1911,A,facesParametric,17,59.6213734381,
./basicStim/03F_SP_O.jpg,,0,77,77,19,,,,,,,,,,,None,None,None,None,SUP,2.451,None,None,,,,,,,,,,,,,,,2015_Nov_04_1911,A,facesParametric,17,59.6213734381,
./basicStim/24M_AN_O.jpg,,0,78,78,56,,,,,,,,,,,None,None,ANG,3.038,None,None,None,None,,,,,,,,,,,,,,,2015_Nov_04_1911,A,facesParametric,17,59.6213734381,
./basicStim/28M_NE_C.jpg,,0,79,79,69,,,,,,,,,,,None,None,None,None,None,None,NTR,1.412,,,,,,,,,,,,,,,2015_Nov_04_1911,A,facesParametric,17,59.6213734381,
./basicStim/28M_SP_O.jpg,,0,80,80,68,,,,,,,,,,,None,None,None,None,SUP,4.781,None,None,,,,,,,,,,,,,,,2015_Nov_04_1911,A,facesParametric,17,59.6213734381,
./basicStim/07F_SA_C.jpg,,0,81,81,32,,,,,,,,,,,SAD,1.045,None,None,None,None,None,None,,,,,,,,,,,,,,,2015_Nov_04_1911,A,facesParametric,17,59.6213734381,
./basicStim/07F_SP_O.jpg,,0,82,82,33,,,,,,,,,,,None,None,None,None,SUP,2.671,None,None,,,,,,,,,,,,,,,2015_Nov_04_1911,A,facesParametric,17,59.6213734381,
./basicStim/02F_DI_O.jpg,,0,83,83,8,,,,,,,,,,,None,None,ANG,7.028,None,None,None,None,,,,,,,,,,,,,,,2015_Nov_04_1911,A,facesParametric,17,59.6213734381,
,,,,,,,,,,,,,,,,,,,,,,,,return,110.765461922,,,,,,,,,,,,,2015_Nov_04_1911,A,facesParametric,17,59.6213734381,
,,,,,,,,,,,,,,return,12.1335170269,,,,,,,,,,,,,,,,,,,,,,,2015_Nov_04_1911,A,facesParametric,17,59.6213734381,
,,,,,,,,,,,,,,,,,,,,,,,,return,25.8941400051,,,,,,,,,,,,,2015_Nov_04_1911,A,facesParametric,17,59.6213734381,
,,,,,,,,,,,,,,,,,,,,,,,,,,return,3.25095391273,,,,,,,,,,,2015_Nov_04_1911,A,facesParametric,17,59.6213734381,
./stim/MorphM2_06_orig.jpg,0,,,,,0,0,0,0,,,,,,,,,,,,,,,,,,,-13.154296875,1.376953125,1,0,0,3.77408099174,,,,,2015_Nov_04_1911,A,facesParametric,17,59.6213734381,
./stim/MorphF9_02_orig.jpg,1,,,,,0,1,1,1,,,,,,,,,,,,,,,,,,,-8.818359375,2.255859375,1,0,0,1.89158296585,,,,,2015_Nov_04_1911,A,facesParametric,17,59.6213734381,
./stim/MorphF6_01_orig.jpg,2,,,,,0,2,2,2,,,,,,,,,,,,,,,,,,,-8.818359375,2.28515625,1,0,0,1.72504496574,,,,,2015_Nov_04_1911,A,facesParametric,17,59.6213734381,
./stim/MorphM8_06_orig.jpg,3,,,,,0,3,3,3,,,,,,,,,,,,,,,,,,,-8.84765625,2.314453125,0,0,1,5.68035697937,,,,,2015_Nov_04_1911,A,facesParametric,17,59.6213734381,
./stim/MorphF5_00_orig.jpg,4,,,,,0,4,4,4,,,,,,,,,,,,,,,,,,,-8.7890625,2.373046875,1,0,0,2.26120615005,,,,,2015_Nov_04_1911,A,facesParametric,17,59.6213734381,
./stim/MorphM9_01_orig.jpg,5,,,,,0,5,5,5,,,,,,,,,,,,,,,,,,,-8.7890625,2.373046875,1,0,0,1.6746108532,,,,,2015_Nov_04_1911,A,facesParametric,17,59.6213734381,
./stim/MorphF8_03_orig.jpg,6,,,,,0,6,6,6,,,,,,,,,,,,,,,,,,,-8.642578125,2.314453125,1,0,0,2.68037796021,,,,,2015_Nov_04_1911,A,facesParametric,17,59.6213734381,
./stim/MorphF9_01_orig.jpg,7,,,,,0,7,7,7,,,,,,,,,,,,,,,,,,,-8.642578125,2.314453125,1,0,0,1.1046898365,,,,,2015_Nov_04_1911,A,facesParametric,17,59.6213734381,
./stim/MorphM7_04_orig.jpg,8,,,,,0,8,8,8,,,,,,,,,,,,,,,,,,,-8.642578125,2.314453125,0,0,1,1.80902194977,,,,,2015_Nov_04_1911,A,facesParametric,17,59.6213734381,
./stim/MorphF4_03_orig.jpg,9,,,,,0,9,9,9,,,,,,,,,,,,,,,,,,,-8.5546875,2.314453125,1,0,0,1.69118189812,,,,,2015_Nov_04_1911,A,facesParametric,17,59.6213734381,
./stim/MorphF3_07_orig.jpg,10,,,,,0,10,10,10,,,,,,,,,,,,,,,,,,,-8.5546875,2.314453125,0,0,1,2.89830207825,,,,,2015_Nov_04_1911,A,facesParametric,17,59.6213734381,
./stim/MorphF4_05_orig.jpg,11,,,,,0,11,11,11,,,,,,,,,,,,,,,,,,,-8.5546875,2.314453125,1,0,0,2.54615902901,,,,,2015_Nov_04_1911,A,facesParametric,17,59.6213734381,
./stim/MorphM4_05_orig.jpg,12,,,,,0,12,12,12,,,,,,,,,,,,,,,,,,,-8.525390625,2.34375,0,0,1,3.95402908325,,,,,2015_Nov_04_1911,A,facesParametric,17,59.6213734381,
./stim/MorphF2_08_orig.jpg,13,,,,,0,13,13,13,,,,,,,,,,,,,,,,,,,-8.3203125,2.28515625,0,0,1,1.72509908676,,,,,2015_Nov_04_1911,A,facesParametric,17,59.6213734381,
./stim/MorphM10_03_orig.jpg,14,,,,,0,14,14,14,,,,,,,,,,,,,,,,,,,-8.3203125,2.255859375,1,0,0,3.33388090134,,,,,2015_Nov_04_1911,A,facesParametric,17,59.6213734381,
./stim/MorphM8_00_orig.jpg,15,,,,,0,15,15,15,,,,,,,,,,,,,,,,,,,-8.3203125,2.255859375,1,0,0,2.27806591988,,,,,2015_Nov_04_1911,A,facesParametric,17,59.6213734381,
./stim/MorphM9_02_orig.jpg,16,,,,,0,16,16,16,,,,,,,,,,,,,,,,,,,-8.3203125,2.255859375,1,0,0,0.987557172775,,,,,2015_Nov_04_1911,A,facesParametric,17,59.6213734381,
./stim/MorphF4_01_orig.jpg,17,,,,,0,17,17,17,,,,,,,,,,,,,,,,,,,-8.3203125,2.255859375,1,0,0,1.00440883636,,,,,2015_Nov_04_1911,A,facesParametric,17,59.6213734381,
./stim/MorphF10_04_orig.jpg,18,,,,,0,18,18,18,,,,,,,,,,,,,,,,,,,-8.3203125,2.255859375,0,0,1,1.62437081337,,,,,2015_Nov_04_1911,A,facesParametric,17,59.6213734381,
./stim/MorphF3_05_orig.jpg,19,,,,,0,19,19,19,,,,,,,,,,,,,,,,,,,-8.3203125,2.255859375,0,0,1,6.38415694237,,,,,2015_Nov_04_1911,A,facesParametric,17,59.6213734381,
./stim/MorphM7_06_orig.jpg,20,,,,,0,20,20,20,,,,,,,,,,,,,,,,,,,-8.3203125,2.255859375,0,0,1,1.97641682625,,,,,2015_Nov_04_1911,A,facesParametric,17,59.6213734381,
./stim/MorphM1_10_orig.jpg,21,,,,,0,21,21,21,,,,,,,,,,,,,,,,,,,-8.173828125,2.34375,0,0,1,6.33395195007,,,,,2015_Nov_04_1911,A,facesParametric,17,59.6213734381,
./stim/MorphF7_07_orig.jpg,22,,,,,0,22,22,22,,,,,,,,,,,,,,,,,,,-8.203125,2.373046875,0,0,1,3.48476600647,,,,,2015_Nov_04_1911,A,facesParametric,17,59.6213734381,
./stim/MorphM7_00_orig.jpg,23,,,,,0,23,23,23,,,,,,,,,,,,,,,,,,,-8.408203125,2.373046875,1,0,0,1.59090018272,,,,,2015_Nov_04_1911,A,facesParametric,17,59.6213734381,
./stim/MorphM8_02_orig.jpg,24,,,,,0,24,24,24,,,,,,,,,,,,,,,,,,,-8.232421875,2.75390625,1,0,0,2.84792399406,,,,,2015_Nov_04_1911,A,facesParametric,17,59.6213734381,
./stim/MorphF7_09_orig.jpg,25,,,,,0,25,25,25,,,,,,,,,,,,,,,,,,,-8.232421875,2.75390625,0,0,1,1.08816003799,,,,,2015_Nov_04_1911,A,facesParametric,17,59.6213734381,
./stim/MorphM1_01_orig.jpg,26,,,,,0,26,26,26,,,,,,,,,,,,,,,,,,,-8.232421875,2.75390625,1,0,0,1.87583994865,,,,,2015_Nov_04_1911,A,facesParametric,17,59.6213734381,
./stim/MorphF8_07_orig.jpg,27,,,,,0,27,27,27,,,,,,,,,,,,,,,,,,,-8.232421875,2.75390625,0,0,1,1.44003200531,,,,,2015_Nov_04_1911,A,facesParametric,17,59.6213734381,
./stim/MorphM1_08_orig.jpg,28,,,,,0,28,28,28,,,,,,,,,,,,,,,,,,,-8.232421875,2.75390625,1,0,0,3.48474001884,,,,,2015_Nov_04_1911,A,facesParametric,17,59.6213734381,
./stim/MorphF8_02_orig.jpg,29,,,,,0,29,29,29,,,,,,,,,,,,,,,,,,,-8.232421875,2.75390625,1,0,0,3.18313097954,,,,,2015_Nov_04_1911,A,facesParametric,17,59.6213734381,
./stim/MorphF7_00_orig.jpg,30,,,,,0,30,30,30,,,,,,,,,,,,,,,,,,,-8.232421875,2.75390625,1,0,0,1.12161493301,,,,,2015_Nov_04_1911,A,facesParametric,17,59.6213734381,
./stim/MorphF4_08_orig.jpg,31,,,,,0,31,31,31,,,,,,,,,,,,,,,,,,,-8.232421875,2.75390625,0,0,1,2.71435904503,,,,,2015_Nov_04_1911,A,facesParametric,17,59.6213734381,
./stim/MorphM10_00_orig.jpg,32,,,,,0,32,32,32,,,,,,,,,,,,,,,,,,,-8.232421875,2.75390625,1,0,0,3.55095005035,,,,,2015_Nov_04_1911,A,facesParametric,17,59.6213734381,
./stim/MorphM4_01_orig.jpg,33,,,,,0,33,33,33,,,,,,,,,,,,,,,,,,,-8.232421875,2.75390625,1,0,0,1.39003801346,,,,,2015_Nov_04_1911,A,facesParametric,17,59.6213734381,
./stim/MorphF9_00_orig.jpg,34,,,,,0,34,34,34,,,,,,,,,,,,,,,,,,,-8.232421875,2.75390625,1,0,0,1.3560731411,,,,,2015_Nov_04_1911,A,facesParametric,17,59.6213734381,
./stim/MorphM7_03_orig.jpg,35,,,,,0,35,35,35,,,,,,,,,,,,,,,,,,,-8.232421875,2.75390625,0,0,1,2.29483914375,,,,,2015_Nov_04_1911,A,facesParametric,17,59.6213734381,
./stim/MorphM4_04_orig.jpg,36,,,,,0,36,36,36,,,,,,,,,,,,,,,,,,,-8.232421875,2.75390625,0,0,1,3.25017499924,,,,,2015_Nov_04_1911,A,facesParametric,17,59.6213734381,
./stim/MorphF4_10_orig.jpg,37,,,,,0,37,37,37,,,,,,,,,,,,,,,,,,,-8.232421875,2.75390625,0,0,1,2.79733800888,,,,,2015_Nov_04_1911,A,facesParametric,17,59.6213734381,
./stim/MorphF1_04_orig.jpg,38,,,,,0,38,38,38,,,,,,,,,,,,,,,,,,,-8.26171875,2.783203125,1,0,0,1.95974302292,,,,,2015_Nov_04_1911,A,facesParametric,17,59.6213734381,
./stim/MorphM5_05_orig.jpg,39,,,,,0,39,39,39,,,,,,,,,,,,,,,,,,,-8.26171875,2.783203125,0,0,1,3.08263492584,,,,,2015_Nov_04_1911,A,facesParametric,17,59.6213734381,
./stim/MorphM9_05_orig.jpg,40,,,,,0,40,40,40,,,,,,,,,,,,,,,,,,,-8.26171875,2.783203125,1,0,0,4.64099597931,,,,,2015_Nov_04_1911,A,facesParametric,17,59.6213734381,
./stim/MorphM6_00_orig.jpg,41,,,,,0,41,41,41,,,,,,,,,,,,,,,,,,,-8.26171875,2.783203125,1,0,0,1.90945911407,,,,,2015_Nov_04_1911,A,facesParametric,17,59.6213734381,
./stim/MorphM1_04_orig.jpg,42,,,,,0,42,42,42,,,,,,,,,,,,,,,,,,,-8.26171875,2.783203125,1,0,0,4.52393603325,,,,,2015_Nov_04_1911,A,facesParametric,17,59.6213734381,
./stim/MorphF8_04_orig.jpg,43,,,,,0,43,43,43,,,,,,,,,,,,,,,,,,,-8.26171875,2.783203125,1,0,0,2.93167281151,,,,,2015_Nov_04_1911,A,facesParametric,17,59.6213734381,
./stim/MorphM8_10_orig.jpg,44,,,,,0,44,44,44,,,,,,,,,,,,,,,,,,,-8.26171875,2.783203125,0,0,1,1.02099084854,,,,,2015_Nov_04_1911,A,facesParametric,17,59.6213734381,
./stim/MorphM4_06_orig.jpg,45,,,,,0,45,45,45,,,,,,,,,,,,,,,,,,,-8.26171875,2.783203125,0,0,1,1.47357296944,,,,,2015_Nov_04_1911,A,facesParametric,17,59.6213734381,
./stim/MorphM6_03_orig.jpg,46,,,,,0,46,46,46,,,,,,,,,,,,,,,,,,,-8.26171875,2.783203125,1,0,0,1.44015192986,,,,,2015_Nov_04_1911,A,facesParametric,17,59.6213734381,
./stim/MorphM5_04_orig.jpg,47,,,,,0,47,47,47,,,,,,,,,,,,,,,,,,,-8.26171875,2.783203125,1,0,0,10.4902470112,,,,,2015_Nov_04_1911,A,facesParametric,17,59.6213734381,
./stim/MorphF4_00_orig.jpg,48,,,,,0,48,48,48,,,,,,,,,,,,,,,,,,,-8.291015625,2.75390625,1,0,0,1.17195010185,,,,,2015_Nov_04_1911,A,facesParametric,17,59.6213734381,
./stim/MorphF3_01_orig.jpg,49,,,,,0,49,49,49,,,,,,,,,,,,,,,,,,,-8.291015625,2.75390625,1,0,0,1.65794801712,,,,,2015_Nov_04_1911,A,facesParametric,17,59.6213734381,
./stim/MorphF10_01_orig.jpg,50,,,,,0,50,50,50,,,,,,,,,,,,,,,,,,,-8.291015625,2.75390625,1,0,0,4.43993091583,,,,,2015_Nov_04_1911,A,facesParametric,17,59.6213734381,
./stim/MorphM10_01_orig.jpg,51,,,,,0,51,51,51,,,,,,,,,,,,,,,,,,,-8.291015625,2.75390625,1,0,0,1.27261710167,,,,,2015_Nov_04_1911,A,facesParametric,17,59.6213734381,
./stim/MorphF1_02_orig.jpg,52,,,,,0,52,52,52,,,,,,,,,,,,,,,,,,,-8.291015625,2.75390625,1,0,0,1.35619688034,,,,,2015_Nov_04_1911,A,facesParametric,17,59.6213734381,
./stim/MorphF7_03_orig.jpg,53,,,,,0,53,53,53,,,,,,,,,,,,,,,,,,,-8.291015625,2.75390625,0,0,1,1.62452697754,,,,,2015_Nov_04_1911,A,facesParametric,17,59.6213734381,
./stim/MorphM4_09_orig.jpg,54,,,,,0,54,54,54,,,,,,,,,,,,,,,,,,,-8.291015625,2.75390625,0,0,1,1.22215199471,,,,,2015_Nov_04_1911,A,facesParametric,17,59.6213734381,
./stim/MorphM9_07_orig.jpg,55,,,,,0,55,55,55,,,,,,,,,,,,,,,,,,,-8.3203125,2.841796875,0,0,1,2.94842100143,,,,,2015_Nov_04_1911,A,facesParametric,17,59.6213734381,
./stim/MorphM3_05_orig.jpg,56,,,,,0,56,56,56,,,,,,,,,,,,,,,,,,,-8.3203125,2.841796875,0,0,1,1.4065592289,,,,,2015_Nov_04_1911,A,facesParametric,17,59.6213734381,
./stim/MorphF9_03_orig.jpg,57,,,,,0,57,57,57,,,,,,,,,,,,,,,,,,,-8.3203125,2.841796875,1,0,0,2.31162595749,,,,,2015_Nov_04_1911,A,facesParametric,17,59.6213734381,
./stim/MorphM5_00_orig.jpg,58,,,,,0,58,58,58,,,,,,,,,,,,,,,,,,,-8.3203125,2.841796875,1,0,0,2.83109807968,,,,,2015_Nov_04_1911,A,facesParametric,17,59.6213734381,
./stim/MorphM9_00_orig.jpg,59,,,,,0,59,59,59,,,,,,,,,,,,,,,,,,,-8.3203125,2.841796875,1,0,0,1.07136201859,,,,,2015_Nov_04_1911,A,facesParametric,17,59.6213734381,
./stim/MorphF4_06_orig.jpg,60,,,,,0,60,60,60,,,,,,,,,,,,,,,,,,,-8.349609375,2.841796875,0,0,1,3.38414096832,,,,,2015_Nov_04_1911,A,facesParametric,17,59.6213734381,
./stim/MorphF1_06_orig.jpg,61,,,,,0,61,61,61,,,,,,,,,,,,,,,,,,,-8.115234375,3.3984375,0,0,1,4.37290692329,,,,,2015_Nov_04_1911,A,facesParametric,17,59.6213734381,
./stim/MorphF3_02_orig.jpg,62,,,,,0,62,62,62,,,,,,,,,,,,,,,,,,,-8.115234375,3.3984375,1,0,0,3.33385396004,,,,,2015_Nov_04_1911,A,facesParametric,17,59.6213734381,
./stim/MorphF8_10_orig.jpg,63,,,,,0,63,63,63,,,,,,,,,,,,,,,,,,,-8.115234375,3.3984375,0,0,1,1.05473303795,,,,,2015_Nov_04_1911,A,facesParametric,17,59.6213734381,
./stim/MorphF9_10_orig.jpg,64,,,,,0,64,64,64,,,,,,,,,,,,,,,,,,,-8.02734375,3.3984375,0,0,1,1.12170100212,,,,,2015_Nov_04_1911,A,facesParametric,17,59.6213734381,
./stim/MorphF2_04_orig.jpg,65,,,,,0,65,65,65,,,,,,,,,,,,,,,,,,,-8.02734375,3.3984375,1,0,0,1.82562017441,,,,,2015_Nov_04_1911,A,facesParametric,17,59.6213734381,
./stim/MorphF7_06_orig.jpg,66,,,,,0,66,66,66,,,,,,,,,,,,,,,,,,,-7.998046875,3.427734375,0,0,1,2.71380186081,,,,,2015_Nov_04_1911,A,facesParametric,17,59.6213734381,
./stim/MorphF1_03_orig.jpg,67,,,,,0,67,67,67,,,,,,,,,,,,,,,,,,,-8.056640625,3.3984375,1,0,0,1.75835514069,,,,,2015_Nov_04_1911,A,facesParametric,17,59.6213734381,
./stim/MorphF10_06_orig.jpg,68,,,,,0,68,68,68,,,,,,,,,,,,,,,,,,,-8.0859375,3.3984375,0,0,1,1.12192392349,,,,,2015_Nov_04_1911,A,facesParametric,17,59.6213734381,
./stim/MorphM6_05_orig.jpg,69,,,,,0,69,69,69,,,,,,,,,,,,,,,,,,,-8.14453125,3.33984375,1,0,0,1.75817298889,,,,,2015_Nov_04_1911,A,facesParametric,17,59.6213734381,
./stim/MorphF6_08_orig.jpg,70,,,,,0,70,70,70,,,,,,,,,,,,,,,,,,,-8.14453125,3.33984375,0,0,1,1.17196083069,,,,,2015_Nov_04_1911,A,facesParametric,17,59.6213734381,
./stim/MorphM3_07_orig.jpg,71,,,,,0,71,71,71,,,,,,,,,,,,,,,,,,,-8.14453125,3.33984375,0,0,1,9.66914582253,,,,,2015_Nov_04_1911,A,facesParametric,17,59.6213734381,
./stim/MorphF2_06_orig.jpg,72,,,,,0,72,72,72,,,,,,,,,,,,,,,,,,,-8.203125,3.310546875,0,0,1,1.7584271431,,,,,2015_Nov_04_1911,A,facesParametric,17,59.6213734381,
./stim/MorphF5_06_orig.jpg,73,,,,,0,73,73,73,,,,,,,,,,,,,,,,,,,-8.173828125,3.310546875,0,0,1,3.70273709297,,,,,2015_Nov_04_1911,A,facesParametric,17,59.6213734381,
./stim/MorphF10_02_orig.jpg,74,,,,,0,74,74,74,,,,,,,,,,,,,,,,,,,-8.203125,3.28125,1,0,0,1.57414221764,,,,,2015_Nov_04_1911,A,facesParametric,17,59.6213734381,
./stim/MorphF7_05_orig.jpg,75,,,,,0,75,75,75,,,,,,,,,,,,,,,,,,,-8.232421875,3.310546875,0,0,1,6.5685479641,,,,,2015_Nov_04_1911,A,facesParametric,17,59.6213734381,
./stim/MorphF1_05_orig.jpg,76,,,,,0,76,76,76,,,,,,,,,,,,,,,,,,,-8.26171875,3.310546875,1,0,0,1.89257907867,,,,,2015_Nov_04_1911,A,facesParametric,17,59.6213734381,
./stim/MorphF4_02_orig.jpg,77,,,,,0,77,77,77,,,,,,,,,,,,,,,,,,,-8.26171875,3.310546875,1,0,0,1.55736899376,,,,,2015_Nov_04_1911,A,facesParametric,17,59.6213734381,
./stim/MorphF10_07_orig.jpg,78,,,,,0,78,78,78,,,,,,,,,,,,,,,,,,,-8.291015625,3.33984375,0,0,1,1.23902106285,,,,,2015_Nov_04_1911,A,facesParametric,17,59.6213734381,
./stim/MorphM5_09_orig.jpg,79,,,,,0,79,79,79,,,,,,,,,,,,,,,,,,,-8.349609375,3.310546875,0,0,1,1.32278013229,,,,,2015_Nov_04_1911,A,facesParametric,17,59.6213734381,
./stim/MorphF2_10_orig.jpg,80,,,,,0,80,80,80,,,,,,,,,,,,,,,,,,,-8.466796875,3.28125,0,0,1,2.27799391747,,,,,2015_Nov_04_1911,A,facesParametric,17,59.6213734381,
./stim/MorphM6_02_orig.jpg,81,,,,,0,81,81,81,,,,,,,,,,,,,,,,,,,-8.4375,3.28125,1,0,0,3.19975996017,,,,,2015_Nov_04_1911,A,facesParametric,17,59.6213734381,
./stim/MorphM3_01_orig.jpg,82,,,,,0,82,82,82,,,,,,,,,,,,,,,,,,,-8.408203125,3.310546875,1,0,0,2.02675199509,,,,,2015_Nov_04_1911,A,facesParametric,17,59.6213734381,
./stim/MorphF6_10_orig.jpg,83,,,,,0,83,83,83,,,,,,,,,,,,,,,,,,,-8.408203125,3.310546875,0,0,1,0.953946113586,,,,,2015_Nov_04_1911,A,facesParametric,17,59.6213734381,
./stim/MorphM2_03_orig.jpg,84,,,,,0,84,84,84,,,,,,,,,,,,,,,,,,,-8.3203125,3.3984375,1,0,0,1.3731379509,,,,,2015_Nov_04_1911,A,facesParametric,17,59.6213734381,
./stim/MorphM5_08_orig.jpg,85,,,,,0,85,85,85,,,,,,,,,,,,,,,,,,,-8.3203125,3.3984375,0,0,1,1.10496807098,,,,,2015_Nov_04_1911,A,facesParametric,17,59.6213734381,
./stim/MorphM10_08_orig.jpg,86,,,,,0,86,86,86,,,,,,,,,,,,,,,,,,,-8.232421875,3.369140625,0,0,1,1.10467791557,,,,,2015_Nov_04_1911,A,facesParametric,17,59.6213734381,
./stim/MorphM3_03_orig.jpg,87,,,,,0,87,87,87,,,,,,,,,,,,,,,,,,,-8.291015625,3.33984375,1,0,0,1.27241921425,,,,,2015_Nov_04_1911,A,facesParametric,17,59.6213734381,
./stim/MorphM7_05_orig.jpg,88,,,,,0,88,88,88,,,,,,,,,,,,,,,,,,,-8.26171875,3.369140625,0,0,1,1.44004487991,,,,,2015_Nov_04_1911,A,facesParametric,17,59.6213734381,
./stim/MorphF1_01_orig.jpg,89,,,,,0,89,89,89,,,,,,,,,,,,,,,,,,,-8.3203125,3.33984375,1,0,0,1.42330884933,,,,,2015_Nov_04_1911,A,facesParametric,17,59.6213734381,
./stim/MorphM1_05_orig.jpg,90,,,,,0,90,90,90,,,,,,,,,,,,,,,,,,,-8.3203125,3.33984375,1,0,0,2.39541482925,,,,,2015_Nov_04_1911,A,facesParametric,17,59.6213734381,
./stim/MorphF10_05_orig.jpg,91,,,,,0,91,91,91,,,,,,,,,,,,,,,,,,,-8.3203125,3.33984375,0,0,1,1.65789985657,,,,,2015_Nov_04_1911,A,facesParametric,17,59.6213734381,
./stim/MorphM8_04_orig.jpg,92,,,,,0,92,92,92,,,,,,,,,,,,,,,,,,,-8.232421875,3.369140625,1,0,0,2.79758501053,,,,,2015_Nov_04_1911,A,facesParametric,17,59.6213734381,
./stim/MorphF10_03_orig.jpg,93,,,,,0,93,93,93,,,,,,,,,,,,,,,,,,,-8.232421875,3.369140625,1,0,0,3.23336601257,,,,,2015_Nov_04_1911,A,facesParametric,17,59.6213734381,
./stim/MorphF6_06_orig.jpg,94,,,,,0,94,94,94,,,,,,,,,,,,,,,,,,,-8.232421875,3.369140625,0,0,1,1.6747379303,,,,,2015_Nov_04_1911,A,facesParametric,17,59.6213734381,
./stim/MorphF7_04_orig.jpg,95,,,,,0,95,95,95,,,,,,,,,,,,,,,,,,,-8.14453125,3.3984375,0,0,1,1.20545601845,,,,,2015_Nov_04_1911,A,facesParametric,17,59.6213734381,
./stim/MorphM6_04_orig.jpg,96,,,,,0,96,96,96,,,,,,,,,,,,,,,,,,,-8.173828125,3.3984375,1,0,0,1.72483205795,,,,,2015_Nov_04_1911,A,facesParametric,17,59.6213734381,
./stim/MorphM8_03_orig.jpg,97,,,,,0,97,97,97,,,,,,,,,,,,,,,,,,,-8.203125,3.369140625,1,0,0,1.80890798569,,,,,2015_Nov_04_1911,A,facesParametric,17,59.6213734381,
./stim/MorphM5_06_orig.jpg,98,,,,,0,98,98,98,,,,,,,,,,,,,,,,,,,-8.203125,3.369140625,0,0,1,1.38986897469,,,,,2015_Nov_04_1911,A,facesParametric,17,59.6213734381,
./stim/MorphM7_01_orig.jpg,99,,,,,0,99,99,99,,,,,,,,,,,,,,,,,,,-8.291015625,3.369140625,1,0,0,6.97084593773,,,,,2015_Nov_04_1911,A,facesParametric,17,59.6213734381,
./stim/MorphM1_06_orig.jpg,100,,,,,0,100,100,100,,,,,,,,,,,,,,,,,,,-8.291015625,3.369140625,1,0,0,9.21627783775,,,,,2015_Nov_04_1911,A,facesParametric,17,59.6213734381,
./stim/MorphM4_10_orig.jpg,101,,,,,0,101,101,101,,,,,,,,,,,,,,,,,,,-8.291015625,3.369140625,0,0,1,1.08848285675,,,,,2015_Nov_04_1911,A,facesParametric,17,59.6213734381,
./stim/MorphM9_03_orig.jpg,102,,,,,0,102,102,102,,,,,,,,,,,,,,,,,,,-8.232421875,3.427734375,1,0,0,1.38957881927,,,,,2015_Nov_04_1911,A,facesParametric,17,59.6213734381,
./stim/MorphM10_04_orig.jpg,103,,,,,0,103,103,103,,,,,,,,,,,,,,,,,,,-8.26171875,3.3984375,0,0,1,1.03786802292,,,,,2015_Nov_04_1911,A,facesParametric,17,59.6213734381,
./stim/MorphF2_01_orig.jpg,104,,,,,0,104,104,104,,,,,,,,,,,,,,,,,,,-8.26171875,3.427734375,1,0,0,1.32275390625,,,,,2015_Nov_04_1911,A,facesParametric,17,59.6213734381,
./stim/MorphM3_00_orig.jpg,105,,,,,0,105,105,105,,,,,,,,,,,,,,,,,,,-8.26171875,3.427734375,1,0,0,1.82556915283,,,,,2015_Nov_04_1911,A,facesParametric,17,59.6213734381,
./stim/MorphM7_09_orig.jpg,106,,,,,0,106,106,106,,,,,,,,,,,,,,,,,,,-8.26171875,3.427734375,0,0,1,0.97088599205,,,,,2015_Nov_04_1911,A,facesParametric,17,59.6213734381,
./stim/MorphM1_02_orig.jpg,107,,,,,0,107,107,107,,,,,,,,,,,,,,,,,,,-8.26171875,3.427734375,1,0,0,1.45682191849,,,,,2015_Nov_04_1911,A,facesParametric,17,59.6213734381,
./stim/MorphM2_08_orig.jpg,108,,,,,0,108,108,108,,,,,,,,,,,,,,,,,,,-8.232421875,3.427734375,0,0,1,1.84229302406,,,,,2015_Nov_04_1911,A,facesParametric,17,59.6213734381,
./stim/MorphF9_07_orig.jpg,109,,,,,0,109,109,109,,,,,,,,,,,,,,,,,,,-8.349609375,3.45703125,0,0,1,2.47921705246,,,,,2015_Nov_04_1911,A,facesParametric,17,59.6213734381,
./stim/MorphM10_07_orig.jpg,110,,,,,0,110,110,110,,,,,,,,,,,,,,,,,,,-8.408203125,3.427734375,0,0,1,0.769665956497,,,,,2015_Nov_04_1911,A,facesParametric,17,59.6213734381,
./stim/MorphF5_07_orig.jpg,111,,,,,0,111,111,111,,,,,,,,,,,,,,,,,,,-8.4375,3.3984375,0,0,1,1.15513205528,,,,,2015_Nov_04_1911,A,facesParametric,17,59.6213734381,
./stim/MorphF3_03_orig.jpg,112,,,,,0,112,112,112,,,,,,,,,,,,,,,,,,,-8.4375,3.3984375,1,0,0,1.13840508461,,,,,2015_Nov_04_1911,A,facesParametric,17,59.6213734381,
./stim/MorphM2_05_orig.jpg,113,,,,,0,113,113,113,,,,,,,,,,,,,,,,,,,-8.408203125,3.427734375,1,0,0,4.69105887413,,,,,2015_Nov_04_1911,A,facesParametric,17,59.6213734381,
./stim/MorphF1_08_orig.jpg,114,,,,,0,114,114,114,,,,,,,,,,,,,,,,,,,-8.525390625,3.45703125,0,0,1,1.37323379517,,,,,2015_Nov_04_1911,A,facesParametric,17,59.6213734381,
./stim/MorphF10_08_orig.jpg,115,,,,,0,115,115,115,,,,,,,,,,,,,,,,,,,-8.525390625,3.45703125,0,0,1,1.30556797981,,,,,2015_Nov_04_1911,A,facesParametric,17,59.6213734381,
./stim/MorphF1_00_orig.jpg,116,,,,,0,116,116,116,,,,,,,,,,,,,,,,,,,-8.49609375,3.45703125,1,0,0,0.920454025269,,,,,2015_Nov_04_1911,A,facesParametric,17,59.6213734381,
./stim/MorphF9_09_orig.jpg,117,,,,,0,117,117,117,,,,,,,,,,,,,,,,,,,-8.4375,3.486328125,0,0,1,1.38970899582,,,,,2015_Nov_04_1911,A,facesParametric,17,59.6213734381,
./stim/MorphF2_07_orig.jpg,118,,,,,0,118,118,118,,,,,,,,,,,,,,,,,,,-8.5546875,3.3984375,0,0,1,0.819944143295,,,,,2015_Nov_04_1911,A,facesParametric,17,59.6213734381,
./stim/MorphF3_04_orig.jpg,119,,,,,0,119,119,119,,,,,,,,,,,,,,,,,,,-8.5546875,3.427734375,1,0,0,2.02661705017,,,,,2015_Nov_04_1911,A,facesParametric,17,59.6213734381,
./stim/MorphM10_06_orig.jpg,120,,,,,0,120,120,120,,,,,,,,,,,,,,,,,,,-8.61328125,3.45703125,0,0,1,0.903671979904,,,,,2015_Nov_04_1911,A,facesParametric,17,59.6213734381,
./stim/MorphM6_09_orig.jpg,121,,,,,0,121,121,121,,,,,,,,,,,,,,,,,,,-8.642578125,3.45703125,0,0,1,2.22778081894,,,,,2015_Nov_04_1911,A,facesParametric,17,59.6213734381,
./stim/MorphM8_01_orig.jpg,122,,,,,0,122,122,122,,,,,,,,,,,,,,,,,,,-8.61328125,3.45703125,1,0,0,1.57383799553,,,,,2015_Nov_04_1911,A,facesParametric,17,59.6213734381,
./stim/MorphF5_03_orig.jpg,123,,,,,0,123,123,123,,,,,,,,,,,,,,,,,,,-8.61328125,3.45703125,1,0,0,1.52376413345,,,,,2015_Nov_04_1911,A,facesParametric,17,59.6213734381,
./stim/MorphF4_04_orig.jpg,124,,,,,0,124,124,124,,,,,,,,,,,,,,,,,,,-8.583984375,3.486328125,1,0,0,1.64119791985,,,,,2015_Nov_04_1911,A,facesParametric,17,59.6213734381,
./stim/MorphM2_04_orig.jpg,125,,,,,0,125,125,125,,,,,,,,,,,,,,,,,,,-8.583984375,3.486328125,1,0,0,1.9426779747,,,,,2015_Nov_04_1911,A,facesParametric,17,59.6213734381,
./stim/MorphF2_02_orig.jpg,126,,,,,0,126,126,126,,,,,,,,,,,,,,,,,,,-8.583984375,3.486328125,1,0,0,0.920629024506,,,,,2015_Nov_04_1911,A,facesParametric,17,59.6213734381,
./stim/MorphM3_04_orig.jpg,127,,,,,0,127,127,127,,,,,,,,,,,,,,,,,,,-8.583984375,3.486328125,0,0,1,1.47350120544,,,,,2015_Nov_04_1911,A,facesParametric,17,59.6213734381,
./stim/MorphM10_09_orig.jpg,128,,,,,0,128,128,128,,,,,,,,,,,,,,,,,,,-8.583984375,3.486328125,0,0,1,0.819780826569,,,,,2015_Nov_04_1911,A,facesParametric,17,59.6213734381,
./stim/MorphF9_06_orig.jpg,129,,,,,0,129,129,129,,,,,,,,,,,,,,,,,,,-8.49609375,3.57421875,1,0,0,1.35613799095,,,,,2015_Nov_04_1911,A,facesParametric,17,59.6213734381,
./stim/MorphM2_02_orig.jpg,130,,,,,0,130,130,130,,,,,,,,,,,,,,,,,,,-8.49609375,3.57421875,1,0,0,1.15500807762,,,,,2015_Nov_04_1911,A,facesParametric,17,59.6213734381,
./stim/MorphF8_09_orig.jpg,131,,,,,0,131,131,131,,,,,,,,,,,,,,,,,,,-8.49609375,3.57421875,0,0,1,0.719312906265,,,,,2015_Nov_04_1911,A,facesParametric,17,59.6213734381,
./stim/MorphM3_08_orig.jpg,132,,,,,0,132,132,132,,,,,,,,,,,,,,,,,,,-8.4375,3.6328125,0,0,1,0.803129911423,,,,,2015_Nov_04_1911,A,facesParametric,17,59.6213734381,
./stim/MorphF5_09_orig.jpg,133,,,,,0,133,133,133,,,,,,,,,,,,,,,,,,,-8.37890625,3.603515625,0,0,1,0.853427886963,,,,,2015_Nov_04_1911,A,facesParametric,17,59.6213734381,
./stim/MorphF9_08_orig.jpg,134,,,,,0,134,134,134,,,,,,,,,,,,,,,,,,,-8.349609375,3.603515625,0,0,1,0.886369943619,,,,,2015_Nov_04_1911,A,facesParametric,17,59.6213734381,
./stim/MorphM9_04_orig.jpg,135,,,,,0,135,135,135,,,,,,,,,,,,,,,,,,,-8.232421875,3.603515625,1,0,0,1.69153594971,,,,,2015_Nov_04_1911,A,facesParametric,17,59.6213734381,
./stim/MorphM3_06_orig.jpg,136,,,,,0,136,136,136,,,,,,,,,,,,,,,,,,,-8.232421875,3.603515625,0,0,1,0.970695972443,,,,,2015_Nov_04_1911,A,facesParametric,17,59.6213734381,
./stim/MorphF1_07_orig.jpg,137,,,,,0,137,137,137,,,,,,,,,,,,,,,,,,,-8.26171875,3.544921875,1,0,0,1.89250397682,,,,,2015_Nov_04_1911,A,facesParametric,17,59.6213734381,
./stim/MorphF5_10_orig.jpg,138,,,,,0,138,138,138,,,,,,,,,,,,,,,,,,,-8.291015625,3.603515625,0,0,1,0.987610816956,,,,,2015_Nov_04_1911,A,facesParametric,17,59.6213734381,
./stim/MorphM1_03_orig.jpg,139,,,,,0,139,139,139,,,,,,,,,,,,,,,,,,,-8.61328125,3.603515625,1,0,0,1.15494680405,,,,,2015_Nov_04_1911,A,facesParametric,17,59.6213734381,
./stim/MorphF8_00_orig.jpg,140,,,,,0,140,140,140,,,,,,,,,,,,,,,,,,,-8.61328125,3.603515625,1,0,0,0.92050909996,,,,,2015_Nov_04_1911,A,facesParametric,17,59.6213734381,
./stim/MorphM7_08_orig.jpg,141,,,,,0,141,141,141,,,,,,,,,,,,,,,,,,,-8.61328125,3.603515625,0,0,1,0.73622918129,,,,,2015_Nov_04_1911,A,facesParametric,17,59.6213734381,
./stim/MorphM3_10_orig.jpg,142,,,,,0,142,142,142,,,,,,,,,,,,,,,,,,,-8.73046875,3.57421875,0,0,1,1.08767294884,,,,,2015_Nov_04_1911,A,facesParametric,17,59.6213734381,
./stim/MorphF6_04_orig.jpg,143,,,,,0,143,143,143,,,,,,,,,,,,,,,,,,,-8.642578125,3.57421875,1,0,0,5.93166399002,,,,,2015_Nov_04_1911,A,facesParametric,17,59.6213734381,
./stim/MorphM1_09_orig.jpg,144,,,,,0,144,144,144,,,,,,,,,,,,,,,,,,,-8.642578125,3.57421875,1,0,0,2.42878603935,,,,,2015_Nov_04_1911,A,facesParametric,17,59.6213734381,
./stim/MorphF6_02_orig.jpg,145,,,,,0,145,145,145,,,,,,,,,,,,,,,,,,,-8.642578125,3.57421875,1,0,0,3.25017499924,,,,,2015_Nov_04_1911,A,facesParametric,17,59.6213734381,
./stim/MorphF5_08_orig.jpg,146,,,,,0,146,146,146,,,,,,,,,,,,,,,,,,,-8.61328125,3.57421875,0,0,1,1.99326300621,,,,,2015_Nov_04_1911,A,facesParametric,17,59.6213734381,
./stim/MorphF2_03_orig.jpg,147,,,,,0,147,147,147,,,,,,,,,,,,,,,,,,,-8.583984375,3.544921875,1,0,0,1.2555770874,,,,,2015_Nov_04_1911,A,facesParametric,17,59.6213734381,
./stim/MorphM5_01_orig.jpg,148,,,,,0,148,148,148,,,,,,,,,,,,,,,,,,,-8.583984375,3.544921875,1,0,0,1.5238609314,,,,,2015_Nov_04_1911,A,facesParametric,17,59.6213734381,
./stim/MorphF10_09_orig.jpg,149,,,,,0,149,149,149,,,,,,,,,,,,,,,,,,,-8.5546875,3.544921875,0,0,1,1.05460000038,,,,,2015_Nov_04_1911,A,facesParametric,17,59.6213734381,
./stim/MorphF7_01_orig.jpg,150,,,,,0,150,150,150,,,,,,,,,,,,,,,,,,,-8.349609375,3.603515625,1,0,0,0.954051971436,,,,,2015_Nov_04_1911,A,facesParametric,17,59.6213734381,
./stim/MorphF10_00_orig.jpg,151,,,,,0,151,151,151,,,,,,,,,,,,,,,,,,,-8.26171875,3.603515625,1,0,0,1.64124679565,,,,,2015_Nov_04_1911,A,facesParametric,17,59.6213734381,
./stim/MorphF6_07_orig.jpg,152,,,,,0,152,152,152,,,,,,,,,,,,,,,,,,,-8.26171875,3.603515625,0,0,1,2.14393115044,,,,,2015_Nov_04_1911,A,facesParametric,17,59.6213734381,
./stim/MorphF8_06_orig.jpg,153,,,,,0,153,153,153,,,,,,,,,,,,,,,,,,,-8.291015625,3.544921875,0,0,1,0.786464929581,,,,,2015_Nov_04_1911,A,facesParametric,17,59.6213734381,
./stim/MorphM4_02_orig.jpg,154,,,,,0,154,154,154,,,,,,,,,,,,,,,,,,,-8.26171875,3.544921875,1,0,0,1.07143712044,,,,,2015_Nov_04_1911,A,facesParametric,17,59.6213734381,
./stim/MorphF10_10_orig.jpg,155,,,,,0,155,155,155,,,,,,,,,,,,,,,,,,,-8.26171875,3.544921875,0,0,1,0.685892105103,,,,,2015_Nov_04_1911,A,facesParametric,17,59.6213734381,
./stim/MorphF3_00_orig.jpg,156,,,,,0,156,156,156,,,,,,,,,,,,,,,,,,,-8.203125,3.515625,1,0,0,0.85351896286,,,,,2015_Nov_04_1911,A,facesParametric,17,59.6213734381,
./stim/MorphM7_10_orig.jpg,157,,,,,0,157,157,157,,,,,,,,,,,,,,,,,,,-8.232421875,3.515625,0,0,1,0.669135093689,,,,,2015_Nov_04_1911,A,facesParametric,17,59.6213734381,
./stim/MorphM5_07_orig.jpg,158,,,,,0,158,158,158,,,,,,,,,,,,,,,,,,,-8.232421875,3.486328125,0,0,1,0.853426933289,,,,,2015_Nov_04_1911,A,facesParametric,17,59.6213734381,
./stim/MorphF8_05_orig.jpg,159,,,,,0,159,159,159,,,,,,,,,,,,,,,,,,,-8.232421875,3.486328125,1,0,0,0.836753845215,,,,,2015_Nov_04_1911,A,facesParametric,17,59.6213734381,
./stim/MorphM1_07_orig.jpg,160,,,,,0,160,160,160,,,,,,,,,,,,,,,,,,,-8.4375,3.193359375,0,0,1,6.19988489151,,,,,2015_Nov_04_1911,A,facesParametric,17,59.6213734381,
./stim/MorphM6_08_orig.jpg,161,,,,,0,161,161,161,,,,,,,,,,,,,,,,,,,-8.26171875,2.841796875,0,0,1,1.22193193436,,,,,2015_Nov_04_1911,A,facesParametric,17,59.6213734381,
./stim/MorphM5_10_orig.jpg,162,,,,,0,162,162,162,,,,,,,,,,,,,,,,,,,-8.14453125,2.841796875,0,0,1,0.752611160278,,,,,2015_Nov_04_1911,A,facesParametric,17,59.6213734381,
./stim/MorphM4_03_orig.jpg,163,,,,,0,163,163,163,,,,,,,,,,,,,,,,,,,-8.14453125,2.87109375,1,0,0,1.00437498093,,,,,2015_Nov_04_1911,A,facesParametric,17,59.6213734381,
./stim/MorphF4_09_orig.jpg,164,,,,,0,164,164,164,,,,,,,,,,,,,,,,,,,-8.14453125,2.87109375,0,0,1,0.903690099716,,,,,2015_Nov_04_1911,A,facesParametric,17,59.6213734381,
./stim/MorphM8_09_orig.jpg,165,,,,,0,165,165,165,,,,,,,,,,,,,,,,,,,-8.056640625,2.900390625,0,0,1,0.853760957718,,,,,2015_Nov_04_1911,A,facesParametric,17,59.6213734381,
./stim/MorphF2_09_orig.jpg,166,,,,,0,166,166,166,,,,,,,,,,,,,,,,,,,-8.02734375,2.958984375,0,0,1,0.719184875488,,,,,2015_Nov_04_1911,A,facesParametric,17,59.6213734381,
./stim/MorphM6_06_orig.jpg,167,,,,,0,167,167,167,,,,,,,,,,,,,,,,,,,-7.96875,2.9296875,1,0,0,1.15497112274,,,,,2015_Nov_04_1911,A,facesParametric,17,59.6213734381,
./stim/MorphF1_10_orig.jpg,168,,,,,0,168,168,168,,,,,,,,,,,,,,,,,,,-7.96875,2.9296875,0,0,1,1.49025392532,,,,,2015_Nov_04_1911,A,facesParametric,17,59.6213734381,
./stim/MorphM6_10_orig.jpg,169,,,,,0,169,169,169,,,,,,,,,,,,,,,,,,,-7.8515625,3.017578125,0,0,1,1.17189717293,,,,,2015_Nov_04_1911,A,facesParametric,17,59.6213734381,
./stim/MorphM2_01_orig.jpg,170,,,,,0,170,170,170,,,,,,,,,,,,,,,,,,,-7.880859375,3.046875,1,0,0,0.953886985779,,,,,2015_Nov_04_1911,A,facesParametric,17,59.6213734381,
./stim/MorphF9_05_orig.jpg,171,,,,,0,171,171,171,,,,,,,,,,,,,,,,,,,-7.880859375,3.046875,1,0,0,1.44009995461,,,,,2015_Nov_04_1911,A,facesParametric,17,59.6213734381,
./stim/MorphF6_05_orig.jpg,172,,,,,0,172,172,172,,,,,,,,,,,,,,,,,,,-7.880859375,3.046875,0,0,1,1.03778481483,,,,,2015_Nov_04_1911,A,facesParametric,17,59.6213734381,
./stim/MorphM9_06_orig.jpg,173,,,,,0,173,173,173,,,,,,,,,,,,,,,,,,,-7.91015625,3.046875,1,0,0,3.11583709717,,,,,2015_Nov_04_1911,A,facesParametric,17,59.6213734381,
./stim/MorphM10_05_orig.jpg,174,,,,,0,174,174,174,,,,,,,,,,,,,,,,,,,-7.91015625,3.046875,0,0,1,0.669234037399,,,,,2015_Nov_04_1911,A,facesParametric,17,59.6213734381,
./stim/MorphF6_09_orig.jpg,175,,,,,0,175,175,175,,,,,,,,,,,,,,,,,,,-7.822265625,3.1640625,0,0,1,0.769706010818,,,,,2015_Nov_04_1911,A,facesParametric,17,59.6213734381,
./stim/MorphF3_06_orig.jpg,176,,,,,0,176,176,176,,,,,,,,,,,,,,,,,,,-8.02734375,3.046875,0,0,1,1.55737900734,,,,,2015_Nov_04_1911,A,facesParametric,17,59.6213734381,
./stim/MorphM7_02_orig.jpg,177,,,,,0,177,177,177,,,,,,,,,,,,,,,,,,,-8.02734375,3.017578125,1,0,0,1.10485911369,,,,,2015_Nov_04_1911,A,facesParametric,17,59.6213734381,
./stim/MorphF5_02_orig.jpg,178,,,,,0,178,178,178,,,,,,,,,,,,,,,,,,,-1.728515625,-1.259765625,1,0,0,16.9928638935,,,,,2015_Nov_04_1911,A,facesParametric,17,59.6213734381,
./stim/MorphM10_02_orig.jpg,179,,,,,0,179,179,179,,,,,,,,,,,,,,,,,,,-1.728515625,-0.99609375,1,0,0,1.69154000282,,,,,2015_Nov_04_1911,A,facesParametric,17,59.6213734381,
./stim/MorphF8_01_orig.jpg,180,,,,,0,180,180,180,,,,,,,,,,,,,,,,,,,-1.728515625,-0.966796875,1,0,0,0.886968135834,,,,,2015_Nov_04_1911,A,facesParametric,17,59.6213734381,
./stim/MorphF7_02_orig.jpg,181,,,,,0,181,181,181,,,,,,,,,,,,,,,,,,,-0.498046875,7.763671875,1,0,0,10.8254709244,,,,,2015_Nov_04_1911,A,facesParametric,17,59.6213734381,
./stim/MorphF3_09_orig.jpg,182,,,,,0,182,182,182,,,,,,,,,,,,,,,,,,,-0.498046875,7.763671875,0,0,1,1.45682311058,,,,,2015_Nov_04_1911,A,facesParametric,17,59.6213734381,
./stim/MorphM2_00_orig.jpg,183,,,,,0,183,183,183,,,,,,,,,,,,,,,,,,,-0.52734375,7.67578125,1,0,0,0.870101928711,,,,,2015_Nov_04_1911,A,facesParametric,17,59.6213734381,
./stim/MorphF7_10_orig.jpg,184,,,,,0,184,184,184,,,,,,,,,,,,,,,,,,,-0.52734375,7.67578125,0,0,1,1.30599999428,,,,,2015_Nov_04_1911,A,facesParametric,17,59.6213734381,
./stim/MorphF5_04_orig.jpg,185,,,,,0,185,185,185,,,,,,,,,,,,,,,,,,,-0.52734375,7.67578125,1,0,0,1.13839507103,,,,,2015_Nov_04_1911,A,facesParametric,17,59.6213734381,
./stim/MorphM8_05_orig.jpg,186,,,,,0,186,186,186,,,,,,,,,,,,,,,,,,,-0.498046875,7.705078125,0,0,1,2.00994205475,,,,,2015_Nov_04_1911,A,facesParametric,17,59.6213734381,
./stim/MorphF4_07_orig.jpg,187,,,,,0,187,187,187,,,,,,,,,,,,,,,,,,,-0.498046875,7.55859375,0,0,1,6.33379507065,,,,,2015_Nov_04_1911,A,facesParametric,17,59.6213734381,
./stim/MorphM9_08_orig.jpg,188,,,,,0,188,188,188,,,,,,,,,,,,,,,,,,,-7.412109375,-0.05859375,0,0,1,13.8925340176,,,,,2015_Nov_04_1911,A,facesParametric,17,59.6213734381,
./stim/MorphM8_08_orig.jpg,189,,,,,0,189,189,189,,,,,,,,,,,,,,,,,,,-4.98046875,0.5859375,0,0,1,0.903771162033,,,,,2015_Nov_04_1911,A,facesParametric,17,59.6213734381,
./stim/MorphM7_07_orig.jpg,190,,,,,0,190,190,190,,,,,,,,,,,,,,,,,,,-0.17578125,-2.109375,0,0,1,1.60762310028,,,,,2015_Nov_04_1911,A,facesParametric,17,59.6213734381,
./stim/MorphF1_09_orig.jpg,191,,,,,0,191,191,191,,,,,,,,,,,,,,,,,,,1.2890625,-2.666015625,1,0,0,1.05466198921,,,,,2015_Nov_04_1911,A,facesParametric,17,59.6213734381,
./stim/MorphM3_02_orig.jpg,192,,,,,0,192,192,192,,,,,,,,,,,,,,,,,,,1.9921875,-1.904296875,1,0,0,6.1831240654,,,,,2015_Nov_04_1911,A,facesParametric,17,59.6213734381,
./stim/MorphM5_02_orig.jpg,193,,,,,0,193,193,193,,,,,,,,,,,,,,,,,,,2.05078125,-1.904296875,1,0,0,1.4233648777,,,,,2015_Nov_04_1911,A,facesParametric,17,59.6213734381,
./stim/MorphM2_07_orig.jpg,194,,,,,0,194,194,194,,,,,,,,,,,,,,,,,,,2.05078125,-1.904296875,0,0,1,1.07122993469,,,,,2015_Nov_04_1911,A,facesParametric,17,59.6213734381,
./stim/MorphF7_08_orig.jpg,195,,,,,0,195,195,195,,,,,,,,,,,,,,,,,,,2.05078125,-1.93359375,0,0,1,0.820070981979,,,,,2015_Nov_04_1911,A,facesParametric,17,59.6213734381,
./stim/MorphF9_04_orig.jpg,196,,,,,0,196,196,196,,,,,,,,,,,,,,,,,,,2.138671875,-1.93359375,1,0,0,1.8422369957,,,,,2015_Nov_04_1911,A,facesParametric,17,59.6213734381,
./stim/MorphM10_10_orig.jpg,197,,,,,0,197,197,197,,,,,,,,,,,,,,,,,,,2.138671875,-1.93359375,0,0,1,1.25611186028,,,,,2015_Nov_04_1911,A,facesParametric,17,59.6213734381,
./stim/MorphM2_10_orig.jpg,198,,,,,0,198,198,198,,,,,,,,,,,,,,,,,,,2.197265625,-1.93359375,0,0,1,0.668924093246,,,,,2015_Nov_04_1911,A,facesParametric,17,59.6213734381,
./stim/MorphF6_00_orig.jpg,199,,,,,0,199,199,199,,,,,,,,,,,,,,,,,,,2.28515625,-2.05078125,1,0,0,1.08718895912,,,,,2015_Nov_04_1911,A,facesParametric,17,59.6213734381,
./stim/MorphM9_10_orig.jpg,200,,,,,0,200,200,200,,,,,,,,,,,,,,,,,,,2.2265625,-1.962890625,0,0,1,0.702769041061,,,,,2015_Nov_04_1911,A,facesParametric,17,59.6213734381,
./stim/MorphM8_07_orig.jpg,201,,,,,0,201,201,201,,,,,,,,,,,,,,,,,,,2.255859375,-1.93359375,0,0,1,0.937037944794,,,,,2015_Nov_04_1911,A,facesParametric,17,59.6213734381,
./stim/MorphF3_10_orig.jpg,202,,,,,0,202,202,202,,,,,,,,,,,,,,,,,,,2.28515625,-1.845703125,0,0,1,1.42332100868,,,,,2015_Nov_04_1911,A,facesParametric,17,59.6213734381,
./stim/MorphM4_00_orig.jpg,203,,,,,0,203,203,203,,,,,,,,,,,,,,,,,,,2.314453125,-1.962890625,1,0,0,0.836688041687,,,,,2015_Nov_04_1911,A,facesParametric,17,59.6213734381,
./stim/MorphF3_08_orig.jpg,204,,,,,0,204,204,204,,,,,,,,,,,,,,,,,,,2.373046875,-1.845703125,0,0,1,0.886996984482,,,,,2015_Nov_04_1911,A,facesParametric,17,59.6213734381,
./stim/MorphF5_05_orig.jpg,205,,,,,0,205,205,205,,,,,,,,,,,,,,,,,,,2.40234375,-1.81640625,1,0,0,1.12165498734,,,,,2015_Nov_04_1911,A,facesParametric,17,59.6213734381,
./stim/MorphF8_08_orig.jpg,206,,,,,0,206,206,206,,,,,,,,,,,,,,,,,,,2.373046875,-1.845703125,0,0,1,0.752907991409,,,,,2015_Nov_04_1911,A,facesParametric,17,59.6213734381,
./stim/MorphM3_09_orig.jpg,207,,,,,0,207,207,207,,,,,,,,,,,,,,,,,,,2.34375,-1.875,0,0,1,1.49037289619,,,,,2015_Nov_04_1911,A,facesParametric,17,59.6213734381,
./stim/MorphM5_03_orig.jpg,208,,,,,0,208,208,208,,,,,,,,,,,,,,,,,,,2.431640625,-1.845703125,1,0,0,2.07659602165,,,,,2015_Nov_04_1911,A,facesParametric,17,59.6213734381,
./stim/MorphF2_00_orig.jpg,209,,,,,0,209,209,209,,,,,,,,,,,,,,,,,,,2.431640625,-1.845703125,1,0,0,1.2220389843,,,,,2015_Nov_04_1911,A,facesParametric,17,59.6213734381,
./stim/MorphM4_07_orig.jpg,210,,,,,0,210,210,210,,,,,,,,,,,,,,,,,,,2.40234375,-1.787109375,0,0,1,0.886948823929,,,,,2015_Nov_04_1911,A,facesParametric,17,59.6213734381,
./stim/MorphM1_00_orig.jpg,211,,,,,0,211,211,211,,,,,,,,,,,,,,,,,,,2.40234375,-1.845703125,1,0,0,2.17727804184,,,,,2015_Nov_04_1911,A,facesParametric,17,59.6213734381,
./stim/MorphM6_07_orig.jpg,212,,,,,0,212,212,212,,,,,,,,,,,,,,,,,,,2.40234375,-1.81640625,0,0,1,1.15513491631,,,,,2015_Nov_04_1911,A,facesParametric,17,59.6213734381,
./stim/MorphF5_01_orig.jpg,213,,,,,0,213,213,213,,,,,,,,,,,,,,,,,,,2.40234375,-1.7578125,1,0,0,1.03795003891,,,,,2015_Nov_04_1911,A,facesParametric,17,59.6213734381,
./stim/MorphM6_01_orig.jpg,214,,,,,0,214,214,214,,,,,,,,,,,,,,,,,,,2.431640625,-1.69921875,1,0,0,1.38959598541,,,,,2015_Nov_04_1911,A,facesParametric,17,59.6213734381,
./stim/MorphM9_09_orig.jpg,215,,,,,0,215,215,215,,,,,,,,,,,,,,,,,,,2.431640625,-1.640625,0,0,1,0.819926023483,,,,,2015_Nov_04_1911,A,facesParametric,17,59.6213734381,
./stim/MorphM2_09_orig.jpg,216,,,,,0,216,216,216,,,,,,,,,,,,,,,,,,,2.28515625,-1.5234375,0,0,1,2.42898702621,,,,,2015_Nov_04_1911,A,facesParametric,17,59.6213734381,
./stim/MorphF6_03_orig.jpg,217,,,,,0,217,217,217,,,,,,,,,,,,,,,,,,,2.34375,-1.81640625,1,0,0,1.8253288269,,,,,2015_Nov_04_1911,A,facesParametric,17,59.6213734381,
./stim/MorphM4_08_orig.jpg,218,,,,,0,218,218,218,,,,,,,,,,,,,,,,,,,2.373046875,-1.81640625,0,0,1,0.920376062393,,,,,2015_Nov_04_1911,A,facesParametric,17,59.6213734381,
./stim/MorphF2_05_orig.jpg,219,,,,,0,219,219,219,,,,,,,,,,,,,,,,,,,2.373046875,-1.611328125,0,0,1,8.12697505951,,,,,2015_Nov_04_1911,A,facesParametric,17,59.6213734381,
,,,,,,,,,,,,,,,,,,,,,,,,,,,,,,,,,,return,201.636116028,,,2015_Nov_04_1911,A,facesParametric,17,59.6213734381,
./stim/MorphF4_10_orig.jpg,0,,,,,,,,,0,0,0,0,,,,,,,,,,,,,,,-14.912109375,-11.748046875,0,0,1,5.33746600151,,,,,2015_Nov_04_1911,A,facesParametric,17,59.6213734381,
./stim/MorphF7_07_orig.jpg,1,,,,,,,,,0,1,1,1,,,,,,,,,,,,,,,-14.560546875,-11.162109375,1,0,0,2.64574790001,,,,,2015_Nov_04_1911,A,facesParametric,17,59.6213734381,
./stim/MorphM7_03_orig.jpg,2,,,,,,,,,0,2,2,2,,,,,,,,,,,,,,,-14.091796875,-11.3671875,1,0,0,8.41201019287,,,,,2015_Nov_04_1911,A,facesParametric,17,59.6213734381,
./stim/MorphF5_05_orig.jpg,3,,,,,,,,,0,3,3,3,,,,,,,,,,,,,,,-14.091796875,-11.30859375,1,0,0,1.44008994102,,,,,2015_Nov_04_1911,A,facesParametric,17,59.6213734381,
./stim/MorphM4_05_orig.jpg,4,,,,,,,,,0,4,4,4,,,,,,,,,,,,,,,-14.091796875,-11.30859375,0,0,1,1.5406870842,,,,,2015_Nov_04_1911,A,facesParametric,17,59.6213734381,
./stim/MorphM7_02_orig.jpg,5,,,,,,,,,0,5,5,5,,,,,,,,,,,,,,,-14.4140625,-11.220703125,0,0,1,4.52384996414,,,,,2015_Nov_04_1911,A,facesParametric,17,59.6213734381,
./stim/MorphF6_07_orig.jpg,6,,,,,,,,,0,6,6,6,,,,,,,,,,,,,,,-14.677734375,-10.95703125,0,0,1,3.11611199379,,,,,2015_Nov_04_1911,A,facesParametric,17,59.6213734381,
./stim/MorphF5_08_orig.jpg,7,,,,,,,,,0,7,7,7,,,,,,,,,,,,,,,-14.970703125,-11.015625,0,0,1,1.08852291107,,,,,2015_Nov_04_1911,A,facesParametric,17,59.6213734381,
./stim/MorphM7_04_orig.jpg,8,,,,,,,,,0,8,8,8,,,,,,,,,,,,,,,-14.912109375,-10.95703125,0,0,1,1.50631213188,,,,,2015_Nov_04_1911,A,facesParametric,17,59.6213734381,
./stim/MorphM2_02_orig.jpg,9,,,,,,,,,0,9,9,9,,,,,,,,,,,,,,,-14.912109375,-10.95703125,1,0,0,0.970804929733,,,,,2015_Nov_04_1911,A,facesParametric,17,59.6213734381,
./stim/MorphM3_01_orig.jpg,10,,,,,,,,,0,10,10,10,,,,,,,,,,,,,,,-14.912109375,-10.95703125,0,0,1,1.38983297348,,,,,2015_Nov_04_1911,A,facesParametric,17,59.6213734381,
./stim/MorphM7_08_orig.jpg,11,,,,,,,,,0,11,11,11,,,,,,,,,,,,,,,-14.94140625,-10.927734375,0,0,1,2.64680719376,,,,,2015_Nov_04_1911,A,facesParametric,17,59.6213734381,
./stim/MorphM5_01_orig.jpg,12,,,,,,,,,0,12,12,12,,,,,,,,,,,,,,,-14.82421875,-10.927734375,1,0,0,2.57970809937,,,,,2015_Nov_04_1911,A,facesParametric,17,59.6213734381,
./stim/MorphM1_04_orig.jpg,13,,,,,,,,,0,13,13,13,,,,,,,,,,,,,,,-14.82421875,-10.927734375,1,0,0,2.73049688339,,,,,2015_Nov_04_1911,A,facesParametric,17,59.6213734381,
./stim/MorphF4_06_orig.jpg,14,,,,,,,,,0,14,14,14,,,,,,,,,,,,,,,-14.82421875,-10.927734375,0,0,1,1.55745887756,,,,,2015_Nov_04_1911,A,facesParametric,17,59.6213734381,
./stim/MorphM6_02_orig.jpg,15,,,,,,,,,0,15,15,15,,,,,,,,,,,,,,,-14.794921875,-10.927734375,1,0,0,4.47357010841,,,,,2015_Nov_04_1911,A,facesParametric,17,59.6213734381,
./stim/MorphF4_02_orig.jpg,16,,,,,,,,,0,16,16,16,,,,,,,,,,,,,,,-14.794921875,-10.927734375,1,0,0,1.07140111923,,,,,2015_Nov_04_1911,A,facesParametric,17,59.6213734381,
./stim/MorphM5_05_orig.jpg,17,,,,,,,,,0,17,17,17,,,,,,,,,,,,,,,-14.794921875,-10.927734375,0,0,1,3.65256404877,,,,,2015_Nov_04_1911,A,facesParametric,17,59.6213734381,
./stim/MorphM2_05_orig.jpg,18,,,,,,,,,0,18,18,18,,,,,,,,,,,,,,,-14.736328125,-10.95703125,1,0,0,3.11587786674,,,,,2015_Nov_04_1911,A,facesParametric,17,59.6213734381,
./stim/MorphF10_00_orig.jpg,19,,,,,,,,,0,19,19,19,,,,,,,,,,,,,,,-14.736328125,-10.95703125,1,0,0,1.25573682785,,,,,2015_Nov_04_1911,A,facesParametric,17,59.6213734381,
./stim/MorphM3_08_orig.jpg,20,,,,,,,,,0,20,20,20,,,,,,,,,,,,,,,-14.736328125,-10.95703125,0,0,1,0.903636932373,,,,,2015_Nov_04_1911,A,facesParametric,17,59.6213734381,
./stim/MorphM9_01_orig.jpg,21,,,,,,,,,0,21,21,21,,,,,,,,,,,,,,,-14.765625,-10.95703125,1,0,0,1.00440001488,,,,,2015_Nov_04_1911,A,facesParametric,17,59.6213734381,
./stim/MorphM3_05_orig.jpg,22,,,,,,,,,0,22,22,22,,,,,,,,,,,,,,,-14.765625,-10.927734375,0,0,1,1.55740189552,,,,,2015_Nov_04_1911,A,facesParametric,17,59.6213734381,
./stim/MorphM2_10_orig.jpg,23,,,,,,,,,0,23,23,23,,,,,,,,,,,,,,,-7.880859375,-8.759765625,0,0,1,8.34509897232,,,,,2015_Nov_04_1911,A,facesParametric,17,59.6213734381,
./stim/MorphM4_04_orig.jpg,24,,,,,,,,,0,24,24,24,,,,,,,,,,,,,,,-8.232421875,-8.61328125,1,0,0,2.93150401115,,,,,2015_Nov_04_1911,A,facesParametric,17,59.6213734381,
./stim/MorphF2_08_orig.jpg,25,,,,,,,,,0,25,25,25,,,,,,,,,,,,,,,-8.291015625,-8.3203125,0,0,1,0.887001991272,,,,,2015_Nov_04_1911,A,facesParametric,17,59.6213734381,
./stim/MorphF1_04_orig.jpg,26,,,,,,,,,0,26,26,26,,,,,,,,,,,,,,,-8.3203125,-8.203125,1,0,0,3.38414692879,,,,,2015_Nov_04_1911,A,facesParametric,17,59.6213734381,
./stim/MorphF5_01_orig.jpg,27,,,,,,,,,0,27,27,27,,,,,,,,,,,,,,,-8.3203125,-8.203125,1,0,0,3.46802091599,,,,,2015_Nov_04_1911,A,facesParametric,17,59.6213734381,
./stim/MorphF6_00_orig.jpg,28,,,,,,,,,0,28,28,28,,,,,,,,,,,,,,,-8.349609375,-8.056640625,1,0,0,3.83673596382,,,,,2015_Nov_04_1911,A,facesParametric,17,59.6213734381,
./stim/MorphM10_01_orig.jpg,29,,,,,,,,,0,29,29,29,,,,,,,,,,,,,,,-8.349609375,-7.880859375,1,0,0,2.0768289566,,,,,2015_Nov_04_1911,A,facesParametric,17,59.6213734381,
./stim/MorphF10_03_orig.jpg,30,,,,,,,,,0,30,30,30,,,,,,,,,,,,,,,-8.37890625,-7.822265625,1,0,0,1.84230995178,,,,,2015_Nov_04_1911,A,facesParametric,17,59.6213734381,
./stim/MorphM8_03_orig.jpg,31,,,,,,,,,0,31,31,31,,,,,,,,,,,,,,,-8.37890625,-7.79296875,1,0,0,1.52387690544,,,,,2015_Nov_04_1911,A,facesParametric,17,59.6213734381,
./stim/MorphF3_08_orig.jpg,32,,,,,,,,,0,32,32,32,,,,,,,,,,,,,,,-8.349609375,-7.763671875,0,0,1,2.0262761116,,,,,2015_Nov_04_1911,A,facesParametric,17,59.6213734381,
./stim/MorphM4_03_orig.jpg,33,,,,,,,,,0,33,33,33,,,,,,,,,,,,,,,-8.408203125,-7.67578125,1,0,0,3.11589884758,,,,,2015_Nov_04_1911,A,facesParametric,17,59.6213734381,
./stim/MorphM3_06_orig.jpg,34,,,,,,,,,0,34,34,34,,,,,,,,,,,,,,,-8.408203125,-7.67578125,0,0,1,1.33958792686,,,,,2015_Nov_04_1911,A,facesParametric,17,59.6213734381,
./stim/MorphM8_10_orig.jpg,35,,,,,,,,,0,35,35,35,,,,,,,,,,,,,,,-8.349609375,-7.6171875,0,0,1,1.30603218079,,,,,2015_Nov_04_1911,A,facesParametric,17,59.6213734381,
./stim/MorphF4_04_orig.jpg,36,,,,,,,,,0,36,36,36,,,,,,,,,,,,,,,-8.349609375,-7.6171875,1,0,0,2.31137990952,,,,,2015_Nov_04_1911,A,facesParametric,17,59.6213734381,
./stim/MorphM6_03_orig.jpg,37,,,,,,,,,0,37,37,37,,,,,,,,,,,,,,,-8.37890625,-7.44140625,0,0,1,9.83668708801,,,,,2015_Nov_04_1911,A,facesParametric,17,59.6213734381,
./stim/MorphM2_09_orig.jpg,38,,,,,,,,,0,38,38,38,,,,,,,,,,,,,,,-8.37890625,-7.44140625,0,0,1,0.769782066345,,,,,2015_Nov_04_1911,A,facesParametric,17,59.6213734381,
./stim/MorphM5_07_orig.jpg,39,,,,,,,,,0,39,39,39,,,,,,,,,,,,,,,-8.349609375,-7.412109375,0,0,1,0.903823137283,,,,,2015_Nov_04_1911,A,facesParametric,17,59.6213734381,
./stim/MorphF7_03_orig.jpg,40,,,,,,,,,0,40,40,40,,,,,,,,,,,,,,,-8.349609375,-7.412109375,1,0,0,1.38976788521,,,,,2015_Nov_04_1911,A,facesParametric,17,59.6213734381,
./stim/MorphM9_04_orig.jpg,41,,,,,,,,,0,41,41,41,,,,,,,,,,,,,,,-8.291015625,-7.3828125,1,0,0,1.28930807114,,,,,2015_Nov_04_1911,A,facesParametric,17,59.6213734381,
./stim/MorphF4_03_orig.jpg,42,,,,,,,,,0,42,42,42,,,,,,,,,,,,,,,-8.291015625,-7.3828125,1,0,0,1.22219014168,,,,,2015_Nov_04_1911,A,facesParametric,17,59.6213734381,
./stim/MorphF3_06_orig.jpg,43,,,,,,,,,0,43,43,43,,,,,,,,,,,,,,,-8.3203125,-7.32421875,0,0,1,1.7418191433,,,,,2015_Nov_04_1911,A,facesParametric,17,59.6213734381,
./stim/MorphM4_07_orig.jpg,44,,,,,,,,,0,44,44,44,,,,,,,,,,,,,,,-8.3203125,-7.265625,0,0,1,0.937165021896,,,,,2015_Nov_04_1911,A,facesParametric,17,59.6213734381,
./stim/MorphM10_05_orig.jpg,45,,,,,,,,,0,45,45,45,,,,,,,,,,,,,,,-8.408203125,-7.236328125,0,0,1,1.25572609901,,,,,2015_Nov_04_1911,A,facesParametric,17,59.6213734381,
./stim/MorphF6_02_orig.jpg,46,,,,,,,,,0,46,46,46,,,,,,,,,,,,,,,-8.4375,-7.20703125,1,0,0,0.752998113632,,,,,2015_Nov_04_1911,A,facesParametric,17,59.6213734381,
./stim/MorphM10_06_orig.jpg,47,,,,,,,,,0,47,47,47,,,,,,,,,,,,,,,-8.49609375,-7.177734375,0,0,1,0.73623418808,,,,,2015_Nov_04_1911,A,facesParametric,17,59.6213734381,
./stim/MorphF1_10_orig.jpg,48,,,,,,,,,0,48,48,48,,,,,,,,,,,,,,,-8.5546875,-6.826171875,0,0,1,9.04896879196,,,,,2015_Nov_04_1911,A,facesParametric,17,59.6213734381,
./stim/MorphM1_00_orig.jpg,49,,,,,,,,,0,49,49,49,,,,,,,,,,,,,,,-8.5546875,-6.826171875,1,0,0,7.4903588295,,,,,2015_Nov_04_1911,A,facesParametric,17,59.6213734381,
./stim/MorphM9_07_orig.jpg,50,,,,,,,,,0,50,50,50,,,,,,,,,,,,,,,-8.5546875,-6.826171875,0,0,1,5.27837991714,,,,,2015_Nov_04_1911,A,facesParametric,17,59.6213734381,
./stim/MorphM10_08_orig.jpg,51,,,,,,,,,0,51,51,51,,,,,,,,,,,,,,,-8.759765625,-6.73828125,0,0,1,5.79700493813,,,,,2015_Nov_04_1911,A,facesParametric,17,59.6213734381,
./stim/MorphF1_06_orig.jpg,52,,,,,,,,,0,52,52,52,,,,,,,,,,,,,,,-9.19921875,-6.796875,1,0,0,5.36177897453,,,,,2015_Nov_04_1911,A,facesParametric,17,59.6213734381,
./stim/MorphF3_10_orig.jpg,53,,,,,,,,,0,53,53,53,,,,,,,,,,,,,,,-9.2578125,-6.62109375,0,0,1,1.05468511581,,,,,2015_Nov_04_1911,A,facesParametric,17,59.6213734381,
./stim/MorphF1_00_orig.jpg,54,,,,,,,,,0,54,54,54,,,,,,,,,,,,,,,-9.31640625,-6.5625,1,0,0,1.12161707878,,,,,2015_Nov_04_1911,A,facesParametric,17,59.6213734381,
./stim/MorphF9_05_orig.jpg,55,,,,,,,,,0,55,55,55,,,,,,,,,,,,,,,-9.31640625,-6.5625,0,0,1,4.4233071804,,,,,2015_Nov_04_1911,A,facesParametric,17,59.6213734381,
./stim/MorphM10_04_orig.jpg,56,,,,,,,,,0,56,56,56,,,,,,,,,,,,,,,-9.43359375,-6.533203125,0,0,1,1.32254981995,,,,,2015_Nov_04_1911,A,facesParametric,17,59.6213734381,
./stim/MorphM7_09_orig.jpg,57,,,,,,,,,0,57,57,57,,,,,,,,,,,,,,,-9.43359375,-6.533203125,0,0,1,0.853370189667,,,,,2015_Nov_04_1911,A,facesParametric,17,59.6213734381,
./stim/MorphM6_04_orig.jpg,58,,,,,,,,,0,58,58,58,,,,,,,,,,,,,,,-9.462890625,-6.533203125,1,0,0,1.05459189415,,,,,2015_Nov_04_1911,A,facesParametric,17,59.6213734381,
./stim/MorphF3_03_orig.jpg,59,,,,,,,,,0,59,59,59,,,,,,,,,,,,,,,-9.462890625,-6.533203125,1,0,0,1.79213500023,,,,,2015_Nov_04_1911,A,facesParametric,17,59.6213734381,
./stim/MorphF2_06_orig.jpg,60,,,,,,,,,0,60,60,60,,,,,,,,,,,,,,,-9.580078125,-6.416015625,0,0,1,3.16635107994,,,,,2015_Nov_04_1911,A,facesParametric,17,59.6213734381,
./stim/MorphF8_00_orig.jpg,61,,,,,,,,,0,61,61,61,,,,,,,,,,,,,,,-9.697265625,-6.328125,1,0,0,2.29483103752,,,,,2015_Nov_04_1911,A,facesParametric,17,59.6213734381,
./stim/MorphM7_06_orig.jpg,62,,,,,,,,,0,62,62,62,,,,,,,,,,,,,,,-9.697265625,-6.328125,0,0,1,0.886970043182,,,,,2015_Nov_04_1911,A,facesParametric,17,59.6213734381,
./stim/MorphM6_05_orig.jpg,63,,,,,,,,,0,63,63,63,,,,,,,,,,,,,,,-9.755859375,-6.328125,0,0,1,4.85905790329,,,,,2015_Nov_04_1911,A,facesParametric,17,59.6213734381,
./stim/MorphF5_03_orig.jpg,64,,,,,,,,,0,64,64,64,,,,,,,,,,,,,,,-9.873046875,-6.2109375,1,0,0,1.17197108269,,,,,2015_Nov_04_1911,A,facesParametric,17,59.6213734381,
./stim/MorphM9_08_orig.jpg,65,,,,,,,,,0,65,65,65,,,,,,,,,,,,,,,-9.873046875,-6.2109375,0,0,1,1.30591893196,,,,,2015_Nov_04_1911,A,facesParametric,17,59.6213734381,
./stim/MorphM1_08_orig.jpg,66,,,,,,,,,0,66,66,66,,,,,,,,,,,,,,,-9.873046875,-6.2109375,0,0,1,1.64122414589,,,,,2015_Nov_04_1911,A,facesParametric,17,59.6213734381,
./stim/MorphF6_01_orig.jpg,67,,,,,,,,,0,67,67,67,,,,,,,,,,,,,,,-9.90234375,-6.181640625,1,0,0,0.819829940796,,,,,2015_Nov_04_1911,A,facesParametric,17,59.6213734381,
./stim/MorphM2_03_orig.jpg,68,,,,,,,,,0,68,68,68,,,,,,,,,,,,,,,-9.90234375,-6.181640625,1,0,0,0.80322098732,,,,,2015_Nov_04_1911,A,facesParametric,17,59.6213734381,
./stim/MorphM10_10_orig.jpg,69,,,,,,,,,0,69,69,69,,,,,,,,,,,,,,,-9.90234375,-6.181640625,0,0,1,3.16625905037,,,,,2015_Nov_04_1911,A,facesParametric,17,59.6213734381,
./stim/MorphF8_06_orig.jpg,70,,,,,,,,,0,70,70,70,,,,,,,,,,,,,,,-9.90234375,-6.181640625,1,0,0,3.03224682808,,,,,2015_Nov_04_1911,A,facesParametric,17,59.6213734381,
./stim/MorphM10_03_orig.jpg,71,,,,,,,,,0,71,71,71,,,,,,,,,,,,,,,-9.90234375,-6.181640625,1,0,0,3.92055797577,,,,,2015_Nov_04_1911,A,facesParametric,17,59.6213734381,
./stim/MorphM2_04_orig.jpg,72,,,,,,,,,0,72,72,72,,,,,,,,,,,,,,,-9.90234375,-6.181640625,1,0,0,0.970758914948,,,,,2015_Nov_04_1911,A,facesParametric,17,59.6213734381,
./stim/MorphM4_08_orig.jpg,73,,,,,,,,,0,73,73,73,,,,,,,,,,,,,,,-9.873046875,-6.181640625,0,0,1,1.64115905762,,,,,2015_Nov_04_1911,A,facesParametric,17,59.6213734381,
./stim/MorphF6_03_orig.jpg,74,,,,,,,,,0,74,74,74,,,,,,,,,,,,,,,-9.873046875,-6.181640625,1,0,0,1.08808588982,,,,,2015_Nov_04_1911,A,facesParametric,17,59.6213734381,
./stim/MorphM1_09_orig.jpg,75,,,,,,,,,0,75,75,75,,,,,,,,,,,,,,,-9.931640625,-6.123046875,0,0,1,4.47359204292,,,,,2015_Nov_04_1911,A,facesParametric,17,59.6213734381,
./stim/MorphM6_10_orig.jpg,76,,,,,,,,,0,76,76,76,,,,,,,,,,,,,,,-9.7265625,-5.947265625,0,0,1,7.9258480072,,,,,2015_Nov_04_1911,A,facesParametric,17,59.6213734381,
./stim/MorphF7_08_orig.jpg,77,,,,,,,,,0,77,77,77,,,,,,,,,,,,,,,-9.755859375,-5.9765625,0,0,1,1.2219619751,,,,,2015_Nov_04_1911,A,facesParametric,17,59.6213734381,
./stim/MorphF10_07_orig.jpg,78,,,,,,,,,0,78,78,78,,,,,,,,,,,,,,,-10.576171875,-6.85546875,0,0,1,10.1049919128,,,,,2015_Nov_04_1911,A,facesParametric,17,59.6213734381,
./stim/MorphF7_10_orig.jpg,79,,,,,,,,,0,79,79,79,,,,,,,,,,,,,,,-11.3671875,-6.328125,0,0,1,0.719320058823,,,,,2015_Nov_04_1911,A,facesParametric,17,59.6213734381,
./stim/MorphM3_02_orig.jpg,80,,,,,,,,,0,80,80,80,,,,,,,,,,,,,,,-11.71875,-7.119140625,1,0,0,1.07115316391,,,,,2015_Nov_04_1911,A,facesParametric,17,59.6213734381,
./stim/MorphF6_09_orig.jpg,81,,,,,,,,,0,81,81,81,,,,,,,,,,,,,,,-11.71875,-7.587890625,0,0,1,0.98752117157,,,,,2015_Nov_04_1911,A,facesParametric,17,59.6213734381,
./stim/MorphM5_10_orig.jpg,82,,,,,,,,,0,82,82,82,,,,,,,,,,,,,,,-11.806640625,-7.470703125,0,0,1,9.36737012863,,,,,2015_Nov_04_1911,A,facesParametric,17,59.6213734381,
./stim/MorphF7_02_orig.jpg,83,,,,,,,,,0,83,83,83,,,,,,,,,,,,,,,-11.806640625,-7.470703125,1,0,0,1.13853096962,,,,,2015_Nov_04_1911,A,facesParametric,17,59.6213734381,
./stim/MorphM5_00_orig.jpg,84,,,,,,,,,0,84,84,84,,,,,,,,,,,,,,,-11.806640625,-7.470703125,1,0,0,1.95966792107,,,,,2015_Nov_04_1911,A,facesParametric,17,59.6213734381,
./stim/MorphM6_00_orig.jpg,85,,,,,,,,,0,85,85,85,,,,,,,,,,,,,,,-11.806640625,-7.470703125,1,0,0,1.10486102104,,,,,2015_Nov_04_1911,A,facesParametric,17,59.6213734381,
./stim/MorphM9_09_orig.jpg,86,,,,,,,,,0,86,86,86,,,,,,,,,,,,,,,-11.89453125,-7.353515625,0,0,1,0.870280981064,,,,,2015_Nov_04_1911,A,facesParametric,17,59.6213734381,
./stim/MorphF1_02_orig.jpg,87,,,,,,,,,0,87,87,87,,,,,,,,,,,,,,,-12.041015625,-7.294921875,1,0,0,0.886985063553,,,,,2015_Nov_04_1911,A,facesParametric,17,59.6213734381,
./stim/MorphM4_00_orig.jpg,88,,,,,,,,,0,88,88,88,,,,,,,,,,,,,,,-12.041015625,-7.294921875,1,0,0,0.887017011642,,,,,2015_Nov_04_1911,A,facesParametric,17,59.6213734381,
./stim/MorphM8_08_orig.jpg,89,,,,,,,,,0,89,89,89,,,,,,,,,,,,,,,-12.041015625,-7.294921875,0,0,1,0.669151067734,,,,,2015_Nov_04_1911,A,facesParametric,17,59.6213734381,
./stim/MorphM3_00_orig.jpg,90,,,,,,,,,0,90,90,90,,,,,,,,,,,,,,,-12.01171875,-7.265625,1,0,0,1.28907990456,,,,,2015_Nov_04_1911,A,facesParametric,17,59.6213734381,
./stim/MorphM7_10_orig.jpg,91,,,,,,,,,0,91,91,91,,,,,,,,,,,,,,,-12.01171875,-7.265625,0,0,1,1.2893910408,,,,,2015_Nov_04_1911,A,facesParametric,17,59.6213734381,
./stim/MorphM8_01_orig.jpg,92,,,,,,,,,0,92,92,92,,,,,,,,,,,,,,,-11.89453125,-7.294921875,1,0,0,3.0155248642,,,,,2015_Nov_04_1911,A,facesParametric,17,59.6213734381,
./stim/MorphM4_02_orig.jpg,93,,,,,,,,,0,93,93,93,,,,,,,,,,,,,,,-11.89453125,-7.294921875,1,0,0,0.870224952698,,,,,2015_Nov_04_1911,A,facesParametric,17,59.6213734381,
./stim/MorphF4_00_orig.jpg,94,,,,,,,,,0,94,94,94,,,,,,,,,,,,,,,-11.806640625,-7.03125,1,0,0,8.89809703827,,,,,2015_Nov_04_1911,A,facesParametric,17,59.6213734381,
./stim/MorphM6_08_orig.jpg,95,,,,,,,,,0,95,95,95,,,,,,,,,,,,,,,-11.806640625,-7.03125,0,0,1,2.79764509201,,,,,2015_Nov_04_1911,A,facesParametric,17,59.6213734381,
./stim/MorphF10_05_orig.jpg,96,,,,,,,,,0,96,96,96,,,,,,,,,,,,,,,-11.923828125,-7.060546875,1,0,0,5.19428110123,,,,,2015_Nov_04_1911,A,facesParametric,17,59.6213734381,
./stim/MorphM3_07_orig.jpg,97,,,,,,,,,0,97,97,97,,,,,,,,,,,,,,,-11.923828125,-7.060546875,0,0,1,1.23871207237,,,,,2015_Nov_04_1911,A,facesParametric,17,59.6213734381,
./stim/MorphF5_07_orig.jpg,98,,,,,,,,,0,98,98,98,,,,,,,,,,,,,,,-11.89453125,-7.03125,0,0,1,1.20534706116,,,,,2015_Nov_04_1911,A,facesParametric,17,59.6213734381,
./stim/MorphM3_10_orig.jpg,99,,,,,,,,,0,99,99,99,,,,,,,,,,,,,,,-11.8359375,-7.03125,0,0,1,7.02117705345,,,,,2015_Nov_04_1911,A,facesParametric,17,59.6213734381,
./stim/MorphM7_07_orig.jpg,100,,,,,,,,,0,100,100,100,,,,,,,,,,,,,,,-11.8359375,-7.03125,0,0,1,2.78080701828,,,,,2015_Nov_04_1911,A,facesParametric,17,59.6213734381,
./stim/MorphF3_02_orig.jpg,101,,,,,,,,,0,101,101,101,,,,,,,,,,,,,,,-11.8359375,-7.001953125,1,0,0,1.02117300034,,,,,2015_Nov_04_1911,A,facesParametric,17,59.6213734381,
./stim/MorphM2_07_orig.jpg,102,,,,,,,,,0,102,102,102,,,,,,,,,,,,,,,-11.806640625,-7.03125,1,0,0,1.17176485062,,,,,2015_Nov_04_1911,A,facesParametric,17,59.6213734381,
./stim/MorphF1_05_orig.jpg,103,,,,,,,,,0,103,103,103,,,,,,,,,,,,,,,-11.806640625,-7.060546875,1,0,0,2.1105401516,,,,,2015_Nov_04_1911,A,facesParametric,17,59.6213734381,
./stim/MorphF9_10_orig.jpg,104,,,,,,,,,0,104,104,104,,,,,,,,,,,,,,,-11.806640625,-7.060546875,0,0,1,0.819815158844,,,,,2015_Nov_04_1911,A,facesParametric,17,59.6213734381,
./stim/MorphF3_09_orig.jpg,105,,,,,,,,,0,105,105,105,,,,,,,,,,,,,,,-11.748046875,-7.03125,0,0,1,1.03786015511,,,,,2015_Nov_04_1911,A,facesParametric,17,59.6213734381,
./stim/MorphF10_06_orig.jpg,106,,,,,,,,,0,106,106,106,,,,,,,,,,,,,,,-11.748046875,-7.03125,0,0,1,0.736247062683,,,,,2015_Nov_04_1911,A,facesParametric,17,59.6213734381,
./stim/MorphF3_05_orig.jpg,107,,,,,,,,,0,107,107,107,,,,,,,,,,,,,,,-11.71875,-7.001953125,0,0,1,2.47915101051,,,,,2015_Nov_04_1911,A,facesParametric,17,59.6213734381,
./stim/MorphM8_06_orig.jpg,108,,,,,,,,,0,108,108,108,,,,,,,,,,,,,,,-11.689453125,-7.03125,0,0,1,2.78088212013,,,,,2015_Nov_04_1911,A,facesParametric,17,59.6213734381,
./stim/MorphF2_00_orig.jpg,109,,,,,,,,,0,109,109,109,,,,,,,,,,,,,,,-11.66015625,-7.060546875,1,0,0,1.72497606277,,,,,2015_Nov_04_1911,A,facesParametric,17,59.6213734381,
./stim/MorphF10_10_orig.jpg,110,,,,,,,,,0,110,110,110,,,,,,,,,,,,,,,-11.6015625,-7.08984375,0,0,1,23.0098459721,,,,,2015_Nov_04_1911,A,facesParametric,17,59.6213734381,
./stim/MorphF8_09_orig.jpg,111,,,,,,,,,0,111,111,111,,,,,,,,,,,,,,,-11.66015625,-7.1484375,0,0,1,4.00430512428,,,,,2015_Nov_04_1911,A,facesParametric,17,59.6213734381,
./stim/MorphF7_05_orig.jpg,112,,,,,,,,,0,112,112,112,,,,,,,,,,,,,,,-11.953125,-7.529296875,0,0,1,11.8980560303,,,,,2015_Nov_04_1911,A,facesParametric,17,59.6213734381,
./stim/MorphF3_07_orig.jpg,113,,,,,,,,,0,113,113,113,,,,,,,,,,,,,,,-12.01171875,-11.1328125,0,0,1,9.46777510643,,,,,2015_Nov_04_1911,A,facesParametric,17,59.6213734381,
./stim/MorphM8_05_orig.jpg,114,,,,,,,,,0,114,114,114,,,,,,,,,,,,,,,-14.267578125,-11.19140625,0,0,1,12.2667667866,,,,,2015_Nov_04_1911,A,facesParametric,17,59.6213734381,
./stim/MorphF9_06_orig.jpg,115,,,,,,,,,0,115,115,115,,,,,,,,,,,,,,,-17.900390625,-0.205078125,0,0,1,23.8142499924,,,,,2015_Nov_04_1911,A,facesParametric,17,59.6213734381,
./stim/MorphF6_06_orig.jpg,116,,,,,,,,,0,116,116,116,,,,,,,,,,,,,,,-17.900390625,-0.17578125,0,0,1,1.97647213936,,,,,2015_Nov_04_1911,A,facesParametric,17,59.6213734381,
./stim/MorphM6_06_orig.jpg,117,,,,,,,,,0,117,117,117,,,,,,,,,,,,,,,-17.578125,-0.234375,0,0,1,2.64673709869,,,,,2015_Nov_04_1911,A,facesParametric,17,59.6213734381,
./stim/MorphF5_04_orig.jpg,118,,,,,,,,,0,118,118,118,,,,,,,,,,,,,,,-17.548828125,-0.17578125,1,0,0,2.39534282684,,,,,2015_Nov_04_1911,A,facesParametric,17,59.6213734381,
./stim/MorphM8_07_orig.jpg,119,,,,,,,,,0,119,119,119,,,,,,,,,,,,,,,-17.548828125,-0.17578125,0,0,1,5.49593186378,,,,,2015_Nov_04_1911,A,facesParametric,17,59.6213734381,
./stim/MorphF9_08_orig.jpg,120,,,,,,,,,0,120,120,120,,,,,,,,,,,,,,,-17.548828125,-0.17578125,0,0,1,0.98757314682,,,,,2015_Nov_04_1911,A,facesParametric,17,59.6213734381,
./stim/MorphM4_09_orig.jpg,121,,,,,,,,,0,121,121,121,,,,,,,,,,,,,,,-17.548828125,-0.17578125,0,0,1,0.820003986359,,,,,2015_Nov_04_1911,A,facesParametric,17,59.6213734381,
./stim/MorphM9_06_orig.jpg,122,,,,,,,,,0,122,122,122,,,,,,,,,,,,,,,-17.4609375,-0.205078125,1,0,0,11.0601921082,,,,,2015_Nov_04_1911,A,facesParametric,17,59.6213734381,
./stim/MorphF8_04_orig.jpg,123,,,,,,,,,0,123,123,123,,,,,,,,,,,,,,,-17.4609375,-0.205078125,1,0,0,1.20533299446,,,,,2015_Nov_04_1911,A,facesParametric,17,59.6213734381,
./stim/MorphF9_09_orig.jpg,124,,,,,,,,,0,124,124,124,,,,,,,,,,,,,,,-17.431640625,-0.087890625,0,0,1,0.954065084457,,,,,2015_Nov_04_1911,A,facesParametric,17,59.6213734381,
./stim/MorphF5_06_orig.jpg,125,,,,,,,,,0,125,125,125,,,,,,,,,,,,,,,-17.431640625,-0.05859375,0,0,1,2.17753195763,,,,,2015_Nov_04_1911,A,facesParametric,17,59.6213734381,
./stim/MorphM3_09_orig.jpg,126,,,,,,,,,0,126,126,126,,,,,,,,,,,,,,,-17.548828125,0.0,0,0,1,4.00423312187,,,,,2015_Nov_04_1911,A,facesParametric,17,59.6213734381,
./stim/MorphM9_02_orig.jpg,127,,,,,,,,,0,127,127,127,,,,,,,,,,,,,,,-17.578125,0.0,1,0,0,1.30596780777,,,,,2015_Nov_04_1911,A,facesParametric,17,59.6213734381,
./stim/MorphF1_03_orig.jpg,128,,,,,,,,,0,128,128,128,,,,,,,,,,,,,,,-17.578125,0.0,1,0,0,1.85891699791,,,,,2015_Nov_04_1911,A,facesParametric,17,59.6213734381,
./stim/MorphM9_10_orig.jpg,129,,,,,,,,,0,129,129,129,,,,,,,,,,,,,,,-17.578125,0.0,0,0,1,0.887328147888,,,,,2015_Nov_04_1911,A,facesParametric,17,59.6213734381,
./stim/MorphF5_09_orig.jpg,130,,,,,,,,,0,130,130,130,,,,,,,,,,,,,,,-17.578125,0.0,0,0,1,1.07123208046,,,,,2015_Nov_04_1911,A,facesParametric,17,59.6213734381,
./stim/MorphF4_09_orig.jpg,131,,,,,,,,,0,131,131,131,,,,,,,,,,,,,,,-17.51953125,0.087890625,0,0,1,1.00428700447,,,,,2015_Nov_04_1911,A,facesParametric,17,59.6213734381,
./stim/MorphF7_06_orig.jpg,132,,,,,,,,,0,132,132,132,,,,,,,,,,,,,,,-16.875,-3.3984375,0,0,1,27.3170831203,,,,,2015_Nov_04_1911,A,facesParametric,17,59.6213734381,
./stim/MorphM4_01_orig.jpg,133,,,,,,,,,0,133,133,133,,,,,,,,,,,,,,,-17.021484375,-3.10546875,1,0,0,2.37861204147,,,,,2015_Nov_04_1911,A,facesParametric,17,59.6213734381,
./stim/MorphM8_02_orig.jpg,134,,,,,,,,,0,134,134,134,,,,,,,,,,,,,,,-12.509765625,-8.525390625,1,0,0,29.3114449978,,,,,2015_Nov_04_1911,A,facesParametric,17,59.6213734381,
./stim/MorphM6_07_orig.jpg,135,,,,,,,,,0,135,135,135,,,,,,,,,,,,,,,13.916015625,-9.638671875,0,0,1,17.6299848557,,,,,2015_Nov_04_1911,A,facesParametric,17,59.6213734381,
./stim/MorphM3_03_orig.jpg,136,,,,,,,,,0,136,136,136,,,,,,,,,,,,,,,14.150390625,-9.609375,1,0,0,1.20534610748,,,,,2015_Nov_04_1911,A,facesParametric,17,59.6213734381,
./stim/MorphF4_07_orig.jpg,137,,,,,,,,,0,137,137,137,,,,,,,,,,,,,,,14.23828125,-10.1953125,0,0,1,21.0321171284,,,,,2015_Nov_04_1911,A,facesParametric,17,59.6213734381,
./stim/MorphF10_08_orig.jpg,138,,,,,,,,,0,138,138,138,,,,,,,,,,,,,,,14.267578125,-10.166015625,0,0,1,0.836718797684,,,,,2015_Nov_04_1911,A,facesParametric,17,59.6213734381,
./stim/MorphF7_04_orig.jpg,139,,,,,,,,,0,139,139,139,,,,,,,,,,,,,,,-0.29296875,-4.62890625,1,0,0,18.8868861198,,,,,2015_Nov_04_1911,A,facesParametric,17,59.6213734381,
./stim/MorphF6_04_orig.jpg,140,,,,,,,,,0,140,140,140,,,,,,,,,,,,,,,-0.029296875,-3.92578125,1,0,0,2.88152098656,,,,,2015_Nov_04_1911,A,facesParametric,17,59.6213734381,
./stim/MorphF3_04_orig.jpg,141,,,,,,,,,0,141,141,141,,,,,,,,,,,,,,,-0.029296875,-3.80859375,1,0,0,7.47348308563,,,,,2015_Nov_04_1911,A,facesParametric,17,59.6213734381,
./stim/MorphF9_03_orig.jpg,142,,,,,,,,,0,142,142,142,,,,,,,,,,,,,,,-0.029296875,-3.80859375,1,0,0,2.41218709946,,,,,2015_Nov_04_1911,A,facesParametric,17,59.6213734381,
./stim/MorphM5_03_orig.jpg,143,,,,,,,,,0,143,143,143,,,,,,,,,,,,,,,-0.029296875,-3.80859375,0,0,1,1.70825386047,,,,,2015_Nov_04_1911,A,facesParametric,17,59.6213734381,
./stim/MorphF5_02_orig.jpg,144,,,,,,,,,0,144,144,144,,,,,,,,,,,,,,,0.0,-3.779296875,1,0,0,1.10489416122,,,,,2015_Nov_04_1911,A,facesParametric,17,59.6213734381,
./stim/MorphM4_06_orig.jpg,145,,,,,,,,,0,145,145,145,,,,,,,,,,,,,,,0.0,-3.779296875,0,0,1,1.25574707985,,,,,2015_Nov_04_1911,A,facesParametric,17,59.6213734381,
./stim/MorphF2_10_orig.jpg,146,,,,,,,,,0,146,146,146,,,,,,,,,,,,,,,0.52734375,-4.482421875,0,0,1,63.6185030937,,,,,2015_Nov_04_1911,A,facesParametric,17,59.6213734381,
./stim/MorphF7_00_orig.jpg,147,,,,,,,,,0,147,147,147,,,,,,,,,,,,,,,0.791015625,-4.21875,1,0,0,2.19412612915,,,,,2015_Nov_04_1911,A,facesParametric,17,59.6213734381,
./stim/MorphF8_07_orig.jpg,148,,,,,,,,,0,148,148,148,,,,,,,,,,,,,,,0.908203125,-4.013671875,0,0,1,1.10486912727,,,,,2015_Nov_04_1911,A,facesParametric,17,59.6213734381,
./stim/MorphM2_08_orig.jpg,149,,,,,,,,,0,149,149,149,,,,,,,,,,,,,,,0.791015625,-4.072265625,0,0,1,1.13839411736,,,,,2015_Nov_04_1911,A,facesParametric,17,59.6213734381,
./stim/MorphF3_01_orig.jpg,150,,,,,,,,,0,150,150,150,,,,,,,,,,,,,,,0.8203125,-4.013671875,1,0,0,1.23893690109,,,,,2015_Nov_04_1911,A,facesParametric,17,59.6213734381,
./stim/MorphF8_01_orig.jpg,151,,,,,,,,,0,151,151,151,,,,,,,,,,,,,,,0.87890625,-4.013671875,1,0,0,0.937287092209,,,,,2015_Nov_04_1911,A,facesParametric,17,59.6213734381,
./stim/MorphF7_09_orig.jpg,152,,,,,,,,,0,152,152,152,,,,,,,,,,,,,,,0.87890625,-4.013671875,0,0,1,0.736032962799,,,,,2015_Nov_04_1911,A,facesParametric,17,59.6213734381,
./stim/MorphF10_01_orig.jpg,153,,,,,,,,,0,153,153,153,,,,,,,,,,,,,,,0.908203125,-4.306640625,1,0,0,1.15512299538,,,,,2015_Nov_04_1911,A,facesParametric,17,59.6213734381,
./stim/MorphF5_00_orig.jpg,154,,,,,,,,,0,154,154,154,,,,,,,,,,,,,,,0.99609375,-4.21875,1,0,0,1.25568795204,,,,,2015_Nov_04_1911,A,facesParametric,17,59.6213734381,
./stim/MorphF9_00_orig.jpg,155,,,,,,,,,0,155,155,155,,,,,,,,,,,,,,,1.025390625,-4.04296875,1,0,0,3.28376889229,,,,,2015_Nov_04_1911,A,facesParametric,17,59.6213734381,
./stim/MorphF8_03_orig.jpg,156,,,,,,,,,0,156,156,156,,,,,,,,,,,,,,,1.0546875,-4.04296875,1,0,0,1.27222299576,,,,,2015_Nov_04_1911,A,facesParametric,17,59.6213734381,
./stim/MorphM8_04_orig.jpg,157,,,,,,,,,0,157,157,157,,,,,,,,,,,,,,,1.0546875,-4.04296875,0,0,1,2.36184501648,,,,,2015_Nov_04_1911,A,facesParametric,17,59.6213734381,
./stim/MorphM9_03_orig.jpg,158,,,,,,,,,0,158,158,158,,,,,,,,,,,,,,,1.083984375,-4.04296875,1,0,0,11.0262451172,,,,,2015_Nov_04_1911,A,facesParametric,17,59.6213734381,
./stim/MorphM10_02_orig.jpg,159,,,,,,,,,0,159,159,159,,,,,,,,,,,,,,,-1.23046875,2.080078125,1,0,0,31.6578230858,,,,,2015_Nov_04_1911,A,facesParametric,17,59.6213734381,
./stim/MorphF8_05_orig.jpg,160,,,,,,,,,0,160,160,160,,,,,,,,,,,,,,,1.0546875,6.650390625,0,0,1,31.0712871552,,,,,2015_Nov_04_1911,A,facesParametric,17,59.6213734381,
./stim/MorphF9_02_orig.jpg,161,,,,,,,,,0,161,161,161,,,,,,,,,,,,,,,1.025390625,6.591796875,1,0,0,1.65743589401,,,,,2015_Nov_04_1911,A,facesParametric,17,59.6213734381,
./stim/MorphM6_01_orig.jpg,162,,,,,,,,,0,162,162,162,,,,,,,,,,,,,,,1.0546875,6.4453125,1,0,0,0.98765707016,,,,,2015_Nov_04_1911,A,facesParametric,17,59.6213734381,
./stim/MorphF4_08_orig.jpg,163,,,,,,,,,0,163,163,163,,,,,,,,,,,,,,,1.025390625,6.38671875,0,0,1,0.819963932037,,,,,2015_Nov_04_1911,A,facesParametric,17,59.6213734381,
./stim/MorphM5_02_orig.jpg,164,,,,,,,,,0,164,164,164,,,,,,,,,,,,,,,0.99609375,6.38671875,1,0,0,1.95964884758,,,,,2015_Nov_04_1911,A,facesParametric,17,59.6213734381,
./stim/MorphM7_01_orig.jpg,165,,,,,,,,,0,165,165,165,,,,,,,,,,,,,,,0.99609375,6.38671875,0,0,1,2.74743700027,,,,,2015_Nov_04_1911,A,facesParametric,17,59.6213734381,
./stim/MorphF2_02_orig.jpg,166,,,,,,,,,0,166,166,166,,,,,,,,,,,,,,,0.99609375,6.38671875,1,0,0,2.17739701271,,,,,2015_Nov_04_1911,A,facesParametric,17,59.6213734381,
./stim/MorphM7_05_orig.jpg,167,,,,,,,,,0,167,167,167,,,,,,,,,,,,,,,1.23046875,5.478515625,0,0,1,17.227766037,,,,,2015_Nov_04_1911,A,facesParametric,17,59.6213734381,
./stim/MorphM8_09_orig.jpg,168,,,,,,,,,0,168,168,168,,,,,,,,,,,,,,,1.318359375,5.09765625,0,0,1,1.15515398979,,,,,2015_Nov_04_1911,A,facesParametric,17,59.6213734381,
./stim/MorphF8_02_orig.jpg,169,,,,,,,,,0,169,169,169,,,,,,,,,,,,,,,1.259765625,4.892578125,1,0,0,5.44606804848,,,,,2015_Nov_04_1911,A,facesParametric,17,59.6213734381,
./stim/MorphF1_07_orig.jpg,170,,,,,,,,,0,170,170,170,,,,,,,,,,,,,,,1.259765625,4.892578125,0,0,1,1.43929481506,,,,,2015_Nov_04_1911,A,facesParametric,17,59.6213734381,
./stim/MorphM1_10_orig.jpg,171,,,,,,,,,0,171,171,171,,,,,,,,,,,,,,,1.259765625,4.74609375,0,0,1,2.47918391228,,,,,2015_Nov_04_1911,A,facesParametric,17,59.6213734381,
./stim/MorphF7_01_orig.jpg,172,,,,,,,,,0,172,172,172,,,,,,,,,,,,,,,1.201171875,4.921875,1,0,0,1.75834298134,,,,,2015_Nov_04_1911,A,facesParametric,17,59.6213734381,
./stim/MorphF4_01_orig.jpg,173,,,,,,,,,0,173,173,173,,,,,,,,,,,,,,,1.201171875,4.921875,1,0,0,1.35633516312,,,,,2015_Nov_04_1911,A,facesParametric,17,59.6213734381,
./stim/MorphF2_03_orig.jpg,174,,,,,,,,,0,174,174,174,,,,,,,,,,,,,,,1.201171875,4.716796875,0,0,1,2.64678883553,,,,,2015_Nov_04_1911,A,facesParametric,17,59.6213734381,
./stim/MorphM7_00_orig.jpg,175,,,,,,,,,0,175,175,175,,,,,,,,,,,,,,,1.083984375,4.189453125,0,0,1,3.16631507874,,,,,2015_Nov_04_1911,A,facesParametric,17,59.6213734381,
./stim/MorphM3_04_orig.jpg,176,,,,,,,,,0,176,176,176,,,,,,,,,,,,,,,0.9375,4.248046875,0,0,1,1.74197912216,,,,,2015_Nov_04_1911,A,facesParametric,17,59.6213734381,
./stim/MorphM1_06_orig.jpg,177,,,,,,,,,0,177,177,177,,,,,,,,,,,,,,,0.8203125,4.189453125,0,0,1,5.46141600609,,,,,2015_Nov_04_1911,A,facesParametric,17,59.6213734381,
./stim/MorphM10_07_orig.jpg,178,,,,,,,,,0,178,178,178,,,,,,,,,,,,,,,-5.830078125,1.640625,0,0,1,17.7474150658,,,,,2015_Nov_04_1911,A,facesParametric,17,59.6213734381,
./stim/MorphM1_01_orig.jpg,179,,,,,,,,,0,179,179,179,,,,,,,,,,,,,,,-13.212890625,2.8125,1,0,0,16.8252968788,,,,,2015_Nov_04_1911,A,facesParametric,17,59.6213734381,
./stim/MorphM5_08_orig.jpg,180,,,,,,,,,0,180,180,180,,,,,,,,,,,,,,,4.921875,-5.859375,0,0,1,61.0208640099,,,,,2015_Nov_04_1911,A,facesParametric,17,59.6213734381,
./stim/MorphF5_10_orig.jpg,181,,,,,,,,,0,181,181,181,,,,,,,,,,,,,,,4.892578125,-5.830078125,0,0,1,3.80309200287,,,,,2015_Nov_04_1911,A,facesParametric,17,59.6213734381,
./stim/MorphF2_04_orig.jpg,182,,,,,,,,,0,182,182,182,,,,,,,,,,,,,,,4.86328125,-5.80078125,1,0,0,2.00990891457,,,,,2015_Nov_04_1911,A,facesParametric,17,59.6213734381,
./stim/MorphF6_08_orig.jpg,183,,,,,,,,,0,183,183,183,,,,,,,,,,,,,,,15.263671875,-7.822265625,0,0,1,53.9143409729,,,,,2015_Nov_04_1911,A,facesParametric,17,59.6213734381,
./stim/MorphM1_07_orig.jpg,184,,,,,,,,,0,184,184,184,,,,,,,,,,,,,,,11.953125,-5.44921875,0,0,1,15.8870210648,,,,,2015_Nov_04_1911,A,facesParametric,17,59.6213734381,
./stim/MorphM10_09_orig.jpg,185,,,,,,,,,0,185,185,185,,,,,,,,,,,,,,,11.923828125,-5.390625,0,0,1,1.02102017403,,,,,2015_Nov_04_1911,A,facesParametric,17,59.6213734381,
./stim/MorphF10_02_orig.jpg,186,,,,,,,,,0,186,186,186,,,,,,,,,,,,,,,12.24609375,-5.15625,1,0,0,2.12718486786,,,,,2015_Nov_04_1911,A,facesParametric,17,59.6213734381,
./stim/MorphF8_10_orig.jpg,187,,,,,,,,,0,187,187,187,,,,,,,,,,,,,,,12.3046875,-5.15625,0,0,1,0.836669921875,,,,,2015_Nov_04_1911,A,facesParametric,17,59.6213734381,
./stim/MorphF1_08_orig.jpg,188,,,,,,,,,0,188,188,188,,,,,,,,,,,,,,,13.330078125,-4.62890625,0,0,1,1.94316601753,,,,,2015_Nov_04_1911,A,facesParametric,17,59.6213734381,
./stim/MorphF2_01_orig.jpg,189,,,,,,,,,0,189,189,189,,,,,,,,,,,,,,,-10.986328125,-0.087890625,1,0,0,32.4788680077,,,,,2015_Nov_04_1911,A,facesParametric,17,59.6213734381,
./stim/MorphM4_10_orig.jpg,190,,,,,,,,,0,190,190,190,,,,,,,,,,,,,,,-11.513671875,-1.845703125,0,0,1,1.97650098801,,,,,2015_Nov_04_1911,A,facesParametric,17,59.6213734381,
./stim/MorphM10_00_orig.jpg,191,,,,,,,,,0,191,191,191,,,,,,,,,,,,,,,-13.18359375,-3.193359375,1,0,0,1.3727350235,,,,,2015_Nov_04_1911,A,facesParametric,17,59.6213734381,
./stim/MorphF9_07_orig.jpg,192,,,,,,,,,0,192,192,192,,,,,,,,,,,,,,,-13.095703125,-3.427734375,0,0,1,1.23930716515,,,,,2015_Nov_04_1911,A,facesParametric,17,59.6213734381,
./stim/MorphM2_00_orig.jpg,193,,,,,,,,,0,193,193,193,,,,,,,,,,,,,,,-13.330078125,-3.33984375,1,0,0,0.953821897507,,,,,2015_Nov_04_1911,A,facesParametric,17,59.6213734381,
./stim/MorphF2_07_orig.jpg,194,,,,,,,,,0,194,194,194,,,,,,,,,,,,,,,-13.330078125,-3.33984375,0,0,1,1.05456399918,,,,,2015_Nov_04_1911,A,facesParametric,17,59.6213734381,
./stim/MorphM2_01_orig.jpg,195,,,,,,,,,0,195,195,195,,,,,,,,,,,,,,,-13.53515625,-3.33984375,1,0,0,0.937251806259,,,,,2015_Nov_04_1911,A,facesParametric,17,59.6213734381,
./stim/MorphF9_04_orig.jpg,196,,,,,,,,,0,196,196,196,,,,,,,,,,,,,,,-13.41796875,-3.92578125,1,0,0,3.35065197945,,,,,2015_Nov_04_1911,A,facesParametric,17,59.6213734381,
./stim/MorphM8_00_orig.jpg,197,,,,,,,,,0,197,197,197,,,,,,,,,,,,,,,-13.330078125,-4.04296875,1,0,0,2.21099591255,,,,,2015_Nov_04_1911,A,facesParametric,17,59.6213734381,
./stim/MorphF8_08_orig.jpg,198,,,,,,,,,0,198,198,198,,,,,,,,,,,,,,,-13.9453125,-3.779296875,0,0,1,6.85341691971,,,,,2015_Nov_04_1911,A,facesParametric,17,59.6213734381,
./stim/MorphM5_04_orig.jpg,199,,,,,,,,,0,199,199,199,,,,,,,,,,,,,,,-14.12109375,-3.779296875,1,0,0,1.37278699875,,,,,2015_Nov_04_1911,A,facesParametric,17,59.6213734381,
./stim/MorphF4_05_orig.jpg,200,,,,,,,,,0,200,200,200,,,,,,,,,,,,,,,-13.974609375,-5.56640625,1,0,0,6.23336720467,,,,,2015_Nov_04_1911,A,facesParametric,17,59.6213734381,
./stim/MorphF6_10_orig.jpg,201,,,,,,,,,0,201,201,201,,,,,,,,,,,,,,,-14.296875,-4.892578125,0,0,1,1.12157511711,,,,,2015_Nov_04_1911,A,facesParametric,17,59.6213734381,
./stim/MorphF2_09_orig.jpg,202,,,,,,,,,0,202,202,202,,,,,,,,,,,,,,,-13.916015625,-4.6875,0,0,1,1.12137818336,,,,,2015_Nov_04_1911,A,facesParametric,17,59.6213734381,
./stim/MorphF10_04_orig.jpg,203,,,,,,,,,0,203,203,203,,,,,,,,,,,,,,,-13.623046875,-4.74609375,1,0,0,1.22202897072,,,,,2015_Nov_04_1911,A,facesParametric,17,59.6213734381,
./stim/MorphF6_05_orig.jpg,204,,,,,,,,,0,204,204,204,,,,,,,,,,,,,,,-13.76953125,-4.921875,0,0,1,3.09929800034,,,,,2015_Nov_04_1911,A,facesParametric,17,59.6213734381,
./stim/MorphM2_06_orig.jpg,205,,,,,,,,,0,205,205,205,,,,,,,,,,,,,,,-3.984375,-2.783203125,1,0,0,22.8420140743,,,,,2015_Nov_04_1911,A,facesParametric,17,59.6213734381,
./stim/MorphM5_06_orig.jpg,206,,,,,,,,,0,206,206,206,,,,,,,,,,,,,,,-4.04296875,-2.63671875,1,0,0,7.84228587151,,,,,2015_Nov_04_1911,A,facesParametric,17,59.6213734381,
./stim/MorphM9_00_orig.jpg,207,,,,,,,,,0,207,207,207,,,,,,,,,,,,,,,-4.04296875,-2.63671875,1,0,0,0.870167970657,,,,,2015_Nov_04_1911,A,facesParametric,17,59.6213734381,
./stim/MorphM1_03_orig.jpg,208,,,,,,,,,0,208,208,208,,,,,,,,,,,,,,,-4.013671875,-2.63671875,1,0,0,0.887000083923,,,,,2015_Nov_04_1911,A,facesParametric,17,59.6213734381,
./stim/MorphF3_00_orig.jpg,209,,,,,,,,,0,209,209,209,,,,,,,,,,,,,,,-4.013671875,-2.63671875,1,0,0,0.903607130051,,,,,2015_Nov_04_1911,A,facesParametric,17,59.6213734381,
./stim/MorphF9_01_orig.jpg,210,,,,,,,,,0,210,210,210,,,,,,,,,,,,,,,-4.013671875,-2.63671875,1,0,0,1.15503120422,,,,,2015_Nov_04_1911,A,facesParametric,17,59.6213734381,
./stim/MorphF1_01_orig.jpg,211,,,,,,,,,0,211,211,211,,,,,,,,,,,,,,,-4.013671875,-2.63671875,1,0,0,1.05496287346,,,,,2015_Nov_04_1911,A,facesParametric,17,59.6213734381,
./stim/MorphM5_09_orig.jpg,212,,,,,,,,,0,212,212,212,,,,,,,,,,,,,,,-5.126953125,-2.34375,0,0,1,0.937026977539,,,,,2015_Nov_04_1911,A,facesParametric,17,59.6213734381,
./stim/MorphM1_05_orig.jpg,213,,,,,,,,,0,213,213,213,,,,,,,,,,,,,,,-6.5625,-2.314453125,1,0,0,4.02074098587,,,,,2015_Nov_04_1911,A,facesParametric,17,59.6213734381,
./stim/MorphF10_09_orig.jpg,214,,,,,,,,,0,214,214,214,,,,,,,,,,,,,,,-6.591796875,-2.490234375,0,0,1,0.970386981964,,,,,2015_Nov_04_1911,A,facesParametric,17,59.6213734381,
./stim/MorphF2_05_orig.jpg,215,,,,,,,,,0,215,215,215,,,,,,,,,,,,,,,-6.73828125,-2.548828125,0,0,1,7.82545804977,,,,,2015_Nov_04_1911,A,facesParametric,17,59.6213734381,
./stim/MorphM1_02_orig.jpg,216,,,,,,,,,0,216,216,216,,,,,,,,,,,,,,,-6.796875,-2.548828125,1,0,0,0.8870677948,,,,,2015_Nov_04_1911,A,facesParametric,17,59.6213734381,
./stim/MorphM9_05_orig.jpg,217,,,,,,,,,0,217,217,217,,,,,,,,,,,,,,,-6.85546875,-2.548828125,0,0,1,1.54070901871,,,,,2015_Nov_04_1911,A,facesParametric,17,59.6213734381,
./stim/MorphM6_09_orig.jpg,218,,,,,,,,,0,218,218,218,,,,,,,,,,,,,,,-6.85546875,-2.548828125,0,0,1,0.802934885025,,,,,2015_Nov_04_1911,A,facesParametric,17,59.6213734381,
./stim/MorphF1_09_orig.jpg,219,,,,,,,,,0,219,219,219,,,,,,,,,,,,,,,-6.796875,-2.4609375,0,0,1,0.719356060028,,,,,2015_Nov_04_1911,A,facesParametric,17,59.6213734381,
,,,,,,,,,,,,,,,,,,,,,,,,,,,,,,,,,,,,return,244.250958204,2015_Nov_04_1911,A,facesParametric,17,59.6213734381,
