img,num,basicLoop.thisRepN,basicLoop.thisTrialN,basicLoop.thisN,basicLoop.thisIndex,trials.thisRepN,trials.thisTrialN,trials.thisN,trials.thisIndex,trials2.thisRepN,trials2.thisTrialN,trials2.thisN,trials2.thisIndex,key_resp_2.keys,key_resp_2.rt,basicRating1.response,basicRating1.rt,basicRating2.response,basicRating2.rt,basicRating3.response,basicRating3.rt,basicRating4.response,basicRating4.rt,key_resp_3.keys,key_resp_3.rt,key_resp_4.keys,key_resp_4.rt,mouseResp.x,mouseResp.y,mouseResp.leftButton,mouseResp.midButton,mouseResp.rightButton,mouseResp.time,key_resp_5.keys,key_resp_5.rt,key_resp_7.keys,key_resp_7.rt,date,group,expName,participant,frameRate,
,,,,,,,,,,,,,,return,44.1047511101,,,,,,,,,,,,,,,,,,,,,,,2015_Oct_20_1717,G,facesParametric,18,59.6850893433,
./basicStim/36M_FE_O.jpg,,0,0,0,79,,,,,,,,,,,None,None,None,None,SUP,5.5,None,None,,,,,,,,,,,,,,,2015_Oct_20_1717,G,facesParametric,18,59.6850893433,
./basicStim/34M_FE_O.jpg,,0,1,1,72,,,,,,,,,,,None,None,None,None,SUP,5.3,None,None,,,,,,,,,,,,,,,2015_Oct_20_1717,G,facesParametric,18,59.6850893433,
./basicStim/01F_SA_C.jpg,,0,2,2,4,,,,,,,,,,,SAD,3.441,None,None,None,None,None,None,,,,,,,,,,,,,,,2015_Oct_20_1717,G,facesParametric,18,59.6850893433,
./basicStim/07F_DI_O.jpg,,0,3,3,29,,,,,,,,,,,None,None,None,None,DIS,2.167,None,None,,,,,,,,,,,,,,,2015_Oct_20_1717,G,facesParametric,18,59.6850893433,
./basicStim/06F_DI_O.jpg,,0,4,4,22,,,,,,,,,,,None,None,None,None,DIS,1.446,None,None,,,,,,,,,,,,,,,2015_Oct_20_1717,G,facesParametric,18,59.6850893433,
./basicStim/02F_FE_O.jpg,,0,5,5,9,,,,,,,,,,,None,None,FEA,3.758,None,None,None,None,,,,,,,,,,,,,,,2015_Oct_20_1717,G,facesParametric,18,59.6850893433,
./basicStim/36M_AN_O.jpg,,0,6,6,77,,,,,,,,,,,None,None,ANG,3.07,None,None,None,None,,,,,,,,,,,,,,,2015_Oct_20_1717,G,facesParametric,18,59.6850893433,
./basicStim/24M_FE_O.jpg,,0,7,7,58,,,,,,,,,,,None,None,None,None,SUP,4.04,None,None,,,,,,,,,,,,,,,2015_Oct_20_1717,G,facesParametric,18,59.6850893433,
./basicStim/23M_HA_O.jpg,,0,8,8,52,,,,,,,,,,,HAP,2.22,None,None,None,None,None,None,,,,,,,,,,,,,,,2015_Oct_20_1717,G,facesParametric,18,59.6850893433,
./basicStim/34M_HA_O.jpg,,0,9,9,73,,,,,,,,,,,HAP,1.058,None,None,None,None,None,None,,,,,,,,,,,,,,,2015_Oct_20_1717,G,facesParametric,18,59.6850893433,
./basicStim/07F_SA_C.jpg,,0,10,10,32,,,,,,,,,,,SAD,1.933,None,None,None,None,None,None,,,,,,,,,,,,,,,2015_Oct_20_1717,G,facesParametric,18,59.6850893433,
./basicStim/28M_NE_C.jpg,,0,11,11,69,,,,,,,,,,,SAD,2.074,None,None,None,None,None,None,,,,,,,,,,,,,,,2015_Oct_20_1717,G,facesParametric,18,59.6850893433,
./basicStim/24M_NE_C.jpg,,0,12,12,62,,,,,,,,,,,None,None,ANG,3.772,None,None,None,None,,,,,,,,,,,,,,,2015_Oct_20_1717,G,facesParametric,18,59.6850893433,
./basicStim/24M_AN_O.jpg,,0,13,13,56,,,,,,,,,,,None,None,ANG,0.777,None,None,None,None,,,,,,,,,,,,,,,2015_Oct_20_1717,G,facesParametric,18,59.6850893433,
./basicStim/28M_SA_C.jpg,,0,14,14,67,,,,,,,,,,,None,None,None,None,SUP,6.791,None,None,,,,,,,,,,,,,,,2015_Oct_20_1717,G,facesParametric,18,59.6850893433,
./basicStim/24M_SA_C.jpg,,0,15,15,60,,,,,,,,,,,SAD,3.448,None,None,None,None,None,None,,,,,,,,,,,,,,,2015_Oct_20_1717,G,facesParametric,18,59.6850893433,
./basicStim/23M_FE_O.jpg,,0,16,16,51,,,,,,,,,,,None,None,None,None,SUP,4.174,None,None,,,,,,,,,,,,,,,2015_Oct_20_1717,G,facesParametric,18,59.6850893433,
./basicStim/03F_HA_O.jpg,,0,17,17,17,,,,,,,,,,,HAP,1.497,None,None,None,None,None,None,,,,,,,,,,,,,,,2015_Oct_20_1717,G,facesParametric,18,59.6850893433,
./basicStim/34M_AN_O.jpg,,0,18,18,70,,,,,,,,,,,None,None,ANG,3.809,None,None,None,None,,,,,,,,,,,,,,,2015_Oct_20_1717,G,facesParametric,18,59.6850893433,
./basicStim/07F_FE_O.jpg,,0,19,19,30,,,,,,,,,,,None,None,None,None,SUP,2.35,None,None,,,,,,,,,,,,,,,2015_Oct_20_1717,G,facesParametric,18,59.6850893433,
./basicStim/36M_NE_C.jpg,,0,20,20,83,,,,,,,,,,,None,None,None,None,None,None,NTR,2.08,,,,,,,,,,,,,,,2015_Oct_20_1717,G,facesParametric,18,59.6850893433,
./basicStim/09F_NE_C.jpg,,0,21,21,41,,,,,,,,,,,None,None,None,None,None,None,NTR,1.208,,,,,,,,,,,,,,,2015_Oct_20_1717,G,facesParametric,18,59.6850893433,
./basicStim/03F_NE_C.jpg,,0,22,22,20,,,,,,,,,,,None,None,None,None,None,None,NTR,0.692,,,,,,,,,,,,,,,2015_Oct_20_1717,G,facesParametric,18,59.6850893433,
./basicStim/36M_SA_C.jpg,,0,23,23,81,,,,,,,,,,,SAD,2.953,None,None,None,None,None,None,,,,,,,,,,,,,,,2015_Oct_20_1717,G,facesParametric,18,59.6850893433,
./basicStim/06F_HA_O.jpg,,0,24,24,24,,,,,,,,,,,HAP,1.479,None,None,None,None,None,None,,,,,,,,,,,,,,,2015_Oct_20_1717,G,facesParametric,18,59.6850893433,
./basicStim/02F_NE_C.jpg,,0,25,25,13,,,,,,,,,,,SAD,2.517,None,None,None,None,None,None,,,,,,,,,,,,,,,2015_Oct_20_1717,G,facesParametric,18,59.6850893433,
./basicStim/01F_DI_O.jpg,,0,26,26,1,,,,,,,,,,,None,None,ANG,2.722,None,None,None,None,,,,,,,,,,,,,,,2015_Oct_20_1717,G,facesParametric,18,59.6850893433,
./basicStim/21M_DI_O.jpg,,0,27,27,43,,,,,,,,,,,None,None,None,None,DIS,3.322,None,None,,,,,,,,,,,,,,,2015_Oct_20_1717,G,facesParametric,18,59.6850893433,
./basicStim/28M_SP_O.jpg,,0,28,28,68,,,,,,,,,,,None,None,None,None,SUP,1.813,None,None,,,,,,,,,,,,,,,2015_Oct_20_1717,G,facesParametric,18,59.6850893433,
./basicStim/21M_FE_O.jpg,,0,29,29,44,,,,,,,,,,,None,None,FEA,2.976,None,None,None,None,,,,,,,,,,,,,,,2015_Oct_20_1717,G,facesParametric,18,59.6850893433,
./basicStim/28M_HA_O.jpg,,0,30,30,66,,,,,,,,,,,HAP,2.403,None,None,None,None,None,None,,,,,,,,,,,,,,,2015_Oct_20_1717,G,facesParametric,18,59.6850893433,
./basicStim/03F_DI_O.jpg,,0,31,31,15,,,,,,,,,,,None,None,None,None,DIS,2.773,None,None,,,,,,,,,,,,,,,2015_Oct_20_1717,G,facesParametric,18,59.6850893433,
./basicStim/21M_HA_O.jpg,,0,32,32,45,,,,,,,,,,,HAP,1.783,None,None,None,None,None,None,,,,,,,,,,,,,,,2015_Oct_20_1717,G,facesParametric,18,59.6850893433,
./basicStim/07F_NE_C.jpg,,0,33,33,34,,,,,,,,,,,SAD,2.052,None,None,None,None,None,None,,,,,,,,,,,,,,,2015_Oct_20_1717,G,facesParametric,18,59.6850893433,
./basicStim/21M_AN_O.jpg,,0,34,34,42,,,,,,,,,,,None,None,ANG,2.856,None,None,None,None,,,,,,,,,,,,,,,2015_Oct_20_1717,G,facesParametric,18,59.6850893433,
./basicStim/03F_SA_C.jpg,,0,35,35,18,,,,,,,,,,,SAD,2.995,None,None,None,None,None,None,,,,,,,,,,,,,,,2015_Oct_20_1717,G,facesParametric,18,59.6850893433,
./basicStim/02F_AN_O.jpg,,0,36,36,7,,,,,,,,,,,None,None,ANG,2.906,None,None,None,None,,,,,,,,,,,,,,,2015_Oct_20_1717,G,facesParametric,18,59.6850893433,
./basicStim/34M_SA_C.jpg,,0,37,37,74,,,,,,,,,,,SAD,1.889,None,None,None,None,None,None,,,,,,,,,,,,,,,2015_Oct_20_1717,G,facesParametric,18,59.6850893433,
./basicStim/01F_HA_O.jpg,,0,38,38,3,,,,,,,,,,,HAP,1.48,None,None,None,None,None,None,,,,,,,,,,,,,,,2015_Oct_20_1717,G,facesParametric,18,59.6850893433,
./basicStim/02F_DI_O.jpg,,0,39,39,8,,,,,,,,,,,None,None,ANG,3.497,None,None,None,None,,,,,,,,,,,,,,,2015_Oct_20_1717,G,facesParametric,18,59.6850893433,
./basicStim/24M_SP_O.jpg,,0,40,40,61,,,,,,,,,,,None,None,None,None,SUP,1.791,None,None,,,,,,,,,,,,,,,2015_Oct_20_1717,G,facesParametric,18,59.6850893433,
./basicStim/28M_DI_O.jpg,,0,41,41,64,,,,,,,,,,,None,None,None,None,DIS,2.57,None,None,,,,,,,,,,,,,,,2015_Oct_20_1717,G,facesParametric,18,59.6850893433,
./basicStim/09F_DI_O.jpg,,0,42,42,36,,,,,,,,,,,None,None,None,None,DIS,0.904,None,None,,,,,,,,,,,,,,,2015_Oct_20_1717,G,facesParametric,18,59.6850893433,
./basicStim/09F_SP_O.jpg,,0,43,43,40,,,,,,,,,,,None,None,None,None,SUP,3.373,None,None,,,,,,,,,,,,,,,2015_Oct_20_1717,G,facesParametric,18,59.6850893433,
./basicStim/01F_AN_O.jpg,,0,44,44,0,,,,,,,,,,,None,None,ANG,2.517,None,None,None,None,,,,,,,,,,,,,,,2015_Oct_20_1717,G,facesParametric,18,59.6850893433,
./basicStim/02F_SA_C.jpg,,0,45,45,11,,,,,,,,,,,SAD,1.832,None,None,None,None,None,None,,,,,,,,,,,,,,,2015_Oct_20_1717,G,facesParametric,18,59.6850893433,
./basicStim/23M_AN_O.jpg,,0,46,46,49,,,,,,,,,,,None,None,ANG,3.561,None,None,None,None,,,,,,,,,,,,,,,2015_Oct_20_1717,G,facesParametric,18,59.6850893433,
./basicStim/34M_DI_O.jpg,,0,47,47,71,,,,,,,,,,,None,None,ANG,4.071,None,None,None,None,,,,,,,,,,,,,,,2015_Oct_20_1717,G,facesParametric,18,59.6850893433,
./basicStim/21M_SP_O.jpg,,0,48,48,47,,,,,,,,,,,None,None,None,None,SUP,2.133,None,None,,,,,,,,,,,,,,,2015_Oct_20_1717,G,facesParametric,18,59.6850893433,
./basicStim/07F_AN_O.jpg,,0,49,49,28,,,,,,,,,,,None,None,ANG,1.75,None,None,None,None,,,,,,,,,,,,,,,2015_Oct_20_1717,G,facesParametric,18,59.6850893433,
./basicStim/01F_NE_C.jpg,,0,50,50,6,,,,,,,,,,,None,None,None,None,None,None,NTR,2.636,,,,,,,,,,,,,,,2015_Oct_20_1717,G,facesParametric,18,59.6850893433,
./basicStim/03F_FE_O.jpg,,0,51,51,16,,,,,,,,,,,None,None,None,None,SUP,1.938,None,None,,,,,,,,,,,,,,,2015_Oct_20_1717,G,facesParametric,18,59.6850893433,
./basicStim/09F_FE_O.jpg,,0,52,52,37,,,,,,,,,,,None,None,None,None,SUP,3.257,None,None,,,,,,,,,,,,,,,2015_Oct_20_1717,G,facesParametric,18,59.6850893433,
./basicStim/03F_AN_O.jpg,,0,53,53,14,,,,,,,,,,,None,None,ANG,1.413,None,None,None,None,,,,,,,,,,,,,,,2015_Oct_20_1717,G,facesParametric,18,59.6850893433,
./basicStim/06F_AN_O.jpg,,0,54,54,21,,,,,,,,,,,None,None,ANG,4.528,None,None,None,None,,,,,,,,,,,,,,,2015_Oct_20_1717,G,facesParametric,18,59.6850893433,
./basicStim/02F_HA_O.jpg,,0,55,55,10,,,,,,,,,,,HAP,1.847,None,None,None,None,None,None,,,,,,,,,,,,,,,2015_Oct_20_1717,G,facesParametric,18,59.6850893433,
./basicStim/23M_DI_O.jpg,,0,56,56,50,,,,,,,,,,,SAD,1.667,None,None,None,None,None,None,,,,,,,,,,,,,,,2015_Oct_20_1717,G,facesParametric,18,59.6850893433,
./basicStim/06F_FE_O.jpg,,0,57,57,23,,,,,,,,,,,None,None,None,None,SUP,2.468,None,None,,,,,,,,,,,,,,,2015_Oct_20_1717,G,facesParametric,18,59.6850893433,
./basicStim/09F_AN_O.jpg,,0,58,58,35,,,,,,,,,,,None,None,ANG,2.151,None,None,None,None,,,,,,,,,,,,,,,2015_Oct_20_1717,G,facesParametric,18,59.6850893433,
./basicStim/36M_SP_O.jpg,,0,59,59,82,,,,,,,,,,,None,None,None,None,SUP,2.232,None,None,,,,,,,,,,,,,,,2015_Oct_20_1717,G,facesParametric,18,59.6850893433,
./basicStim/28M_AN_O.jpg,,0,60,60,63,,,,,,,,,,,None,None,FEA,5.473,None,None,None,None,,,,,,,,,,,,,,,2015_Oct_20_1717,G,facesParametric,18,59.6850893433,
./basicStim/24M_DI_O.jpg,,0,61,61,57,,,,,,,,,,,SAD,3.967,None,None,None,None,None,None,,,,,,,,,,,,,,,2015_Oct_20_1717,G,facesParametric,18,59.6850893433,
./basicStim/21M_NE_C.jpg,,0,62,62,48,,,,,,,,,,,None,None,None,None,None,None,NTR,2.031,,,,,,,,,,,,,,,2015_Oct_20_1717,G,facesParametric,18,59.6850893433,
./basicStim/06F_SA_C.jpg,,0,63,63,25,,,,,,,,,,,SAD,2.502,None,None,None,None,None,None,,,,,,,,,,,,,,,2015_Oct_20_1717,G,facesParametric,18,59.6850893433,
./basicStim/34M_NE_C.jpg,,0,64,64,76,,,,,,,,,,,None,None,None,None,None,None,NTR,1.764,,,,,,,,,,,,,,,2015_Oct_20_1717,G,facesParametric,18,59.6850893433,
./basicStim/06F_SP_O.jpg,,0,65,65,26,,,,,,,,,,,None,None,None,None,SUP,1.576,None,None,,,,,,,,,,,,,,,2015_Oct_20_1717,G,facesParametric,18,59.6850893433,
./basicStim/03F_SP_O.jpg,,0,66,66,19,,,,,,,,,,,HAP,3.817,None,None,None,None,None,None,,,,,,,,,,,,,,,2015_Oct_20_1717,G,facesParametric,18,59.6850893433,
./basicStim/01F_SP_O.jpg,,0,67,67,5,,,,,,,,,,,None,None,None,None,SUP,3.12,None,None,,,,,,,,,,,,,,,2015_Oct_20_1717,G,facesParametric,18,59.6850893433,
./basicStim/23M_NE_C.jpg,,0,68,68,55,,,,,,,,,,,None,None,None,None,None,None,NTR,1.801,,,,,,,,,,,,,,,2015_Oct_20_1717,G,facesParametric,18,59.6850893433,
./basicStim/28M_FE_O.jpg,,0,69,69,65,,,,,,,,,,,None,None,FEA,4.096,None,None,None,None,,,,,,,,,,,,,,,2015_Oct_20_1717,G,facesParametric,18,59.6850893433,
./basicStim/09F_HA_O.jpg,,0,70,70,38,,,,,,,,,,,HAP,1.079,None,None,None,None,None,None,,,,,,,,,,,,,,,2015_Oct_20_1717,G,facesParametric,18,59.6850893433,
./basicStim/23M_SA_C.jpg,,0,71,71,53,,,,,,,,,,,None,None,None,None,DIS,5.714,None,None,,,,,,,,,,,,,,,2015_Oct_20_1717,G,facesParametric,18,59.6850893433,
./basicStim/09F_SA_C.jpg,,0,72,72,39,,,,,,,,,,,SAD,2.869,None,None,None,None,None,None,,,,,,,,,,,,,,,2015_Oct_20_1717,G,facesParametric,18,59.6850893433,
./basicStim/34M_SP_O.jpg,,0,73,73,75,,,,,,,,,,,None,None,None,None,SUP,2.518,None,None,,,,,,,,,,,,,,,2015_Oct_20_1717,G,facesParametric,18,59.6850893433,
./basicStim/07F_HA_O.jpg,,0,74,74,31,,,,,,,,,,,HAP,1.714,None,None,None,None,None,None,,,,,,,,,,,,,,,2015_Oct_20_1717,G,facesParametric,18,59.6850893433,
./basicStim/21M_SA_C.jpg,,0,75,75,46,,,,,,,,,,,SAD,3.929,None,None,None,None,None,None,,,,,,,,,,,,,,,2015_Oct_20_1717,G,facesParametric,18,59.6850893433,
./basicStim/01F_FE_O.jpg,,0,76,76,2,,,,,,,,,,,None,None,None,None,SUP,3.07,None,None,,,,,,,,,,,,,,,2015_Oct_20_1717,G,facesParametric,18,59.6850893433,
./basicStim/36M_HA_O.jpg,,0,77,77,80,,,,,,,,,,,HAP,1.919,None,None,None,None,None,None,,,,,,,,,,,,,,,2015_Oct_20_1717,G,facesParametric,18,59.6850893433,
./basicStim/36M_DI_O.jpg,,0,78,78,78,,,,,,,,,,,None,None,None,None,DIS,4.176,None,None,,,,,,,,,,,,,,,2015_Oct_20_1717,G,facesParametric,18,59.6850893433,
./basicStim/02F_SP_O.jpg,,0,79,79,12,,,,,,,,,,,None,None,None,None,SUP,2.027,None,None,,,,,,,,,,,,,,,2015_Oct_20_1717,G,facesParametric,18,59.6850893433,
./basicStim/06F_NE_C.jpg,,0,80,80,27,,,,,,,,,,,None,None,None,None,None,None,NTR,1.83,,,,,,,,,,,,,,,2015_Oct_20_1717,G,facesParametric,18,59.6850893433,
./basicStim/23M_SP_O.jpg,,0,81,81,54,,,,,,,,,,,None,None,None,None,SUP,2.672,None,None,,,,,,,,,,,,,,,2015_Oct_20_1717,G,facesParametric,18,59.6850893433,
./basicStim/24M_HA_O.jpg,,0,82,82,59,,,,,,,,,,,HAP,1.831,None,None,None,None,None,None,,,,,,,,,,,,,,,2015_Oct_20_1717,G,facesParametric,18,59.6850893433,
./basicStim/07F_SP_O.jpg,,0,83,83,33,,,,,,,,,,,None,None,None,None,SUP,2.55,None,None,,,,,,,,,,,,,,,2015_Oct_20_1717,G,facesParametric,18,59.6850893433,
,,,,,,,,,,,,,,,,,,,,,,,,return,3.62046504021,,,,,,,,,,,,,2015_Oct_20_1717,G,facesParametric,18,59.6850893433,
,,,,,,,,,,,,,,return,15.150190115,,,,,,,,,,,,,,,,,,,,,,,2015_Oct_20_1717,G,facesParametric,18,59.6850893433,
,,,,,,,,,,,,,,,,,,,,,,,,return,33.1841068268,,,,,,,,,,,,,2015_Oct_20_1717,G,facesParametric,18,59.6850893433,
,,,,,,,,,,,,,,,,,,,,,,,,,,return,5.73177099228,,,,,,,,,,,2015_Oct_20_1717,G,facesParametric,18,59.6850893433,
./stim/MorphM4_01_orig.jpg,0,,,,,0,0,0,0,,,,,,,,,,,,,,,,,,,-22.8515625,-9.78515625,0,0,1,4.42040300369,,,,,2015_Oct_20_1717,G,facesParametric,18,59.6850893433,
./stim/MorphM2_04_orig.jpg,1,,,,,0,1,1,1,,,,,,,,,,,,,,,,,,,-22.880859375,-9.814453125,0,0,1,1.30519199371,,,,,2015_Oct_20_1717,G,facesParametric,18,59.6850893433,
./stim/MorphM3_00_orig.jpg,2,,,,,0,2,2,2,,,,,,,,,,,,,,,,,,,-22.20703125,-9.755859375,1,0,0,2.12701296806,,,,,2015_Oct_20_1717,G,facesParametric,18,59.6850893433,
./stim/MorphF3_01_orig.jpg,3,,,,,0,3,3,3,,,,,,,,,,,,,,,,,,,-21.708984375,-9.990234375,0,0,1,2.54600691795,,,,,2015_Oct_20_1717,G,facesParametric,18,59.6850893433,
./stim/MorphF8_08_orig.jpg,4,,,,,0,4,4,4,,,,,,,,,,,,,,,,,,,-21.9140625,-10.107421875,1,0,0,1.40663981438,,,,,2015_Oct_20_1717,G,facesParametric,18,59.6850893433,
./stim/MorphF7_09_orig.jpg,5,,,,,0,5,5,5,,,,,,,,,,,,,,,,,,,-21.533203125,-10.107421875,1,0,0,0.902005910873,,,,,2015_Oct_20_1717,G,facesParametric,18,59.6850893433,
./stim/MorphM6_00_orig.jpg,6,,,,,0,6,6,6,,,,,,,,,,,,,,,,,,,-21.50390625,-10.107421875,0,0,1,1.39012598991,,,,,2015_Oct_20_1717,G,facesParametric,18,59.6850893433,
./stim/MorphF7_08_orig.jpg,7,,,,,0,7,7,7,,,,,,,,,,,,,,,,,,,-21.2109375,-10.107421875,1,0,0,2.74712085724,,,,,2015_Oct_20_1717,G,facesParametric,18,59.6850893433,
./stim/MorphM3_01_orig.jpg,8,,,,,0,8,8,8,,,,,,,,,,,,,,,,,,,-21.09375,-10.107421875,0,0,1,3.11573696136,,,,,2015_Oct_20_1717,G,facesParametric,18,59.6850893433,
./stim/MorphF8_09_orig.jpg,9,,,,,0,9,9,9,,,,,,,,,,,,,,,,,,,-21.181640625,-9.84375,1,0,0,2.36207199097,,,,,2015_Oct_20_1717,G,facesParametric,18,59.6850893433,
./stim/MorphM5_02_orig.jpg,10,,,,,0,10,10,10,,,,,,,,,,,,,,,,,,,-21.181640625,-9.84375,0,0,1,1.28937315941,,,,,2015_Oct_20_1717,G,facesParametric,18,59.6850893433,
./stim/MorphM4_10_orig.jpg,11,,,,,0,11,11,11,,,,,,,,,,,,,,,,,,,-21.15234375,-9.814453125,1,0,0,1.20325303078,,,,,2015_Oct_20_1717,G,facesParametric,18,59.6850893433,
./stim/MorphF10_02_orig.jpg,12,,,,,0,12,12,12,,,,,,,,,,,,,,,,,,,-21.123046875,-9.84375,1,0,0,2.7473461628,,,,,2015_Oct_20_1717,G,facesParametric,18,59.6850893433,
./stim/MorphF1_09_orig.jpg,13,,,,,0,13,13,13,,,,,,,,,,,,,,,,,,,-21.123046875,-9.84375,0,0,1,0.970675945282,,,,,2015_Oct_20_1717,G,facesParametric,18,59.6850893433,
./stim/MorphM10_04_orig.jpg,14,,,,,0,14,14,14,,,,,,,,,,,,,,,,,,,-20.595703125,-9.84375,1,0,0,8.84663891792,,,,,2015_Oct_20_1717,G,facesParametric,18,59.6850893433,
./stim/MorphM7_03_orig.jpg,15,,,,,0,15,15,15,,,,,,,,,,,,,,,,,,,-20.595703125,-9.84375,0,0,1,3.25015211105,,,,,2015_Oct_20_1717,G,facesParametric,18,59.6850893433,
./stim/MorphM8_09_orig.jpg,16,,,,,0,16,16,16,,,,,,,,,,,,,,,,,,,-17.783203125,-4.130859375,1,0,0,10.1707448959,,,,,2015_Oct_20_1717,G,facesParametric,18,59.6850893433,
./stim/MorphF6_08_orig.jpg,17,,,,,0,17,17,17,,,,,,,,,,,,,,,,,,,-16.025390625,-3.896484375,1,0,0,1.12080597878,,,,,2015_Oct_20_1717,G,facesParametric,18,59.6850893433,
./stim/MorphF7_02_orig.jpg,18,,,,,0,18,18,18,,,,,,,,,,,,,,,,,,,-16.025390625,-3.896484375,0,0,1,1.10451507568,,,,,2015_Oct_20_1717,G,facesParametric,18,59.6850893433,
./stim/MorphM7_04_orig.jpg,19,,,,,0,19,19,19,,,,,,,,,,,,,,,,,,,-15.9375,-3.896484375,0,0,1,2.04307889938,,,,,2015_Oct_20_1717,G,facesParametric,18,59.6850893433,
./stim/MorphM3_09_orig.jpg,20,,,,,0,20,20,20,,,,,,,,,,,,,,,,,,,-15.615234375,-3.896484375,1,0,0,2.29482913017,,,,,2015_Oct_20_1717,G,facesParametric,18,59.6850893433,
./stim/MorphF6_10_orig.jpg,21,,,,,0,21,21,21,,,,,,,,,,,,,,,,,,,-15.52734375,-3.896484375,1,0,0,2.66384983063,,,,,2015_Oct_20_1717,G,facesParametric,18,59.6850893433,
./stim/MorphM5_07_orig.jpg,22,,,,,0,22,22,22,,,,,,,,,,,,,,,,,,,-15.52734375,-3.896484375,1,0,0,1.03635692596,,,,,2015_Oct_20_1717,G,facesParametric,18,59.6850893433,
./stim/MorphF2_07_orig.jpg,23,,,,,0,23,23,23,,,,,,,,,,,,,,,,,,,-15.46875,-3.955078125,1,0,0,1.54076886177,,,,,2015_Oct_20_1717,G,facesParametric,18,59.6850893433,
./stim/MorphF1_06_orig.jpg,24,,,,,0,24,24,24,,,,,,,,,,,,,,,,,,,-15.263671875,-3.896484375,0,0,1,4.0374789238,,,,,2015_Oct_20_1717,G,facesParametric,18,59.6850893433,
./stim/MorphF6_02_orig.jpg,25,,,,,0,25,25,25,,,,,,,,,,,,,,,,,,,-15.146484375,-3.779296875,0,0,1,1.65778708458,,,,,2015_Oct_20_1717,G,facesParametric,18,59.6850893433,
./stim/MorphF8_04_orig.jpg,26,,,,,0,26,26,26,,,,,,,,,,,,,,,,,,,-15.146484375,-3.779296875,0,0,1,0.887292861938,,,,,2015_Oct_20_1717,G,facesParametric,18,59.6850893433,
./stim/MorphM5_06_orig.jpg,27,,,,,0,27,27,27,,,,,,,,,,,,,,,,,,,-15.146484375,-3.779296875,1,0,0,0.853765964508,,,,,2015_Oct_20_1717,G,facesParametric,18,59.6850893433,
./stim/MorphF10_07_orig.jpg,28,,,,,0,28,28,28,,,,,,,,,,,,,,,,,,,-14.970703125,-4.04296875,1,0,0,2.6626329422,,,,,2015_Oct_20_1717,G,facesParametric,18,59.6850893433,
./stim/MorphM9_09_orig.jpg,29,,,,,0,29,29,29,,,,,,,,,,,,,,,,,,,-14.94140625,-4.013671875,1,0,0,1.02117109299,,,,,2015_Oct_20_1717,G,facesParametric,18,59.6850893433,
./stim/MorphF1_07_orig.jpg,30,,,,,0,30,30,30,,,,,,,,,,,,,,,,,,,-14.94140625,-4.013671875,0,0,1,0.954009056091,,,,,2015_Oct_20_1717,G,facesParametric,18,59.6850893433,
./stim/MorphF10_04_orig.jpg,31,,,,,0,31,31,31,,,,,,,,,,,,,,,,,,,-14.94140625,-4.013671875,1,0,0,1.35705900192,,,,,2015_Oct_20_1717,G,facesParametric,18,59.6850893433,
./stim/MorphF6_09_orig.jpg,32,,,,,0,32,32,32,,,,,,,,,,,,,,,,,,,-14.94140625,-4.013671875,1,0,0,1.18818187714,,,,,2015_Oct_20_1717,G,facesParametric,18,59.6850893433,
./stim/MorphM2_10_orig.jpg,33,,,,,0,33,33,33,,,,,,,,,,,,,,,,,,,-14.94140625,-4.013671875,1,0,0,1.79032087326,,,,,2015_Oct_20_1717,G,facesParametric,18,59.6850893433,
./stim/MorphM9_10_orig.jpg,34,,,,,0,34,34,34,,,,,,,,,,,,,,,,,,,-14.912109375,-3.984375,1,0,0,1.40625,,,,,2015_Oct_20_1717,G,facesParametric,18,59.6850893433,
./stim/MorphF4_07_orig.jpg,35,,,,,0,35,35,35,,,,,,,,,,,,,,,,,,,-14.853515625,-3.92578125,1,0,0,2.99882602692,,,,,2015_Oct_20_1717,G,facesParametric,18,59.6850893433,
./stim/MorphM10_02_orig.jpg,36,,,,,0,36,36,36,,,,,,,,,,,,,,,,,,,-14.853515625,-3.92578125,0,0,1,2.71413397789,,,,,2015_Oct_20_1717,G,facesParametric,18,59.6850893433,
./stim/MorphF6_00_orig.jpg,37,,,,,0,37,37,37,,,,,,,,,,,,,,,,,,,-14.853515625,-3.92578125,0,0,1,1.62234902382,,,,,2015_Oct_20_1717,G,facesParametric,18,59.6850893433,
./stim/MorphM10_01_orig.jpg,38,,,,,0,38,38,38,,,,,,,,,,,,,,,,,,,-14.267578125,-4.130859375,0,0,1,5.37891387939,,,,,2015_Oct_20_1717,G,facesParametric,18,59.6850893433,
./stim/MorphM6_03_orig.jpg,39,,,,,0,39,39,39,,,,,,,,,,,,,,,,,,,-21.474609375,-12.451171875,0,0,1,3.4343149662,,,,,2015_Oct_20_1717,G,facesParametric,18,59.6850893433,
./stim/MorphF3_10_orig.jpg,40,,,,,0,40,40,40,,,,,,,,,,,,,,,,,,,-21.38671875,-12.421875,1,0,0,1.07111001015,,,,,2015_Oct_20_1717,G,facesParametric,18,59.6850893433,
./stim/MorphM1_01_orig.jpg,41,,,,,0,41,41,41,,,,,,,,,,,,,,,,,,,-22.79296875,-7.91015625,0,0,1,9.48489904404,,,,,2015_Oct_20_1717,G,facesParametric,18,59.6850893433,
./stim/MorphM8_10_orig.jpg,42,,,,,0,42,42,42,,,,,,,,,,,,,,,,,,,-22.822265625,-7.8515625,1,0,0,1.58968305588,,,,,2015_Oct_20_1717,G,facesParametric,18,59.6850893433,
./stim/MorphF6_05_orig.jpg,43,,,,,0,43,43,43,,,,,,,,,,,,,,,,,,,-22.822265625,-7.8515625,1,0,0,1.50582289696,,,,,2015_Oct_20_1717,G,facesParametric,18,59.6850893433,
./stim/MorphM9_08_orig.jpg,44,,,,,0,44,44,44,,,,,,,,,,,,,,,,,,,-22.79296875,-7.79296875,1,0,0,2.86476492882,,,,,2015_Oct_20_1717,G,facesParametric,18,59.6850893433,
./stim/MorphF3_06_orig.jpg,45,,,,,0,45,45,45,,,,,,,,,,,,,,,,,,,-22.734375,-7.763671875,1,0,0,0.735967159271,,,,,2015_Oct_20_1717,G,facesParametric,18,59.6850893433,
./stim/MorphM3_10_orig.jpg,46,,,,,0,46,46,46,,,,,,,,,,,,,,,,,,,-22.734375,-7.763671875,1,0,0,2.0420999527,,,,,2015_Oct_20_1717,G,facesParametric,18,59.6850893433,
./stim/MorphF9_03_orig.jpg,47,,,,,0,47,47,47,,,,,,,,,,,,,,,,,,,-22.734375,-7.763671875,0,0,1,1.40527200699,,,,,2015_Oct_20_1717,G,facesParametric,18,59.6850893433,
./stim/MorphM7_01_orig.jpg,48,,,,,0,48,48,48,,,,,,,,,,,,,,,,,,,-22.67578125,-7.763671875,1,0,0,1.99098515511,,,,,2015_Oct_20_1717,G,facesParametric,18,59.6850893433,
./stim/MorphM1_06_orig.jpg,49,,,,,0,49,49,49,,,,,,,,,,,,,,,,,,,-22.6171875,-7.763671875,0,0,1,1.25533914566,,,,,2015_Oct_20_1717,G,facesParametric,18,59.6850893433,
./stim/MorphF10_06_orig.jpg,50,,,,,0,50,50,50,,,,,,,,,,,,,,,,,,,-22.55859375,-7.763671875,1,0,0,0.970281124115,,,,,2015_Oct_20_1717,G,facesParametric,18,59.6850893433,
./stim/MorphF9_07_orig.jpg,51,,,,,0,51,51,51,,,,,,,,,,,,,,,,,,,-22.5,-7.822265625,0,0,1,1.4060189724,,,,,2015_Oct_20_1717,G,facesParametric,18,59.6850893433,
./stim/MorphM10_03_orig.jpg,52,,,,,0,52,52,52,,,,,,,,,,,,,,,,,,,-22.470703125,-7.822265625,1,0,0,0.936491966248,,,,,2015_Oct_20_1717,G,facesParametric,18,59.6850893433,
./stim/MorphF9_05_orig.jpg,53,,,,,0,53,53,53,,,,,,,,,,,,,,,,,,,-22.470703125,-7.822265625,0,0,1,1.22258996964,,,,,2015_Oct_20_1717,G,facesParametric,18,59.6850893433,
./stim/MorphF8_06_orig.jpg,54,,,,,0,54,54,54,,,,,,,,,,,,,,,,,,,-22.44140625,-7.822265625,1,0,0,1.60669517517,,,,,2015_Oct_20_1717,G,facesParametric,18,59.6850893433,
./stim/MorphM6_04_orig.jpg,55,,,,,0,55,55,55,,,,,,,,,,,,,,,,,,,-22.44140625,-7.822265625,1,0,0,0.853394985199,,,,,2015_Oct_20_1717,G,facesParametric,18,59.6850893433,
./stim/MorphF1_04_orig.jpg,56,,,,,0,56,56,56,,,,,,,,,,,,,,,,,,,-22.44140625,-7.822265625,0,0,1,1.22190594673,,,,,2015_Oct_20_1717,G,facesParametric,18,59.6850893433,
./stim/MorphM6_08_orig.jpg,57,,,,,0,57,57,57,,,,,,,,,,,,,,,,,,,-22.44140625,-7.822265625,1,0,0,0.752496957779,,,,,2015_Oct_20_1717,G,facesParametric,18,59.6850893433,
./stim/MorphF9_04_orig.jpg,58,,,,,0,58,58,58,,,,,,,,,,,,,,,,,,,-22.412109375,-7.880859375,1,0,0,1.91076517105,,,,,2015_Oct_20_1717,G,facesParametric,18,59.6850893433,
./stim/MorphM10_09_orig.jpg,59,,,,,0,59,59,59,,,,,,,,,,,,,,,,,,,-21.357421875,-7.67578125,1,0,0,3.41672992706,,,,,2015_Oct_20_1717,G,facesParametric,18,59.6850893433,
./stim/MorphM3_08_orig.jpg,60,,,,,0,60,60,60,,,,,,,,,,,,,,,,,,,-21.328125,-7.587890625,1,0,0,0.954216003418,,,,,2015_Oct_20_1717,G,facesParametric,18,59.6850893433,
./stim/MorphM2_01_orig.jpg,61,,,,,0,61,61,61,,,,,,,,,,,,,,,,,,,-21.298828125,-7.529296875,0,0,1,1.4380710125,,,,,2015_Oct_20_1717,G,facesParametric,18,59.6850893433,
./stim/MorphM1_04_orig.jpg,62,,,,,0,62,62,62,,,,,,,,,,,,,,,,,,,-21.298828125,-7.529296875,0,0,1,0.887755155563,,,,,2015_Oct_20_1717,G,facesParametric,18,59.6850893433,
./stim/MorphM9_03_orig.jpg,63,,,,,0,63,63,63,,,,,,,,,,,,,,,,,,,-21.298828125,-7.529296875,1,0,0,1.80780911446,,,,,2015_Oct_20_1717,G,facesParametric,18,59.6850893433,
./stim/MorphF2_04_orig.jpg,64,,,,,0,64,64,64,,,,,,,,,,,,,,,,,,,-21.298828125,-7.529296875,1,0,0,0.969675064087,,,,,2015_Oct_20_1717,G,facesParametric,18,59.6850893433,
./stim/MorphM4_03_orig.jpg,65,,,,,0,65,65,65,,,,,,,,,,,,,,,,,,,-21.298828125,-7.529296875,0,0,1,1.15420603752,,,,,2015_Oct_20_1717,G,facesParametric,18,59.6850893433,
./stim/MorphF5_09_orig.jpg,66,,,,,0,66,66,66,,,,,,,,,,,,,,,,,,,-21.298828125,-7.529296875,0,0,1,3.90184497833,,,,,2015_Oct_20_1717,G,facesParametric,18,59.6850893433,
./stim/MorphM4_06_orig.jpg,67,,,,,0,67,67,67,,,,,,,,,,,,,,,,,,,-21.298828125,-7.529296875,1,0,0,1.47307705879,,,,,2015_Oct_20_1717,G,facesParametric,18,59.6850893433,
./stim/MorphF4_02_orig.jpg,68,,,,,0,68,68,68,,,,,,,,,,,,,,,,,,,-21.298828125,-7.529296875,0,0,1,1.30567502975,,,,,2015_Oct_20_1717,G,facesParametric,18,59.6850893433,
./stim/MorphF2_00_orig.jpg,69,,,,,0,69,69,69,,,,,,,,,,,,,,,,,,,-21.26953125,-7.5,0,0,1,2.42950391769,,,,,2015_Oct_20_1717,G,facesParametric,18,59.6850893433,
./stim/MorphM9_01_orig.jpg,70,,,,,0,70,70,70,,,,,,,,,,,,,,,,,,,-21.26953125,-7.5,0,0,1,1.02005195618,,,,,2015_Oct_20_1717,G,facesParametric,18,59.6850893433,
./stim/MorphF6_07_orig.jpg,71,,,,,0,71,71,71,,,,,,,,,,,,,,,,,,,-21.240234375,-7.470703125,1,0,0,1.18731689453,,,,,2015_Oct_20_1717,G,facesParametric,18,59.6850893433,
./stim/MorphM5_08_orig.jpg,72,,,,,0,72,72,72,,,,,,,,,,,,,,,,,,,-21.240234375,-7.470703125,1,0,0,1.12165093422,,,,,2015_Oct_20_1717,G,facesParametric,18,59.6850893433,
./stim/MorphF8_05_orig.jpg,73,,,,,0,73,73,73,,,,,,,,,,,,,,,,,,,-21.240234375,-7.470703125,0,0,1,3.23160600662,,,,,2015_Oct_20_1717,G,facesParametric,18,59.6850893433,
./stim/MorphM7_00_orig.jpg,74,,,,,0,74,74,74,,,,,,,,,,,,,,,,,,,-21.240234375,-7.470703125,0,0,1,4.65724611282,,,,,2015_Oct_20_1717,G,facesParametric,18,59.6850893433,
./stim/MorphM6_05_orig.jpg,75,,,,,0,75,75,75,,,,,,,,,,,,,,,,,,,-21.2109375,-7.44140625,1,0,0,1.90916085243,,,,,2015_Oct_20_1717,G,facesParametric,18,59.6850893433,
./stim/MorphF3_03_orig.jpg,76,,,,,0,76,76,76,,,,,,,,,,,,,,,,,,,-20.771484375,-6.357421875,1,0,0,1.13841795921,,,,,2015_Oct_20_1717,G,facesParametric,18,59.6850893433,
./stim/MorphM8_07_orig.jpg,77,,,,,0,77,77,77,,,,,,,,,,,,,,,,,,,-20.859375,-6.15234375,1,0,0,0.885540962219,,,,,2015_Oct_20_1717,G,facesParametric,18,59.6850893433,
./stim/MorphF6_03_orig.jpg,78,,,,,0,78,78,78,,,,,,,,,,,,,,,,,,,-20.830078125,-5.888671875,1,0,0,1.33912205696,,,,,2015_Oct_20_1717,G,facesParametric,18,59.6850893433,
./stim/MorphM9_04_orig.jpg,79,,,,,0,79,79,79,,,,,,,,,,,,,,,,,,,-20.771484375,-5.830078125,0,0,1,2.5295009613,,,,,2015_Oct_20_1717,G,facesParametric,18,59.6850893433,
./stim/MorphM1_07_orig.jpg,80,,,,,0,80,80,80,,,,,,,,,,,,,,,,,,,-20.654296875,-5.595703125,0,0,1,3.43208599091,,,,,2015_Oct_20_1717,G,facesParametric,18,59.6850893433,
./stim/MorphF5_04_orig.jpg,81,,,,,0,81,81,81,,,,,,,,,,,,,,,,,,,-20.654296875,-5.595703125,0,0,1,4.40581703186,,,,,2015_Oct_20_1717,G,facesParametric,18,59.6850893433,
./stim/MorphM10_10_orig.jpg,82,,,,,0,82,82,82,,,,,,,,,,,,,,,,,,,-20.654296875,-5.595703125,1,0,0,1.01949191093,,,,,2015_Oct_20_1717,G,facesParametric,18,59.6850893433,
./stim/MorphF8_10_orig.jpg,83,,,,,0,83,83,83,,,,,,,,,,,,,,,,,,,-20.654296875,-5.595703125,1,0,0,1.28926491737,,,,,2015_Oct_20_1717,G,facesParametric,18,59.6850893433,
./stim/MorphF4_08_orig.jpg,84,,,,,0,84,84,84,,,,,,,,,,,,,,,,,,,-20.654296875,-5.595703125,1,0,0,1.12188982964,,,,,2015_Oct_20_1717,G,facesParametric,18,59.6850893433,
./stim/MorphF2_10_orig.jpg,85,,,,,0,85,85,85,,,,,,,,,,,,,,,,,,,-20.595703125,-5.44921875,1,0,0,1.25436401367,,,,,2015_Oct_20_1717,G,facesParametric,18,59.6850893433,
./stim/MorphF9_02_orig.jpg,86,,,,,0,86,86,86,,,,,,,,,,,,,,,,,,,-20.595703125,-5.44921875,0,0,1,1.79167699814,,,,,2015_Oct_20_1717,G,facesParametric,18,59.6850893433,
./stim/MorphF1_02_orig.jpg,87,,,,,0,87,87,87,,,,,,,,,,,,,,,,,,,-20.595703125,-5.44921875,0,0,1,1.256057024,,,,,2015_Oct_20_1717,G,facesParametric,18,59.6850893433,
./stim/MorphF7_00_orig.jpg,88,,,,,0,88,88,88,,,,,,,,,,,,,,,,,,,-20.595703125,-5.44921875,0,0,1,1.47357797623,,,,,2015_Oct_20_1717,G,facesParametric,18,59.6850893433,
./stim/MorphM10_00_orig.jpg,89,,,,,0,89,89,89,,,,,,,,,,,,,,,,,,,-20.595703125,-5.44921875,0,0,1,1.4738471508,,,,,2015_Oct_20_1717,G,facesParametric,18,59.6850893433,
./stim/MorphM8_03_orig.jpg,90,,,,,0,90,90,90,,,,,,,,,,,,,,,,,,,-20.595703125,-5.44921875,0,0,1,1.40627002716,,,,,2015_Oct_20_1717,G,facesParametric,18,59.6850893433,
./stim/MorphF9_01_orig.jpg,91,,,,,0,91,91,91,,,,,,,,,,,,,,,,,,,-20.56640625,-5.478515625,0,0,1,1.06918406487,,,,,2015_Oct_20_1717,G,facesParametric,18,59.6850893433,
./stim/MorphM3_02_orig.jpg,92,,,,,0,92,92,92,,,,,,,,,,,,,,,,,,,-20.56640625,-5.478515625,1,0,0,2.56323218346,,,,,2015_Oct_20_1717,G,facesParametric,18,59.6850893433,
./stim/MorphF7_07_orig.jpg,93,,,,,0,93,93,93,,,,,,,,,,,,,,,,,,,-20.56640625,-5.5078125,1,0,0,1.92549705505,,,,,2015_Oct_20_1717,G,facesParametric,18,59.6850893433,
./stim/MorphF4_01_orig.jpg,94,,,,,0,94,94,94,,,,,,,,,,,,,,,,,,,-20.537109375,-5.537109375,0,0,1,1.32090497017,,,,,2015_Oct_20_1717,G,facesParametric,18,59.6850893433,
./stim/MorphF7_10_orig.jpg,95,,,,,0,95,95,95,,,,,,,,,,,,,,,,,,,-20.537109375,-5.537109375,1,0,0,1.11942601204,,,,,2015_Oct_20_1717,G,facesParametric,18,59.6850893433,
./stim/MorphF2_01_orig.jpg,96,,,,,0,96,96,96,,,,,,,,,,,,,,,,,,,-20.537109375,-5.537109375,0,0,1,1.30590105057,,,,,2015_Oct_20_1717,G,facesParametric,18,59.6850893433,
./stim/MorphM9_00_orig.jpg,97,,,,,0,97,97,97,,,,,,,,,,,,,,,,,,,-20.537109375,-5.537109375,1,0,0,1.2058160305,,,,,2015_Oct_20_1717,G,facesParametric,18,59.6850893433,
./stim/MorphM1_09_orig.jpg,98,,,,,0,98,98,98,,,,,,,,,,,,,,,,,,,-20.537109375,-5.537109375,0,0,1,1.42335605621,,,,,2015_Oct_20_1717,G,facesParametric,18,59.6850893433,
./stim/MorphF4_05_orig.jpg,99,,,,,0,99,99,99,,,,,,,,,,,,,,,,,,,-20.5078125,-5.5078125,0,0,1,1.82546210289,,,,,2015_Oct_20_1717,G,facesParametric,18,59.6850893433,
./stim/MorphM6_07_orig.jpg,100,,,,,0,100,100,100,,,,,,,,,,,,,,,,,,,-20.5078125,-5.5078125,1,0,0,1.50709414482,,,,,2015_Oct_20_1717,G,facesParametric,18,59.6850893433,
./stim/MorphF1_08_orig.jpg,101,,,,,0,101,101,101,,,,,,,,,,,,,,,,,,,-20.44921875,-5.595703125,1,0,0,1.54058098793,,,,,2015_Oct_20_1717,G,facesParametric,18,59.6850893433,
./stim/MorphM4_07_orig.jpg,102,,,,,0,102,102,102,,,,,,,,,,,,,,,,,,,-20.419921875,-5.625,1,0,0,1.53992199898,,,,,2015_Oct_20_1717,G,facesParametric,18,59.6850893433,
./stim/MorphM5_05_orig.jpg,103,,,,,0,103,103,103,,,,,,,,,,,,,,,,,,,-20.419921875,-5.625,0,0,1,3.08270311356,,,,,2015_Oct_20_1717,G,facesParametric,18,59.6850893433,
./stim/MorphF7_06_orig.jpg,104,,,,,0,104,104,104,,,,,,,,,,,,,,,,,,,-20.419921875,-5.625,0,0,1,2.74570989609,,,,,2015_Oct_20_1717,G,facesParametric,18,59.6850893433,
./stim/MorphM2_00_orig.jpg,105,,,,,0,105,105,105,,,,,,,,,,,,,,,,,,,-20.33203125,-5.5078125,1,0,0,1.90897393227,,,,,2015_Oct_20_1717,G,facesParametric,18,59.6850893433,
./stim/MorphF2_05_orig.jpg,106,,,,,0,106,106,106,,,,,,,,,,,,,,,,,,,-20.33203125,-5.5078125,1,0,0,0.986049890518,,,,,2015_Oct_20_1717,G,facesParametric,18,59.6850893433,
./stim/MorphF6_01_orig.jpg,107,,,,,0,107,107,107,,,,,,,,,,,,,,,,,,,-20.33203125,-5.5078125,0,0,1,1.52408313751,,,,,2015_Oct_20_1717,G,facesParametric,18,59.6850893433,
./stim/MorphF10_00_orig.jpg,108,,,,,0,108,108,108,,,,,,,,,,,,,,,,,,,-20.33203125,-5.5078125,0,0,1,0.920382022858,,,,,2015_Oct_20_1717,G,facesParametric,18,59.6850893433,
./stim/MorphM3_06_orig.jpg,109,,,,,0,109,109,109,,,,,,,,,,,,,,,,,,,-20.33203125,-5.5078125,1,0,0,1.37173891068,,,,,2015_Oct_20_1717,G,facesParametric,18,59.6850893433,
./stim/MorphF4_00_orig.jpg,110,,,,,0,110,110,110,,,,,,,,,,,,,,,,,,,-20.33203125,-5.5078125,0,0,1,1.22266697884,,,,,2015_Oct_20_1717,G,facesParametric,18,59.6850893433,
./stim/MorphM8_05_orig.jpg,111,,,,,0,111,111,111,,,,,,,,,,,,,,,,,,,-20.33203125,-5.5078125,1,0,0,1.40701603889,,,,,2015_Oct_20_1717,G,facesParametric,18,59.6850893433,
./stim/MorphF5_05_orig.jpg,112,,,,,0,112,112,112,,,,,,,,,,,,,,,,,,,-20.33203125,-5.5078125,0,0,1,1.02043890953,,,,,2015_Oct_20_1717,G,facesParametric,18,59.6850893433,
./stim/MorphF3_07_orig.jpg,113,,,,,0,113,113,113,,,,,,,,,,,,,,,,,,,-20.33203125,-5.5078125,0,0,1,1.75726604462,,,,,2015_Oct_20_1717,G,facesParametric,18,59.6850893433,
./stim/MorphF5_02_orig.jpg,114,,,,,0,114,114,114,,,,,,,,,,,,,,,,,,,-20.2734375,-5.5078125,0,0,1,3.80320692062,,,,,2015_Oct_20_1717,G,facesParametric,18,59.6850893433,
./stim/MorphM8_00_orig.jpg,115,,,,,0,115,115,115,,,,,,,,,,,,,,,,,,,-20.2734375,-5.5078125,0,0,1,2.6116528511,,,,,2015_Oct_20_1717,G,facesParametric,18,59.6850893433,
./stim/MorphM9_02_orig.jpg,116,,,,,0,116,116,116,,,,,,,,,,,,,,,,,,,-20.2734375,-5.5078125,0,0,1,1.72500801086,,,,,2015_Oct_20_1717,G,facesParametric,18,59.6850893433,
./stim/MorphF2_09_orig.jpg,117,,,,,0,117,117,117,,,,,,,,,,,,,,,,,,,-20.21484375,-5.537109375,1,0,0,0.936681985855,,,,,2015_Oct_20_1717,G,facesParametric,18,59.6850893433,
./stim/MorphF1_01_orig.jpg,118,,,,,0,118,118,118,,,,,,,,,,,,,,,,,,,-20.185546875,-5.595703125,0,0,1,0.904044866562,,,,,2015_Oct_20_1717,G,facesParametric,18,59.6850893433,
./stim/MorphF5_06_orig.jpg,119,,,,,0,119,119,119,,,,,,,,,,,,,,,,,,,-20.185546875,-5.595703125,0,0,1,1.53820180893,,,,,2015_Oct_20_1717,G,facesParametric,18,59.6850893433,
./stim/MorphF3_05_orig.jpg,120,,,,,0,120,120,120,,,,,,,,,,,,,,,,,,,-20.185546875,-5.595703125,1,0,0,1.20582795143,,,,,2015_Oct_20_1717,G,facesParametric,18,59.6850893433,
./stim/MorphF4_09_orig.jpg,121,,,,,0,121,121,121,,,,,,,,,,,,,,,,,,,-20.185546875,-5.595703125,0,0,1,0.870110988617,,,,,2015_Oct_20_1717,G,facesParametric,18,59.6850893433,
./stim/MorphF2_02_orig.jpg,122,,,,,0,122,122,122,,,,,,,,,,,,,,,,,,,-20.185546875,-5.595703125,1,0,0,2.34459900856,,,,,2015_Oct_20_1717,G,facesParametric,18,59.6850893433,
./stim/MorphF4_04_orig.jpg,123,,,,,0,123,123,123,,,,,,,,,,,,,,,,,,,-19.921875,-5.595703125,1,0,0,2.76392889023,,,,,2015_Oct_20_1717,G,facesParametric,18,59.6850893433,
./stim/MorphM8_04_orig.jpg,124,,,,,0,124,124,124,,,,,,,,,,,,,,,,,,,-19.921875,-5.595703125,1,0,0,0.701147079468,,,,,2015_Oct_20_1717,G,facesParametric,18,59.6850893433,
./stim/MorphF7_05_orig.jpg,125,,,,,0,125,125,125,,,,,,,,,,,,,,,,,,,-19.921875,-5.595703125,0,0,1,3.33350110054,,,,,2015_Oct_20_1717,G,facesParametric,18,59.6850893433,
./stim/MorphF5_08_orig.jpg,126,,,,,0,126,126,126,,,,,,,,,,,,,,,,,,,-19.921875,-5.595703125,1,0,0,1.63967990875,,,,,2015_Oct_20_1717,G,facesParametric,18,59.6850893433,
./stim/MorphM8_08_orig.jpg,127,,,,,0,127,127,127,,,,,,,,,,,,,,,,,,,-19.921875,-5.595703125,1,0,0,2.98242115974,,,,,2015_Oct_20_1717,G,facesParametric,18,59.6850893433,
./stim/MorphF10_08_orig.jpg,128,,,,,0,128,128,128,,,,,,,,,,,,,,,,,,,-19.921875,-5.595703125,1,0,0,0.836390018463,,,,,2015_Oct_20_1717,G,facesParametric,18,59.6850893433,
./stim/MorphM1_05_orig.jpg,129,,,,,0,129,129,129,,,,,,,,,,,,,,,,,,,-19.921875,-5.595703125,0,0,1,1.18881702423,,,,,2015_Oct_20_1717,G,facesParametric,18,59.6850893433,
./stim/MorphM2_06_orig.jpg,130,,,,,0,130,130,130,,,,,,,,,,,,,,,,,,,-19.892578125,-6.03515625,1,0,0,2.41176509857,,,,,2015_Oct_20_1717,G,facesParametric,18,59.6850893433,
./stim/MorphF6_06_orig.jpg,131,,,,,0,131,131,131,,,,,,,,,,,,,,,,,,,-19.892578125,-5.91796875,1,0,0,1.49062013626,,,,,2015_Oct_20_1717,G,facesParametric,18,59.6850893433,
./stim/MorphM2_08_orig.jpg,132,,,,,0,132,132,132,,,,,,,,,,,,,,,,,,,-19.951171875,-5.830078125,0,0,1,2.6133210659,,,,,2015_Oct_20_1717,G,facesParametric,18,59.6850893433,
./stim/MorphF1_00_orig.jpg,133,,,,,0,133,133,133,,,,,,,,,,,,,,,,,,,-19.951171875,-5.830078125,0,0,1,0.986248016357,,,,,2015_Oct_20_1717,G,facesParametric,18,59.6850893433,
./stim/MorphF7_04_orig.jpg,134,,,,,0,134,134,134,,,,,,,,,,,,,,,,,,,-19.951171875,-5.830078125,0,0,1,0.902770042419,,,,,2015_Oct_20_1717,G,facesParametric,18,59.6850893433,
./stim/MorphM2_03_orig.jpg,135,,,,,0,135,135,135,,,,,,,,,,,,,,,,,,,-19.921875,-5.80078125,0,0,1,1.33984208107,,,,,2015_Oct_20_1717,G,facesParametric,18,59.6850893433,
./stim/MorphM3_04_orig.jpg,136,,,,,0,136,136,136,,,,,,,,,,,,,,,,,,,-19.892578125,-5.68359375,0,0,1,1.37253403664,,,,,2015_Oct_20_1717,G,facesParametric,18,59.6850893433,
./stim/MorphM10_05_orig.jpg,137,,,,,0,137,137,137,,,,,,,,,,,,,,,,,,,-19.892578125,-5.654296875,1,0,0,2.02657794952,,,,,2015_Oct_20_1717,G,facesParametric,18,59.6850893433,
./stim/MorphM3_05_orig.jpg,138,,,,,0,138,138,138,,,,,,,,,,,,,,,,,,,-19.892578125,-5.44921875,0,0,1,1.00436997414,,,,,2015_Oct_20_1717,G,facesParametric,18,59.6850893433,
./stim/MorphM4_09_orig.jpg,139,,,,,0,139,139,139,,,,,,,,,,,,,,,,,,,-19.921875,-5.5078125,1,0,0,1.20514392853,,,,,2015_Oct_20_1717,G,facesParametric,18,59.6850893433,
./stim/MorphF5_03_orig.jpg,140,,,,,0,140,140,140,,,,,,,,,,,,,,,,,,,-19.892578125,-5.537109375,0,0,1,1.62475299835,,,,,2015_Oct_20_1717,G,facesParametric,18,59.6850893433,
./stim/MorphM1_10_orig.jpg,141,,,,,0,141,141,141,,,,,,,,,,,,,,,,,,,-19.921875,-5.56640625,0,0,1,1.89272689819,,,,,2015_Oct_20_1717,G,facesParametric,18,59.6850893433,
./stim/MorphM6_06_orig.jpg,142,,,,,0,142,142,142,,,,,,,,,,,,,,,,,,,-20.009765625,-5.771484375,0,0,1,2.84784603119,,,,,2015_Oct_20_1717,G,facesParametric,18,59.6850893433,
./stim/MorphF9_09_orig.jpg,143,,,,,0,143,143,143,,,,,,,,,,,,,,,,,,,-20.302734375,-5.91796875,0,0,1,2.39513301849,,,,,2015_Oct_20_1717,G,facesParametric,18,59.6850893433,
./stim/MorphF8_00_orig.jpg,144,,,,,0,144,144,144,,,,,,,,,,,,,,,,,,,-20.2734375,-5.859375,0,0,1,1.1547358036,,,,,2015_Oct_20_1717,G,facesParametric,18,59.6850893433,
./stim/MorphM5_03_orig.jpg,145,,,,,0,145,145,145,,,,,,,,,,,,,,,,,,,-20.2734375,-5.859375,0,0,1,1.90945100784,,,,,2015_Oct_20_1717,G,facesParametric,18,59.6850893433,
./stim/MorphF6_04_orig.jpg,146,,,,,0,146,146,146,,,,,,,,,,,,,,,,,,,-20.2734375,-5.859375,0,0,1,1.89314293861,,,,,2015_Oct_20_1717,G,facesParametric,18,59.6850893433,
./stim/MorphF5_10_orig.jpg,147,,,,,0,147,147,147,,,,,,,,,,,,,,,,,,,-20.2734375,-5.859375,1,0,0,1.40539002419,,,,,2015_Oct_20_1717,G,facesParametric,18,59.6850893433,
./stim/MorphF4_10_orig.jpg,148,,,,,0,148,148,148,,,,,,,,,,,,,,,,,,,-20.2734375,-5.859375,1,0,0,1.37302803993,,,,,2015_Oct_20_1717,G,facesParametric,18,59.6850893433,
./stim/MorphF5_01_orig.jpg,149,,,,,0,149,149,149,,,,,,,,,,,,,,,,,,,-20.2734375,-5.859375,0,0,1,0.987559080124,,,,,2015_Oct_20_1717,G,facesParametric,18,59.6850893433,
./stim/MorphF10_09_orig.jpg,150,,,,,0,150,150,150,,,,,,,,,,,,,,,,,,,-20.2734375,-5.859375,1,0,0,0.819427967072,,,,,2015_Oct_20_1717,G,facesParametric,18,59.6850893433,
./stim/MorphM6_01_orig.jpg,151,,,,,0,151,151,151,,,,,,,,,,,,,,,,,,,-20.2734375,-5.859375,0,0,1,1.60683989525,,,,,2015_Oct_20_1717,G,facesParametric,18,59.6850893433,
./stim/MorphM1_00_orig.jpg,152,,,,,0,152,152,152,,,,,,,,,,,,,,,,,,,-20.2734375,-5.859375,0,0,1,0.667098999023,,,,,2015_Oct_20_1717,G,facesParametric,18,59.6850893433,
./stim/MorphM4_04_orig.jpg,153,,,,,0,153,153,153,,,,,,,,,,,,,,,,,,,-20.2734375,-5.859375,0,0,1,1.08852696419,,,,,2015_Oct_20_1717,G,facesParametric,18,59.6850893433,
./stim/MorphM8_02_orig.jpg,154,,,,,0,154,154,154,,,,,,,,,,,,,,,,,,,-20.2734375,-5.859375,1,0,0,1.8233590126,,,,,2015_Oct_20_1717,G,facesParametric,18,59.6850893433,
./stim/MorphM5_04_orig.jpg,155,,,,,0,155,155,155,,,,,,,,,,,,,,,,,,,-20.2734375,-5.859375,1,0,0,1.38965797424,,,,,2015_Oct_20_1717,G,facesParametric,18,59.6850893433,
./stim/MorphM1_02_orig.jpg,156,,,,,0,156,156,156,,,,,,,,,,,,,,,,,,,-20.2734375,-5.859375,0,0,1,0.954018831253,,,,,2015_Oct_20_1717,G,facesParametric,18,59.6850893433,
./stim/MorphM4_00_orig.jpg,157,,,,,0,157,157,157,,,,,,,,,,,,,,,,,,,-20.2734375,-5.859375,0,0,1,0.836793899536,,,,,2015_Oct_20_1717,G,facesParametric,18,59.6850893433,
./stim/MorphF10_01_orig.jpg,158,,,,,0,158,158,158,,,,,,,,,,,,,,,,,,,-20.2734375,-5.859375,0,0,1,0.953467845917,,,,,2015_Oct_20_1717,G,facesParametric,18,59.6850893433,
./stim/MorphM9_05_orig.jpg,159,,,,,0,159,159,159,,,,,,,,,,,,,,,,,,,-20.2734375,-5.859375,1,0,0,1.0378010273,,,,,2015_Oct_20_1717,G,facesParametric,18,59.6850893433,
./stim/MorphF5_07_orig.jpg,160,,,,,0,160,160,160,,,,,,,,,,,,,,,,,,,-20.2734375,-5.859375,0,0,1,0.886506795883,,,,,2015_Oct_20_1717,G,facesParametric,18,59.6850893433,
./stim/MorphM1_08_orig.jpg,161,,,,,0,161,161,161,,,,,,,,,,,,,,,,,,,-20.0390625,-5.771484375,0,0,1,2.69700503349,,,,,2015_Oct_20_1717,G,facesParametric,18,59.6850893433,
./stim/MorphM2_07_orig.jpg,162,,,,,0,162,162,162,,,,,,,,,,,,,,,,,,,-19.892578125,-5.654296875,0,0,1,1.57203507423,,,,,2015_Oct_20_1717,G,facesParametric,18,59.6850893433,
./stim/MorphF9_00_orig.jpg,163,,,,,0,163,163,163,,,,,,,,,,,,,,,,,,,-19.892578125,-5.654296875,0,0,1,2.14328694344,,,,,2015_Oct_20_1717,G,facesParametric,18,59.6850893433,
./stim/MorphM2_05_orig.jpg,164,,,,,0,164,164,164,,,,,,,,,,,,,,,,,,,-19.892578125,-5.654296875,0,0,1,2.6800122261,,,,,2015_Oct_20_1717,G,facesParametric,18,59.6850893433,
./stim/MorphF3_00_orig.jpg,165,,,,,0,165,165,165,,,,,,,,,,,,,,,,,,,-19.892578125,-5.654296875,0,0,1,0.954369068146,,,,,2015_Oct_20_1717,G,facesParametric,18,59.6850893433,
./stim/MorphM2_02_orig.jpg,166,,,,,0,166,166,166,,,,,,,,,,,,,,,,,,,-19.892578125,-5.654296875,0,0,1,0.752907991409,,,,,2015_Oct_20_1717,G,facesParametric,18,59.6850893433,
./stim/MorphF3_02_orig.jpg,167,,,,,0,167,167,167,,,,,,,,,,,,,,,,,,,-19.892578125,-5.654296875,0,0,1,3.11396408081,,,,,2015_Oct_20_1717,G,facesParametric,18,59.6850893433,
./stim/MorphF7_01_orig.jpg,168,,,,,0,168,168,168,,,,,,,,,,,,,,,,,,,-19.892578125,-5.654296875,0,0,1,1.13847208023,,,,,2015_Oct_20_1717,G,facesParametric,18,59.6850893433,
./stim/MorphM7_02_orig.jpg,169,,,,,0,169,169,169,,,,,,,,,,,,,,,,,,,-19.892578125,-5.654296875,1,0,0,2.76437687874,,,,,2015_Oct_20_1717,G,facesParametric,18,59.6850893433,
./stim/MorphM5_09_orig.jpg,170,,,,,0,170,170,170,,,,,,,,,,,,,,,,,,,-19.892578125,-5.654296875,1,0,0,0.752762794495,,,,,2015_Oct_20_1717,G,facesParametric,18,59.6850893433,
./stim/MorphM9_07_orig.jpg,171,,,,,0,171,171,171,,,,,,,,,,,,,,,,,,,-19.892578125,-5.654296875,0,0,1,1.6242890358,,,,,2015_Oct_20_1717,G,facesParametric,18,59.6850893433,
./stim/MorphF3_08_orig.jpg,172,,,,,0,172,172,172,,,,,,,,,,,,,,,,,,,-19.892578125,-5.654296875,1,0,0,1.18912196159,,,,,2015_Oct_20_1717,G,facesParametric,18,59.6850893433,
./stim/MorphF9_06_orig.jpg,173,,,,,0,173,173,173,,,,,,,,,,,,,,,,,,,-19.892578125,-5.654296875,0,0,1,1.06882190704,,,,,2015_Oct_20_1717,G,facesParametric,18,59.6850893433,
./stim/MorphM4_02_orig.jpg,174,,,,,0,174,174,174,,,,,,,,,,,,,,,,,,,-19.892578125,-5.654296875,0,0,1,1.95942497253,,,,,2015_Oct_20_1717,G,facesParametric,18,59.6850893433,
./stim/MorphM3_07_orig.jpg,175,,,,,0,175,175,175,,,,,,,,,,,,,,,,,,,-19.892578125,-5.654296875,1,0,0,1.54052901268,,,,,2015_Oct_20_1717,G,facesParametric,18,59.6850893433,
./stim/MorphF10_03_orig.jpg,176,,,,,0,176,176,176,,,,,,,,,,,,,,,,,,,-19.892578125,-5.595703125,1,0,0,1.47302412987,,,,,2015_Oct_20_1717,G,facesParametric,18,59.6850893433,
./stim/MorphF1_05_orig.jpg,177,,,,,0,177,177,177,,,,,,,,,,,,,,,,,,,-19.892578125,-5.595703125,1,0,0,2.32854104042,,,,,2015_Oct_20_1717,G,facesParametric,18,59.6850893433,
./stim/MorphM7_06_orig.jpg,178,,,,,0,178,178,178,,,,,,,,,,,,,,,,,,,-19.892578125,-5.595703125,1,0,0,1.15347290039,,,,,2015_Oct_20_1717,G,facesParametric,18,59.6850893433,
./stim/MorphF3_09_orig.jpg,179,,,,,0,179,179,179,,,,,,,,,,,,,,,,,,,-19.892578125,-5.595703125,1,0,0,0.851407051086,,,,,2015_Oct_20_1717,G,facesParametric,18,59.6850893433,
./stim/MorphM10_08_orig.jpg,180,,,,,0,180,180,180,,,,,,,,,,,,,,,,,,,-19.892578125,-5.595703125,1,0,0,1.32317280769,,,,,2015_Oct_20_1717,G,facesParametric,18,59.6850893433,
./stim/MorphF7_03_orig.jpg,181,,,,,0,181,181,181,,,,,,,,,,,,,,,,,,,-19.892578125,-5.595703125,1,0,0,0.969588041306,,,,,2015_Oct_20_1717,G,facesParametric,18,59.6850893433,
./stim/MorphM7_07_orig.jpg,182,,,,,0,182,182,182,,,,,,,,,,,,,,,,,,,-19.892578125,-5.595703125,1,0,0,1.27228593826,,,,,2015_Oct_20_1717,G,facesParametric,18,59.6850893433,
./stim/MorphF8_01_orig.jpg,183,,,,,0,183,183,183,,,,,,,,,,,,,,,,,,,-19.892578125,-5.595703125,0,0,1,1.07067799568,,,,,2015_Oct_20_1717,G,facesParametric,18,59.6850893433,
./stim/MorphM7_05_orig.jpg,184,,,,,0,184,184,184,,,,,,,,,,,,,,,,,,,-20.009765625,-5.712890625,1,0,0,1.1554338932,,,,,2015_Oct_20_1717,G,facesParametric,18,59.6850893433,
./stim/MorphF1_03_orig.jpg,185,,,,,0,185,185,185,,,,,,,,,,,,,,,,,,,-20.009765625,-5.712890625,0,0,1,1.05454897881,,,,,2015_Oct_20_1717,G,facesParametric,18,59.6850893433,
./stim/MorphF4_03_orig.jpg,186,,,,,0,186,186,186,,,,,,,,,,,,,,,,,,,-20.009765625,-5.712890625,0,0,1,0.970758914948,,,,,2015_Oct_20_1717,G,facesParametric,18,59.6850893433,
./stim/MorphM7_10_orig.jpg,187,,,,,0,187,187,187,,,,,,,,,,,,,,,,,,,-19.98046875,-5.7421875,1,0,0,1.0209069252,,,,,2015_Oct_20_1717,G,facesParametric,18,59.6850893433,
./stim/MorphF8_07_orig.jpg,188,,,,,0,188,188,188,,,,,,,,,,,,,,,,,,,-19.86328125,-5.859375,1,0,0,1.97519302368,,,,,2015_Oct_20_1717,G,facesParametric,18,59.6850893433,
./stim/MorphF10_10_orig.jpg,189,,,,,0,189,189,189,,,,,,,,,,,,,,,,,,,-19.775390625,-5.91796875,1,0,0,0.719647884369,,,,,2015_Oct_20_1717,G,facesParametric,18,59.6850893433,
./stim/MorphF3_04_orig.jpg,190,,,,,0,190,190,190,,,,,,,,,,,,,,,,,,,-19.892578125,-5.9765625,0,0,1,0.786466121674,,,,,2015_Oct_20_1717,G,facesParametric,18,59.6850893433,
./stim/MorphM7_08_orig.jpg,191,,,,,0,191,191,191,,,,,,,,,,,,,,,,,,,-20.009765625,-5.9765625,1,0,0,1.60745596886,,,,,2015_Oct_20_1717,G,facesParametric,18,59.6850893433,
./stim/MorphM3_03_orig.jpg,192,,,,,0,192,192,192,,,,,,,,,,,,,,,,,,,-19.951171875,-5.888671875,0,0,1,1.33803200722,,,,,2015_Oct_20_1717,G,facesParametric,18,59.6850893433,
./stim/MorphF4_06_orig.jpg,193,,,,,0,193,193,193,,,,,,,,,,,,,,,,,,,-19.86328125,-5.9765625,0,0,1,1.43879580498,,,,,2015_Oct_20_1717,G,facesParametric,18,59.6850893433,
./stim/MorphM4_08_orig.jpg,194,,,,,0,194,194,194,,,,,,,,,,,,,,,,,,,-19.86328125,-5.9765625,1,0,0,2.01002192497,,,,,2015_Oct_20_1717,G,facesParametric,18,59.6850893433,
./stim/MorphM5_01_orig.jpg,195,,,,,0,195,195,195,,,,,,,,,,,,,,,,,,,-19.833984375,-6.005859375,0,0,1,1.28914785385,,,,,2015_Oct_20_1717,G,facesParametric,18,59.6850893433,
./stim/MorphM8_06_orig.jpg,196,,,,,0,196,196,196,,,,,,,,,,,,,,,,,,,-19.833984375,-6.005859375,1,0,0,2.27836990356,,,,,2015_Oct_20_1717,G,facesParametric,18,59.6850893433,
./stim/MorphM1_03_orig.jpg,197,,,,,0,197,197,197,,,,,,,,,,,,,,,,,,,-19.86328125,-6.03515625,0,0,1,1.28932881355,,,,,2015_Oct_20_1717,G,facesParametric,18,59.6850893433,
./stim/MorphF9_10_orig.jpg,198,,,,,0,198,198,198,,,,,,,,,,,,,,,,,,,-19.921875,-5.888671875,1,0,0,1.9592769146,,,,,2015_Oct_20_1717,G,facesParametric,18,59.6850893433,
./stim/MorphM6_10_orig.jpg,199,,,,,0,199,199,199,,,,,,,,,,,,,,,,,,,-19.921875,-5.830078125,1,0,0,1.18897008896,,,,,2015_Oct_20_1717,G,facesParametric,18,59.6850893433,
./stim/MorphF8_03_orig.jpg,200,,,,,0,200,200,200,,,,,,,,,,,,,,,,,,,-19.921875,-5.830078125,0,0,1,0.953104972839,,,,,2015_Oct_20_1717,G,facesParametric,18,59.6850893433,
./stim/MorphM6_02_orig.jpg,201,,,,,0,201,201,201,,,,,,,,,,,,,,,,,,,-19.921875,-5.830078125,0,0,1,1.95956492424,,,,,2015_Oct_20_1717,G,facesParametric,18,59.6850893433,
./stim/MorphF2_06_orig.jpg,202,,,,,0,202,202,202,,,,,,,,,,,,,,,,,,,-19.98046875,-12.568359375,0,0,1,4.8406560421,,,,,2015_Oct_20_1717,G,facesParametric,18,59.6850893433,
./stim/MorphF1_10_orig.jpg,203,,,,,0,203,203,203,,,,,,,,,,,,,,,,,,,-16.611328125,-10.72265625,1,0,0,1.79102993011,,,,,2015_Oct_20_1717,G,facesParametric,18,59.6850893433,
./stim/MorphM10_07_orig.jpg,204,,,,,0,204,204,204,,,,,,,,,,,,,,,,,,,-16.083984375,-9.638671875,1,0,0,1.54106593132,,,,,2015_Oct_20_1717,G,facesParametric,18,59.6850893433,
./stim/MorphM9_06_orig.jpg,205,,,,,0,205,205,205,,,,,,,,,,,,,,,,,,,-15.966796875,-7.1484375,1,0,0,2.22734498978,,,,,2015_Oct_20_1717,G,facesParametric,18,59.6850893433,
./stim/MorphM5_00_orig.jpg,206,,,,,0,206,206,206,,,,,,,,,,,,,,,,,,,-15.791015625,-7.265625,0,0,1,1.2880179882,,,,,2015_Oct_20_1717,G,facesParametric,18,59.6850893433,
./stim/MorphM6_09_orig.jpg,207,,,,,0,207,207,207,,,,,,,,,,,,,,,,,,,-15.498046875,-7.08984375,1,0,0,1.5907740593,,,,,2015_Oct_20_1717,G,facesParametric,18,59.6850893433,
./stim/MorphF9_08_orig.jpg,208,,,,,0,208,208,208,,,,,,,,,,,,,,,,,,,-15.46875,-7.08984375,1,0,0,2.69705915451,,,,,2015_Oct_20_1717,G,facesParametric,18,59.6850893433,
./stim/MorphF10_05_orig.jpg,209,,,,,0,209,209,209,,,,,,,,,,,,,,,,,,,-15.3515625,-7.03125,0,0,1,1.00470495224,,,,,2015_Oct_20_1717,G,facesParametric,18,59.6850893433,
./stim/MorphM4_05_orig.jpg,210,,,,,0,210,210,210,,,,,,,,,,,,,,,,,,,-15.3515625,-7.03125,1,0,0,2.29513001442,,,,,2015_Oct_20_1717,G,facesParametric,18,59.6850893433,
./stim/MorphF2_08_orig.jpg,211,,,,,0,211,211,211,,,,,,,,,,,,,,,,,,,-15.3515625,-7.03125,1,0,0,2.42813801765,,,,,2015_Oct_20_1717,G,facesParametric,18,59.6850893433,
./stim/MorphM10_06_orig.jpg,212,,,,,0,212,212,212,,,,,,,,,,,,,,,,,,,-15.322265625,-7.001953125,1,0,0,1.70640993118,,,,,2015_Oct_20_1717,G,facesParametric,18,59.6850893433,
./stim/MorphM7_09_orig.jpg,213,,,,,0,213,213,213,,,,,,,,,,,,,,,,,,,-15.1171875,-7.001953125,1,0,0,1.30597782135,,,,,2015_Oct_20_1717,G,facesParametric,18,59.6850893433,
./stim/MorphF5_00_orig.jpg,214,,,,,0,214,214,214,,,,,,,,,,,,,,,,,,,-14.94140625,-6.943359375,0,0,1,1.10449194908,,,,,2015_Oct_20_1717,G,facesParametric,18,59.6850893433,
./stim/MorphF2_03_orig.jpg,215,,,,,0,215,215,215,,,,,,,,,,,,,,,,,,,-14.736328125,-7.20703125,1,0,0,1.75822615623,,,,,2015_Oct_20_1717,G,facesParametric,18,59.6850893433,
./stim/MorphM5_10_orig.jpg,216,,,,,0,216,216,216,,,,,,,,,,,,,,,,,,,-14.501953125,-7.060546875,1,0,0,2.57954216003,,,,,2015_Oct_20_1717,G,facesParametric,18,59.6850893433,
./stim/MorphM2_09_orig.jpg,217,,,,,0,217,217,217,,,,,,,,,,,,,,,,,,,-14.443359375,-7.08984375,1,0,0,0.902839899063,,,,,2015_Oct_20_1717,G,facesParametric,18,59.6850893433,
./stim/MorphF8_02_orig.jpg,218,,,,,0,218,218,218,,,,,,,,,,,,,,,,,,,-14.443359375,-7.08984375,0,0,1,1.25544905663,,,,,2015_Oct_20_1717,G,facesParametric,18,59.6850893433,
./stim/MorphM8_01_orig.jpg,219,,,,,0,219,219,219,,,,,,,,,,,,,,,,,,,-14.443359375,-7.08984375,0,0,1,2.14387798309,,,,,2015_Oct_20_1717,G,facesParametric,18,59.6850893433,
,,,,,,,,,,,,,,,,,,,,,,,,,,,,,,,,,,return,4.91034889221,,,2015_Oct_20_1717,G,facesParametric,18,59.6850893433,
./stim/MorphF2_06_orig.jpg,0,,,,,,,,,0,0,0,0,,,,,,,,,,,,,,,-13.359375,-4.189453125,0,0,1,2.77945303917,,,,,2015_Oct_20_1717,G,facesParametric,18,59.6850893433,
./stim/MorphF8_03_orig.jpg,1,,,,,,,,,0,1,1,1,,,,,,,,,,,,,,,-12.71484375,-3.45703125,0,0,1,5.1739590168,,,,,2015_Oct_20_1717,G,facesParametric,18,59.6850893433,
./stim/MorphM1_00_orig.jpg,2,,,,,,,,,0,2,2,2,,,,,,,,,,,,,,,-13.037109375,-3.603515625,0,0,1,1.80856704712,,,,,2015_Oct_20_1717,G,facesParametric,18,59.6850893433,
./stim/MorphM4_10_orig.jpg,3,,,,,,,,,0,3,3,3,,,,,,,,,,,,,,,-12.65625,-3.3984375,1,0,0,1.07157278061,,,,,2015_Oct_20_1717,G,facesParametric,18,59.6850893433,
./stim/MorphM6_10_orig.jpg,4,,,,,,,,,0,4,4,4,,,,,,,,,,,,,,,-12.333984375,-3.193359375,1,0,0,1.65786099434,,,,,2015_Oct_20_1717,G,facesParametric,18,59.6850893433,
./stim/MorphF7_08_orig.jpg,5,,,,,,,,,0,5,5,5,,,,,,,,,,,,,,,-12.275390625,-3.33984375,0,0,1,1.03778815269,,,,,2015_Oct_20_1717,G,facesParametric,18,59.6850893433,
./stim/MorphM5_06_orig.jpg,6,,,,,,,,,0,6,6,6,,,,,,,,,,,,,,,-12.216796875,-3.310546875,1,0,0,1.87393712997,,,,,2015_Oct_20_1717,G,facesParametric,18,59.6850893433,
./stim/MorphM6_08_orig.jpg,7,,,,,,,,,0,7,7,7,,,,,,,,,,,,,,,-12.158203125,-3.45703125,1,0,0,1.69167709351,,,,,2015_Oct_20_1717,G,facesParametric,18,59.6850893433,
./stim/MorphF3_03_orig.jpg,8,,,,,,,,,0,8,8,8,,,,,,,,,,,,,,,-12.5390625,-3.45703125,0,0,1,2.09338593483,,,,,2015_Oct_20_1717,G,facesParametric,18,59.6850893433,
./stim/MorphM6_02_orig.jpg,9,,,,,,,,,0,9,9,9,,,,,,,,,,,,,,,-12.568359375,-3.8671875,0,0,1,4.70829916,,,,,2015_Oct_20_1717,G,facesParametric,18,59.6850893433,
./stim/MorphF9_09_orig.jpg,10,,,,,,,,,0,10,10,10,,,,,,,,,,,,,,,-12.1875,-3.427734375,1,0,0,1.15531897545,,,,,2015_Oct_20_1717,G,facesParametric,18,59.6850893433,
./stim/MorphF10_06_orig.jpg,11,,,,,,,,,0,11,11,11,,,,,,,,,,,,,,,-12.48046875,-3.75,0,0,1,3.88686513901,,,,,2015_Oct_20_1717,G,facesParametric,18,59.6850893433,
./stim/MorphF4_01_orig.jpg,12,,,,,,,,,0,12,12,12,,,,,,,,,,,,,,,-12.626953125,-3.603515625,0,0,1,2.00966191292,,,,,2015_Oct_20_1717,G,facesParametric,18,59.6850893433,
./stim/MorphM6_07_orig.jpg,13,,,,,,,,,0,13,13,13,,,,,,,,,,,,,,,-12.392578125,-3.57421875,1,0,0,1.69149899483,,,,,2015_Oct_20_1717,G,facesParametric,18,59.6850893433,
./stim/MorphM9_02_orig.jpg,14,,,,,,,,,0,14,14,14,,,,,,,,,,,,,,,-11.953125,-2.607421875,0,0,1,5.39529800415,,,,,2015_Oct_20_1717,G,facesParametric,18,59.6850893433,
./stim/MorphM6_06_orig.jpg,15,,,,,,,,,0,15,15,15,,,,,,,,,,,,,,,-11.748046875,-2.431640625,0,0,1,0.902525901794,,,,,2015_Oct_20_1717,G,facesParametric,18,59.6850893433,
./stim/MorphM9_06_orig.jpg,16,,,,,,,,,0,16,16,16,,,,,,,,,,,,,,,-11.8359375,-2.87109375,0,0,1,1.64128494263,,,,,2015_Oct_20_1717,G,facesParametric,18,59.6850893433,
./stim/MorphF7_10_orig.jpg,17,,,,,,,,,0,17,17,17,,,,,,,,,,,,,,,-11.748046875,-2.8125,1,0,0,0.870275974274,,,,,2015_Oct_20_1717,G,facesParametric,18,59.6850893433,
./stim/MorphM3_07_orig.jpg,18,,,,,,,,,0,18,18,18,,,,,,,,,,,,,,,-11.630859375,-2.75390625,1,0,0,2.1944258213,,,,,2015_Oct_20_1717,G,facesParametric,18,59.6850893433,
./stim/MorphF5_04_orig.jpg,19,,,,,,,,,0,19,19,19,,,,,,,,,,,,,,,-11.630859375,-2.75390625,0,0,1,1.08789610863,,,,,2015_Oct_20_1717,G,facesParametric,18,59.6850893433,
./stim/MorphF10_01_orig.jpg,20,,,,,,,,,0,20,20,20,,,,,,,,,,,,,,,-11.572265625,-2.724609375,0,0,1,1.80846405029,,,,,2015_Oct_20_1717,G,facesParametric,18,59.6850893433,
./stim/MorphF6_07_orig.jpg,21,,,,,,,,,0,21,21,21,,,,,,,,,,,,,,,-11.572265625,-2.783203125,1,0,0,1.22138595581,,,,,2015_Oct_20_1717,G,facesParametric,18,59.6850893433,
./stim/MorphF8_01_orig.jpg,22,,,,,,,,,0,22,22,22,,,,,,,,,,,,,,,-11.572265625,-2.783203125,0,0,1,1.12201714516,,,,,2015_Oct_20_1717,G,facesParametric,18,59.6850893433,
./stim/MorphM10_09_orig.jpg,23,,,,,,,,,0,23,23,23,,,,,,,,,,,,,,,-11.6015625,-2.783203125,1,0,0,0.985270023346,,,,,2015_Oct_20_1717,G,facesParametric,18,59.6850893433,
./stim/MorphM3_05_orig.jpg,24,,,,,,,,,0,24,24,24,,,,,,,,,,,,,,,-11.6015625,-2.783203125,0,0,1,0.95463013649,,,,,2015_Oct_20_1717,G,facesParametric,18,59.6850893433,
./stim/MorphF8_06_orig.jpg,25,,,,,,,,,0,25,25,25,,,,,,,,,,,,,,,-11.630859375,-2.783203125,0,0,1,1.00167703629,,,,,2015_Oct_20_1717,G,facesParametric,18,59.6850893433,
./stim/MorphM3_00_orig.jpg,26,,,,,,,,,0,26,26,26,,,,,,,,,,,,,,,-11.66015625,-2.783203125,0,0,1,0.953989982605,,,,,2015_Oct_20_1717,G,facesParametric,18,59.6850893433,
./stim/MorphM4_01_orig.jpg,27,,,,,,,,,0,27,27,27,,,,,,,,,,,,,,,-11.66015625,-2.783203125,0,0,1,1.13835811615,,,,,2015_Oct_20_1717,G,facesParametric,18,59.6850893433,
./stim/MorphF7_07_orig.jpg,28,,,,,,,,,0,28,28,28,,,,,,,,,,,,,,,-11.66015625,-2.783203125,1,0,0,1.10462093353,,,,,2015_Oct_20_1717,G,facesParametric,18,59.6850893433,
./stim/MorphF10_07_orig.jpg,29,,,,,,,,,0,29,29,29,,,,,,,,,,,,,,,-11.66015625,-2.783203125,1,0,0,1.25629210472,,,,,2015_Oct_20_1717,G,facesParametric,18,59.6850893433,
./stim/MorphM10_02_orig.jpg,30,,,,,,,,,0,30,30,30,,,,,,,,,,,,,,,-11.689453125,-2.783203125,0,0,1,1.45470690727,,,,,2015_Oct_20_1717,G,facesParametric,18,59.6850893433,
./stim/MorphM1_05_orig.jpg,31,,,,,,,,,0,31,31,31,,,,,,,,,,,,,,,-11.748046875,-2.783203125,0,0,1,1.42306995392,,,,,2015_Oct_20_1717,G,facesParametric,18,59.6850893433,
./stim/MorphM5_08_orig.jpg,32,,,,,,,,,0,32,32,32,,,,,,,,,,,,,,,-11.748046875,-2.783203125,1,0,0,1.15528082848,,,,,2015_Oct_20_1717,G,facesParametric,18,59.6850893433,
./stim/MorphM4_04_orig.jpg,33,,,,,,,,,0,33,33,33,,,,,,,,,,,,,,,-11.748046875,-2.783203125,0,0,1,3.08222103119,,,,,2015_Oct_20_1717,G,facesParametric,18,59.6850893433,
./stim/MorphM5_04_orig.jpg,34,,,,,,,,,0,34,34,34,,,,,,,,,,,,,,,-11.71875,-2.8125,0,0,1,2.19384789467,,,,,2015_Oct_20_1717,G,facesParametric,18,59.6850893433,
./stim/MorphM9_01_orig.jpg,35,,,,,,,,,0,35,35,35,,,,,,,,,,,,,,,-11.689453125,-2.8125,0,0,1,1.03831887245,,,,,2015_Oct_20_1717,G,facesParametric,18,59.6850893433,
./stim/MorphF6_09_orig.jpg,36,,,,,,,,,0,36,36,36,,,,,,,,,,,,,,,-11.689453125,-2.8125,1,0,0,0.987133979797,,,,,2015_Oct_20_1717,G,facesParametric,18,59.6850893433,
./stim/MorphM10_07_orig.jpg,37,,,,,,,,,0,37,37,37,,,,,,,,,,,,,,,-11.689453125,-2.8125,1,0,0,1.15564393997,,,,,2015_Oct_20_1717,G,facesParametric,18,59.6850893433,
./stim/MorphF7_03_orig.jpg,38,,,,,,,,,0,38,38,38,,,,,,,,,,,,,,,-11.689453125,-2.8125,0,0,1,1.38900399208,,,,,2015_Oct_20_1717,G,facesParametric,18,59.6850893433,
./stim/MorphM9_10_orig.jpg,39,,,,,,,,,0,39,39,39,,,,,,,,,,,,,,,-11.689453125,-2.8125,1,0,0,1.00463199615,,,,,2015_Oct_20_1717,G,facesParametric,18,59.6850893433,
./stim/MorphM1_08_orig.jpg,40,,,,,,,,,0,40,40,40,,,,,,,,,,,,,,,-11.630859375,-2.841796875,1,0,0,1.74172902107,,,,,2015_Oct_20_1717,G,facesParametric,18,59.6850893433,
./stim/MorphF6_06_orig.jpg,41,,,,,,,,,0,41,41,41,,,,,,,,,,,,,,,-11.42578125,-2.9296875,0,0,1,3.31704211235,,,,,2015_Oct_20_1717,G,facesParametric,18,59.6850893433,
./stim/MorphF4_06_orig.jpg,42,,,,,,,,,0,42,42,42,,,,,,,,,,,,,,,-11.42578125,-2.9296875,1,0,0,2.24383497238,,,,,2015_Oct_20_1717,G,facesParametric,18,59.6850893433,
./stim/MorphF3_02_orig.jpg,43,,,,,,,,,0,43,43,43,,,,,,,,,,,,,,,-11.3671875,-2.9296875,0,0,1,0.903869867325,,,,,2015_Oct_20_1717,G,facesParametric,18,59.6850893433,
./stim/MorphF7_04_orig.jpg,44,,,,,,,,,0,44,44,44,,,,,,,,,,,,,,,-11.3671875,-2.9296875,0,0,1,1.12165403366,,,,,2015_Oct_20_1717,G,facesParametric,18,59.6850893433,
./stim/MorphF3_07_orig.jpg,45,,,,,,,,,0,45,45,45,,,,,,,,,,,,,,,-11.3671875,-2.9296875,1,0,0,1.10510993004,,,,,2015_Oct_20_1717,G,facesParametric,18,59.6850893433,
./stim/MorphF6_03_orig.jpg,46,,,,,,,,,0,46,46,46,,,,,,,,,,,,,,,-11.3671875,-2.9296875,0,0,1,1.43835711479,,,,,2015_Oct_20_1717,G,facesParametric,18,59.6850893433,
./stim/MorphF8_04_orig.jpg,47,,,,,,,,,0,47,47,47,,,,,,,,,,,,,,,-11.3671875,-2.666015625,0,0,1,1.00474381447,,,,,2015_Oct_20_1717,G,facesParametric,18,59.6850893433,
./stim/MorphM2_04_orig.jpg,48,,,,,,,,,0,48,48,48,,,,,,,,,,,,,,,-10.95703125,-2.6953125,0,0,1,1.00317907333,,,,,2015_Oct_20_1717,G,facesParametric,18,59.6850893433,
./stim/MorphM8_07_orig.jpg,49,,,,,,,,,0,49,49,49,,,,,,,,,,,,,,,-10.546875,-2.255859375,1,0,0,1.77492403984,,,,,2015_Oct_20_1717,G,facesParametric,18,59.6850893433,
./stim/MorphM7_06_orig.jpg,50,,,,,,,,,0,50,50,50,,,,,,,,,,,,,,,-10.48828125,-2.197265625,1,0,0,0.853653907776,,,,,2015_Oct_20_1717,G,facesParametric,18,59.6850893433,
./stim/MorphF6_04_orig.jpg,51,,,,,,,,,0,51,51,51,,,,,,,,,,,,,,,-10.48828125,-2.197265625,0,0,1,1.11976695061,,,,,2015_Oct_20_1717,G,facesParametric,18,59.6850893433,
./stim/MorphM5_05_orig.jpg,52,,,,,,,,,0,52,52,52,,,,,,,,,,,,,,,-10.48828125,-2.197265625,0,0,1,1.50767207146,,,,,2015_Oct_20_1717,G,facesParametric,18,59.6850893433,
./stim/MorphF2_04_orig.jpg,53,,,,,,,,,0,53,53,53,,,,,,,,,,,,,,,-10.48828125,-2.197265625,1,0,0,1.48866391182,,,,,2015_Oct_20_1717,G,facesParametric,18,59.6850893433,
./stim/MorphF9_07_orig.jpg,54,,,,,,,,,0,54,54,54,,,,,,,,,,,,,,,-10.48828125,-2.197265625,1,0,0,2.16007995605,,,,,2015_Oct_20_1717,G,facesParametric,18,59.6850893433,
./stim/MorphM3_03_orig.jpg,55,,,,,,,,,0,55,55,55,,,,,,,,,,,,,,,-10.48828125,-2.197265625,0,0,1,0.770004987717,,,,,2015_Oct_20_1717,G,facesParametric,18,59.6850893433,
./stim/MorphM7_02_orig.jpg,56,,,,,,,,,0,56,56,56,,,,,,,,,,,,,,,-10.458984375,-2.2265625,0,0,1,2.44507789612,,,,,2015_Oct_20_1717,G,facesParametric,18,59.6850893433,
./stim/MorphF10_05_orig.jpg,57,,,,,,,,,0,57,57,57,,,,,,,,,,,,,,,-10.458984375,-2.2265625,1,0,0,1.18595910072,,,,,2015_Oct_20_1717,G,facesParametric,18,59.6850893433,
./stim/MorphF6_01_orig.jpg,58,,,,,,,,,0,58,58,58,,,,,,,,,,,,,,,-10.458984375,-2.2265625,0,0,1,1.27174401283,,,,,2015_Oct_20_1717,G,facesParametric,18,59.6850893433,
./stim/MorphF3_05_orig.jpg,59,,,,,,,,,0,59,59,59,,,,,,,,,,,,,,,-10.458984375,-2.2265625,0,0,1,0.98783493042,,,,,2015_Oct_20_1717,G,facesParametric,18,59.6850893433,
./stim/MorphF1_10_orig.jpg,60,,,,,,,,,0,60,60,60,,,,,,,,,,,,,,,-10.4296875,-2.28515625,1,0,0,2.34489297867,,,,,2015_Oct_20_1717,G,facesParametric,18,59.6850893433,
./stim/MorphM5_00_orig.jpg,61,,,,,,,,,0,61,61,61,,,,,,,,,,,,,,,-10.4296875,-2.34375,1,0,0,1.8257920742,,,,,2015_Oct_20_1717,G,facesParametric,18,59.6850893433,
./stim/MorphF9_06_orig.jpg,62,,,,,,,,,0,62,62,62,,,,,,,,,,,,,,,-10.4296875,-2.34375,0,0,1,2.12468409538,,,,,2015_Oct_20_1717,G,facesParametric,18,59.6850893433,
./stim/MorphF2_00_orig.jpg,63,,,,,,,,,0,63,63,63,,,,,,,,,,,,,,,-10.4296875,-2.34375,0,0,1,1.54195284843,,,,,2015_Oct_20_1717,G,facesParametric,18,59.6850893433,
./stim/MorphM2_07_orig.jpg,64,,,,,,,,,0,64,64,64,,,,,,,,,,,,,,,-10.4296875,-2.34375,0,0,1,3.23030209541,,,,,2015_Oct_20_1717,G,facesParametric,18,59.6850893433,
./stim/MorphF2_03_orig.jpg,65,,,,,,,,,0,65,65,65,,,,,,,,,,,,,,,-10.4296875,-2.34375,0,0,1,1.49071478844,,,,,2015_Oct_20_1717,G,facesParametric,18,59.6850893433,
./stim/MorphM6_09_orig.jpg,66,,,,,,,,,0,66,66,66,,,,,,,,,,,,,,,-10.4296875,-2.34375,1,0,0,1.23875713348,,,,,2015_Oct_20_1717,G,facesParametric,18,59.6850893433,
./stim/MorphF2_08_orig.jpg,67,,,,,,,,,0,67,67,67,,,,,,,,,,,,,,,-10.4296875,-2.34375,1,0,0,1.7084839344,,,,,2015_Oct_20_1717,G,facesParametric,18,59.6850893433,
./stim/MorphM7_01_orig.jpg,68,,,,,,,,,0,68,68,68,,,,,,,,,,,,,,,-10.4296875,-2.34375,0,0,1,1.99331688881,,,,,2015_Oct_20_1717,G,facesParametric,18,59.6850893433,
./stim/MorphF10_02_orig.jpg,69,,,,,,,,,0,69,69,69,,,,,,,,,,,,,,,-10.4296875,-2.34375,0,0,1,1.07082509995,,,,,2015_Oct_20_1717,G,facesParametric,18,59.6850893433,
./stim/MorphM6_01_orig.jpg,70,,,,,,,,,0,70,70,70,,,,,,,,,,,,,,,-10.4296875,-2.34375,0,0,1,1.3063120842,,,,,2015_Oct_20_1717,G,facesParametric,18,59.6850893433,
./stim/MorphM2_05_orig.jpg,71,,,,,,,,,0,71,71,71,,,,,,,,,,,,,,,-10.4296875,-2.34375,0,0,1,0.85302400589,,,,,2015_Oct_20_1717,G,facesParametric,18,59.6850893433,
./stim/MorphF5_03_orig.jpg,72,,,,,,,,,0,72,72,72,,,,,,,,,,,,,,,-10.4296875,-2.34375,0,0,1,1.40603899956,,,,,2015_Oct_20_1717,G,facesParametric,18,59.6850893433,
./stim/MorphF1_07_orig.jpg,73,,,,,,,,,0,73,73,73,,,,,,,,,,,,,,,-10.48828125,-2.373046875,0,0,1,2.76299309731,,,,,2015_Oct_20_1717,G,facesParametric,18,59.6850893433,
./stim/MorphF9_00_orig.jpg,74,,,,,,,,,0,74,74,74,,,,,,,,,,,,,,,-10.517578125,-2.40234375,0,0,1,1.52415204048,,,,,2015_Oct_20_1717,G,facesParametric,18,59.6850893433,
./stim/MorphF1_00_orig.jpg,75,,,,,,,,,0,75,75,75,,,,,,,,,,,,,,,-10.517578125,-2.40234375,0,0,1,1.60744810104,,,,,2015_Oct_20_1717,G,facesParametric,18,59.6850893433,
./stim/MorphM7_00_orig.jpg,76,,,,,,,,,0,76,76,76,,,,,,,,,,,,,,,-10.517578125,-2.40234375,1,0,0,0.868942975998,,,,,2015_Oct_20_1717,G,facesParametric,18,59.6850893433,
./stim/MorphF1_06_orig.jpg,77,,,,,,,,,0,77,77,77,,,,,,,,,,,,,,,-10.546875,-2.373046875,1,0,0,1.6076900959,,,,,2015_Oct_20_1717,G,facesParametric,18,59.6850893433,
./stim/MorphM8_09_orig.jpg,78,,,,,,,,,0,78,78,78,,,,,,,,,,,,,,,-10.546875,-2.373046875,1,0,0,1.07089710236,,,,,2015_Oct_20_1717,G,facesParametric,18,59.6850893433,
./stim/MorphM4_06_orig.jpg,79,,,,,,,,,0,79,79,79,,,,,,,,,,,,,,,-10.37109375,-2.16796875,1,0,0,1.00278115273,,,,,2015_Oct_20_1717,G,facesParametric,18,59.6850893433,
./stim/MorphF3_06_orig.jpg,80,,,,,,,,,0,80,80,80,,,,,,,,,,,,,,,-10.37109375,-2.16796875,1,0,0,0.954124927521,,,,,2015_Oct_20_1717,G,facesParametric,18,59.6850893433,
./stim/MorphF9_10_orig.jpg,81,,,,,,,,,0,81,81,81,,,,,,,,,,,,,,,-10.4296875,-2.255859375,1,0,0,1.10516095161,,,,,2015_Oct_20_1717,G,facesParametric,18,59.6850893433,
./stim/MorphF1_05_orig.jpg,82,,,,,,,,,0,82,82,82,,,,,,,,,,,,,,,-10.4296875,-2.255859375,1,0,0,2.52790307999,,,,,2015_Oct_20_1717,G,facesParametric,18,59.6850893433,
./stim/MorphF7_06_orig.jpg,83,,,,,,,,,0,83,83,83,,,,,,,,,,,,,,,-10.576171875,-2.109375,0,0,1,3.31740999222,,,,,2015_Oct_20_1717,G,facesParametric,18,59.6850893433,
./stim/MorphM5_09_orig.jpg,84,,,,,,,,,0,84,84,84,,,,,,,,,,,,,,,-10.60546875,-2.080078125,1,0,0,0.784154891968,,,,,2015_Oct_20_1717,G,facesParametric,18,59.6850893433,
./stim/MorphM1_09_orig.jpg,85,,,,,,,,,0,85,85,85,,,,,,,,,,,,,,,-10.60546875,-2.080078125,1,0,0,1.28925204277,,,,,2015_Oct_20_1717,G,facesParametric,18,59.6850893433,
./stim/MorphF3_08_orig.jpg,86,,,,,,,,,0,86,86,86,,,,,,,,,,,,,,,-10.60546875,-2.080078125,1,0,0,0.867762088776,,,,,2015_Oct_20_1717,G,facesParametric,18,59.6850893433,
./stim/MorphM3_06_orig.jpg,87,,,,,,,,,0,87,87,87,,,,,,,,,,,,,,,-10.60546875,-2.080078125,0,0,1,1.39041209221,,,,,2015_Oct_20_1717,G,facesParametric,18,59.6850893433,
./stim/MorphM1_01_orig.jpg,88,,,,,,,,,0,88,88,88,,,,,,,,,,,,,,,-10.634765625,-2.05078125,0,0,1,1.4560148716,,,,,2015_Oct_20_1717,G,facesParametric,18,59.6850893433,
./stim/MorphF10_03_orig.jpg,89,,,,,,,,,0,89,89,89,,,,,,,,,,,,,,,-10.634765625,-2.05078125,1,0,0,2.16095399857,,,,,2015_Oct_20_1717,G,facesParametric,18,59.6850893433,
./stim/MorphF4_10_orig.jpg,90,,,,,,,,,0,90,90,90,,,,,,,,,,,,,,,-10.634765625,-2.05078125,1,0,0,1.02115488052,,,,,2015_Oct_20_1717,G,facesParametric,18,59.6850893433,
./stim/MorphF9_08_orig.jpg,91,,,,,,,,,0,91,91,91,,,,,,,,,,,,,,,-10.634765625,-2.05078125,1,0,0,1.22118282318,,,,,2015_Oct_20_1717,G,facesParametric,18,59.6850893433,
./stim/MorphF7_00_orig.jpg,92,,,,,,,,,0,92,92,92,,,,,,,,,,,,,,,-10.634765625,-2.05078125,0,0,1,1.67438602448,,,,,2015_Oct_20_1717,G,facesParametric,18,59.6850893433,
./stim/MorphF2_07_orig.jpg,93,,,,,,,,,0,93,93,93,,,,,,,,,,,,,,,-10.3125,-1.93359375,1,0,0,1.07137298584,,,,,2015_Oct_20_1717,G,facesParametric,18,59.6850893433,
./stim/MorphF7_01_orig.jpg,94,,,,,,,,,0,94,94,94,,,,,,,,,,,,,,,-10.048828125,-1.904296875,0,0,1,0.802779197693,,,,,2015_Oct_20_1717,G,facesParametric,18,59.6850893433,
./stim/MorphF10_09_orig.jpg,95,,,,,,,,,0,95,95,95,,,,,,,,,,,,,,,-10.224609375,-2.021484375,1,0,0,1.01941394806,,,,,2015_Oct_20_1717,G,facesParametric,18,59.6850893433,
./stim/MorphF8_09_orig.jpg,96,,,,,,,,,0,96,96,96,,,,,,,,,,,,,,,-10.224609375,-1.962890625,1,0,0,1.43992209435,,,,,2015_Oct_20_1717,G,facesParametric,18,59.6850893433,
./stim/MorphF4_08_orig.jpg,97,,,,,,,,,0,97,97,97,,,,,,,,,,,,,,,-10.25390625,-1.93359375,1,0,0,0.95265007019,,,,,2015_Oct_20_1717,G,facesParametric,18,59.6850893433,
./stim/MorphF8_07_orig.jpg,98,,,,,,,,,0,98,98,98,,,,,,,,,,,,,,,-10.25390625,-1.93359375,1,0,0,1.23899912834,,,,,2015_Oct_20_1717,G,facesParametric,18,59.6850893433,
./stim/MorphF6_10_orig.jpg,99,,,,,,,,,0,99,99,99,,,,,,,,,,,,,,,-10.25390625,-1.93359375,1,0,0,1.03720903397,,,,,2015_Oct_20_1717,G,facesParametric,18,59.6850893433,
./stim/MorphF3_00_orig.jpg,100,,,,,,,,,0,100,100,100,,,,,,,,,,,,,,,-10.25390625,-1.962890625,0,0,1,1.55716490746,,,,,2015_Oct_20_1717,G,facesParametric,18,59.6850893433,
./stim/MorphF4_03_orig.jpg,101,,,,,,,,,0,101,101,101,,,,,,,,,,,,,,,-10.3125,-1.787109375,0,0,1,3.55197095871,,,,,2015_Oct_20_1717,G,facesParametric,18,59.6850893433,
./stim/MorphM2_00_orig.jpg,102,,,,,,,,,0,102,102,102,,,,,,,,,,,,,,,-10.341796875,-1.81640625,0,0,1,0.752618074417,,,,,2015_Oct_20_1717,G,facesParametric,18,59.6850893433,
./stim/MorphM6_03_orig.jpg,103,,,,,,,,,0,103,103,103,,,,,,,,,,,,,,,-10.3125,-1.875,0,0,1,0.902683973312,,,,,2015_Oct_20_1717,G,facesParametric,18,59.6850893433,
./stim/MorphF2_10_orig.jpg,104,,,,,,,,,0,104,104,104,,,,,,,,,,,,,,,-10.3125,-1.93359375,1,0,0,0.954367160797,,,,,2015_Oct_20_1717,G,facesParametric,18,59.6850893433,
./stim/MorphM4_00_orig.jpg,105,,,,,,,,,0,105,105,105,,,,,,,,,,,,,,,-10.224609375,-1.93359375,0,0,1,2.09379792213,,,,,2015_Oct_20_1717,G,facesParametric,18,59.6850893433,
./stim/MorphM2_09_orig.jpg,106,,,,,,,,,0,106,106,106,,,,,,,,,,,,,,,-10.224609375,-1.93359375,0,0,1,0.969659090042,,,,,2015_Oct_20_1717,G,facesParametric,18,59.6850893433,
./stim/MorphF8_10_orig.jpg,107,,,,,,,,,0,107,107,107,,,,,,,,,,,,,,,-10.224609375,-1.93359375,1,0,0,0.718438148499,,,,,2015_Oct_20_1717,G,facesParametric,18,59.6850893433,
./stim/MorphM7_03_orig.jpg,108,,,,,,,,,0,108,108,108,,,,,,,,,,,,,,,-10.13671875,-1.93359375,0,0,1,2.46083307266,,,,,2015_Oct_20_1717,G,facesParametric,18,59.6850893433,
./stim/MorphF4_05_orig.jpg,109,,,,,,,,,0,109,109,109,,,,,,,,,,,,,,,-10.13671875,-2.197265625,0,0,1,2.56070804596,,,,,2015_Oct_20_1717,G,facesParametric,18,59.6850893433,
./stim/MorphM7_07_orig.jpg,110,,,,,,,,,0,110,110,110,,,,,,,,,,,,,,,-10.13671875,-1.962890625,1,0,0,1.02053594589,,,,,2015_Oct_20_1717,G,facesParametric,18,59.6850893433,
./stim/MorphF10_00_orig.jpg,111,,,,,,,,,0,111,111,111,,,,,,,,,,,,,,,-10.048828125,-1.787109375,0,0,1,1.52363610268,,,,,2015_Oct_20_1717,G,facesParametric,18,59.6850893433,
./stim/MorphF8_08_orig.jpg,112,,,,,,,,,0,112,112,112,,,,,,,,,,,,,,,-10.048828125,-1.7578125,1,0,0,0.986717939377,,,,,2015_Oct_20_1717,G,facesParametric,18,59.6850893433,
./stim/MorphM8_02_orig.jpg,113,,,,,,,,,0,113,113,113,,,,,,,,,,,,,,,-10.078125,-1.728515625,0,0,1,1.75654792786,,,,,2015_Oct_20_1717,G,facesParametric,18,59.6850893433,
./stim/MorphF4_04_orig.jpg,114,,,,,,,,,0,114,114,114,,,,,,,,,,,,,,,-10.078125,-1.728515625,0,0,1,1.13598203659,,,,,2015_Oct_20_1717,G,facesParametric,18,59.6850893433,
./stim/MorphM8_04_orig.jpg,115,,,,,,,,,0,115,115,115,,,,,,,,,,,,,,,-10.048828125,-1.69921875,0,0,1,1.2382838726,,,,,2015_Oct_20_1717,G,facesParametric,18,59.6850893433,
./stim/MorphF5_02_orig.jpg,116,,,,,,,,,0,116,116,116,,,,,,,,,,,,,,,-10.01953125,-1.728515625,0,0,1,0.885609149933,,,,,2015_Oct_20_1717,G,facesParametric,18,59.6850893433,
./stim/MorphM5_03_orig.jpg,117,,,,,,,,,0,117,117,117,,,,,,,,,,,,,,,-10.01953125,-1.728515625,0,0,1,1.50513505936,,,,,2015_Oct_20_1717,G,facesParametric,18,59.6850893433,
./stim/MorphF4_00_orig.jpg,118,,,,,,,,,0,118,118,118,,,,,,,,,,,,,,,-10.048828125,-1.7578125,0,0,1,0.819809913635,,,,,2015_Oct_20_1717,G,facesParametric,18,59.6850893433,
./stim/MorphM7_09_orig.jpg,119,,,,,,,,,0,119,119,119,,,,,,,,,,,,,,,-10.048828125,-1.7578125,1,0,0,1.08824896812,,,,,2015_Oct_20_1717,G,facesParametric,18,59.6850893433,
./stim/MorphM5_02_orig.jpg,120,,,,,,,,,0,120,120,120,,,,,,,,,,,,,,,-10.01953125,-1.787109375,0,0,1,1.4057199955,,,,,2015_Oct_20_1717,G,facesParametric,18,59.6850893433,
./stim/MorphM3_01_orig.jpg,121,,,,,,,,,0,121,121,121,,,,,,,,,,,,,,,-10.01953125,-1.787109375,0,0,1,1.27166986465,,,,,2015_Oct_20_1717,G,facesParametric,18,59.6850893433,
./stim/MorphM2_10_orig.jpg,122,,,,,,,,,0,122,122,122,,,,,,,,,,,,,,,-10.01953125,-1.81640625,1,0,0,0.870870113373,,,,,2015_Oct_20_1717,G,facesParametric,18,59.6850893433,
./stim/MorphF10_08_orig.jpg,123,,,,,,,,,0,123,123,123,,,,,,,,,,,,,,,-9.9609375,-1.81640625,1,0,0,1.23658704758,,,,,2015_Oct_20_1717,G,facesParametric,18,59.6850893433,
./stim/MorphM1_02_orig.jpg,124,,,,,,,,,0,124,124,124,,,,,,,,,,,,,,,-9.873046875,-1.787109375,0,0,1,2.74544596672,,,,,2015_Oct_20_1717,G,facesParametric,18,59.6850893433,
./stim/MorphM2_02_orig.jpg,125,,,,,,,,,0,125,125,125,,,,,,,,,,,,,,,-9.755859375,-1.728515625,0,0,1,1.07114601135,,,,,2015_Oct_20_1717,G,facesParametric,18,59.6850893433,
./stim/MorphF5_10_orig.jpg,126,,,,,,,,,0,126,126,126,,,,,,,,,,,,,,,-9.755859375,-1.728515625,1,0,0,1.84262990952,,,,,2015_Oct_20_1717,G,facesParametric,18,59.6850893433,
./stim/MorphM9_09_orig.jpg,127,,,,,,,,,0,127,127,127,,,,,,,,,,,,,,,-9.66796875,-1.7578125,1,0,0,0.803154945374,,,,,2015_Oct_20_1717,G,facesParametric,18,59.6850893433,
./stim/MorphF1_04_orig.jpg,128,,,,,,,,,0,128,128,128,,,,,,,,,,,,,,,-9.55078125,-1.669921875,0,0,1,3.93737316132,,,,,2015_Oct_20_1717,G,facesParametric,18,59.6850893433,
./stim/MorphM8_10_orig.jpg,129,,,,,,,,,0,129,129,129,,,,,,,,,,,,,,,-9.814453125,-1.81640625,1,0,0,1.85773801804,,,,,2015_Oct_20_1717,G,facesParametric,18,59.6850893433,
./stim/MorphF5_01_orig.jpg,130,,,,,,,,,0,130,130,130,,,,,,,,,,,,,,,-9.638671875,-1.962890625,0,0,1,0.819967031479,,,,,2015_Oct_20_1717,G,facesParametric,18,59.6850893433,
./stim/MorphF10_04_orig.jpg,131,,,,,,,,,0,131,131,131,,,,,,,,,,,,,,,-10.458984375,-2.34375,1,0,0,1.65828084946,,,,,2015_Oct_20_1717,G,facesParametric,18,59.6850893433,
./stim/MorphM6_05_orig.jpg,132,,,,,,,,,0,132,132,132,,,,,,,,,,,,,,,-10.458984375,-2.255859375,0,0,1,1.65747094154,,,,,2015_Oct_20_1717,G,facesParametric,18,59.6850893433,
./stim/MorphF10_10_orig.jpg,133,,,,,,,,,0,133,133,133,,,,,,,,,,,,,,,-10.458984375,-2.255859375,1,0,0,0.851577997208,,,,,2015_Oct_20_1717,G,facesParametric,18,59.6850893433,
./stim/MorphF9_04_orig.jpg,134,,,,,,,,,0,134,134,134,,,,,,,,,,,,,,,-10.458984375,-2.255859375,0,0,1,0.886795043945,,,,,2015_Oct_20_1717,G,facesParametric,18,59.6850893433,
./stim/MorphM10_01_orig.jpg,135,,,,,,,,,0,135,135,135,,,,,,,,,,,,,,,-10.400390625,-2.2265625,0,0,1,1.32314395905,,,,,2015_Oct_20_1717,G,facesParametric,18,59.6850893433,
./stim/MorphF6_00_orig.jpg,136,,,,,,,,,0,136,136,136,,,,,,,,,,,,,,,-10.341796875,-2.2265625,0,0,1,0.91987991333,,,,,2015_Oct_20_1717,G,facesParametric,18,59.6850893433,
./stim/MorphM10_08_orig.jpg,137,,,,,,,,,0,137,137,137,,,,,,,,,,,,,,,-10.224609375,-2.2265625,1,0,0,0.735584020615,,,,,2015_Oct_20_1717,G,facesParametric,18,59.6850893433,
./stim/MorphM7_05_orig.jpg,138,,,,,,,,,0,138,138,138,,,,,,,,,,,,,,,-9.9609375,-2.109375,1,0,0,1.97690010071,,,,,2015_Oct_20_1717,G,facesParametric,18,59.6850893433,
./stim/MorphM4_05_orig.jpg,139,,,,,,,,,0,139,139,139,,,,,,,,,,,,,,,-9.9609375,-2.109375,1,0,0,1.40442800522,,,,,2015_Oct_20_1717,G,facesParametric,18,59.6850893433,
./stim/MorphF6_02_orig.jpg,140,,,,,,,,,0,140,140,140,,,,,,,,,,,,,,,-9.931640625,-2.255859375,0,0,1,1.32155394554,,,,,2015_Oct_20_1717,G,facesParametric,18,59.6850893433,
./stim/MorphM10_06_orig.jpg,141,,,,,,,,,0,141,141,141,,,,,,,,,,,,,,,-9.90234375,-2.255859375,1,0,0,1.23744297028,,,,,2015_Oct_20_1717,G,facesParametric,18,59.6850893433,
./stim/MorphM9_07_orig.jpg,142,,,,,,,,,0,142,142,142,,,,,,,,,,,,,,,-9.90234375,-2.255859375,0,0,1,1.32099509239,,,,,2015_Oct_20_1717,G,facesParametric,18,59.6850893433,
./stim/MorphM1_10_orig.jpg,143,,,,,,,,,0,143,143,143,,,,,,,,,,,,,,,-9.873046875,-2.28515625,0,0,1,1.97464489937,,,,,2015_Oct_20_1717,G,facesParametric,18,59.6850893433,
./stim/MorphF3_04_orig.jpg,144,,,,,,,,,0,144,144,144,,,,,,,,,,,,,,,-9.638671875,-2.34375,0,0,1,1.42282295227,,,,,2015_Oct_20_1717,G,facesParametric,18,59.6850893433,
./stim/MorphM9_08_orig.jpg,145,,,,,,,,,0,145,145,145,,,,,,,,,,,,,,,-9.4921875,-2.314453125,0,0,1,1.37334513664,,,,,2015_Oct_20_1717,G,facesParametric,18,59.6850893433,
./stim/MorphF1_09_orig.jpg,146,,,,,,,,,0,146,146,146,,,,,,,,,,,,,,,-9.43359375,-2.314453125,0,0,1,4.28926301003,,,,,2015_Oct_20_1717,G,facesParametric,18,59.6850893433,
./stim/MorphM1_06_orig.jpg,147,,,,,,,,,0,147,147,147,,,,,,,,,,,,,,,-9.43359375,-2.314453125,0,0,1,1.22168111801,,,,,2015_Oct_20_1717,G,facesParametric,18,59.6850893433,
./stim/MorphF5_09_orig.jpg,148,,,,,,,,,0,148,148,148,,,,,,,,,,,,,,,-9.375,-2.28515625,1,0,0,0.719178915024,,,,,2015_Oct_20_1717,G,facesParametric,18,59.6850893433,
./stim/MorphM9_00_orig.jpg,149,,,,,,,,,0,149,149,149,,,,,,,,,,,,,,,-9.2578125,-2.28515625,0,0,1,1.15478301048,,,,,2015_Oct_20_1717,G,facesParametric,18,59.6850893433,
./stim/MorphF1_01_orig.jpg,150,,,,,,,,,0,150,150,150,,,,,,,,,,,,,,,-9.2578125,-2.28515625,0,0,1,1.237637043,,,,,2015_Oct_20_1717,G,facesParametric,18,59.6850893433,
./stim/MorphF6_05_orig.jpg,151,,,,,,,,,0,151,151,151,,,,,,,,,,,,,,,-9.19921875,-2.255859375,1,0,0,1.70716094971,,,,,2015_Oct_20_1717,G,facesParametric,18,59.6850893433,
./stim/MorphM7_10_orig.jpg,152,,,,,,,,,0,152,152,152,,,,,,,,,,,,,,,-9.08203125,-2.2265625,1,0,0,0.888375997543,,,,,2015_Oct_20_1717,G,facesParametric,18,59.6850893433,
./stim/MorphM9_03_orig.jpg,153,,,,,,,,,0,153,153,153,,,,,,,,,,,,,,,-8.935546875,-2.138671875,0,0,1,0.98620390892,,,,,2015_Oct_20_1717,G,facesParametric,18,59.6850893433,
./stim/MorphM2_08_orig.jpg,154,,,,,,,,,0,154,154,154,,,,,,,,,,,,,,,-9.19921875,-2.021484375,0,0,1,0.954888105392,,,,,2015_Oct_20_1717,G,facesParametric,18,59.6850893433,
./stim/MorphF4_09_orig.jpg,155,,,,,,,,,0,155,155,155,,,,,,,,,,,,,,,-9.31640625,-1.962890625,1,0,0,0.768568992615,,,,,2015_Oct_20_1717,G,facesParametric,18,59.6850893433,
./stim/MorphF7_02_orig.jpg,156,,,,,,,,,0,156,156,156,,,,,,,,,,,,,,,-9.31640625,-1.962890625,0,0,1,2.09408903122,,,,,2015_Oct_20_1717,G,facesParametric,18,59.6850893433,
./stim/MorphF5_00_orig.jpg,157,,,,,,,,,0,157,157,157,,,,,,,,,,,,,,,-9.31640625,-1.962890625,0,0,1,1.27095794678,,,,,2015_Oct_20_1717,G,facesParametric,18,59.6850893433,
./stim/MorphM4_02_orig.jpg,158,,,,,,,,,0,158,158,158,,,,,,,,,,,,,,,-9.345703125,-1.93359375,0,0,1,1.62432312965,,,,,2015_Oct_20_1717,G,facesParametric,18,59.6850893433,
./stim/MorphF4_07_orig.jpg,159,,,,,,,,,0,159,159,159,,,,,,,,,,,,,,,-9.287109375,-1.875,1,0,0,1.23793387413,,,,,2015_Oct_20_1717,G,facesParametric,18,59.6850893433,
./stim/MorphM9_05_orig.jpg,160,,,,,,,,,0,160,160,160,,,,,,,,,,,,,,,-9.2578125,-1.845703125,0,0,1,0.802296876907,,,,,2015_Oct_20_1717,G,facesParametric,18,59.6850893433,
./stim/MorphF2_01_orig.jpg,161,,,,,,,,,0,161,161,161,,,,,,,,,,,,,,,-9.2578125,-1.845703125,0,0,1,1.33948588371,,,,,2015_Oct_20_1717,G,facesParametric,18,59.6850893433,
./stim/MorphF1_03_orig.jpg,162,,,,,,,,,0,162,162,162,,,,,,,,,,,,,,,-9.2578125,-1.845703125,0,0,1,1.38932299614,,,,,2015_Oct_20_1717,G,facesParametric,18,59.6850893433,
./stim/MorphM10_05_orig.jpg,163,,,,,,,,,0,163,163,163,,,,,,,,,,,,,,,-9.2578125,-1.845703125,1,0,0,0.936816930771,,,,,2015_Oct_20_1717,G,facesParametric,18,59.6850893433,
./stim/MorphF2_05_orig.jpg,164,,,,,,,,,0,164,164,164,,,,,,,,,,,,,,,-9.228515625,-1.845703125,0,0,1,0.803231954575,,,,,2015_Oct_20_1717,G,facesParametric,18,59.6850893433,
./stim/MorphM4_07_orig.jpg,165,,,,,,,,,0,165,165,165,,,,,,,,,,,,,,,-9.228515625,-1.845703125,1,0,0,1.25589704514,,,,,2015_Oct_20_1717,G,facesParametric,18,59.6850893433,
./stim/MorphF9_01_orig.jpg,166,,,,,,,,,0,166,166,166,,,,,,,,,,,,,,,-9.169921875,-1.904296875,0,0,1,1.13862395287,,,,,2015_Oct_20_1717,G,facesParametric,18,59.6850893433,
./stim/MorphF8_02_orig.jpg,167,,,,,,,,,0,167,167,167,,,,,,,,,,,,,,,-9.19921875,-1.904296875,0,0,1,0.936048984528,,,,,2015_Oct_20_1717,G,facesParametric,18,59.6850893433,
./stim/MorphM10_04_orig.jpg,168,,,,,,,,,0,168,168,168,,,,,,,,,,,,,,,-9.19921875,-1.904296875,1,0,0,1.40676403046,,,,,2015_Oct_20_1717,G,facesParametric,18,59.6850893433,
./stim/MorphM4_09_orig.jpg,169,,,,,,,,,0,169,169,169,,,,,,,,,,,,,,,-9.19921875,-1.93359375,1,0,0,1.65752601624,,,,,2015_Oct_20_1717,G,facesParametric,18,59.6850893433,
./stim/MorphM3_04_orig.jpg,170,,,,,,,,,0,170,170,170,,,,,,,,,,,,,,,-9.169921875,-1.962890625,0,0,1,0.920658111572,,,,,2015_Oct_20_1717,G,facesParametric,18,59.6850893433,
./stim/MorphM7_08_orig.jpg,171,,,,,,,,,0,171,171,171,,,,,,,,,,,,,,,-9.19921875,-1.9921875,1,0,0,1.94309306145,,,,,2015_Oct_20_1717,G,facesParametric,18,59.6850893433,
./stim/MorphM3_02_orig.jpg,172,,,,,,,,,0,172,172,172,,,,,,,,,,,,,,,-9.228515625,-2.05078125,0,0,1,0.903351068497,,,,,2015_Oct_20_1717,G,facesParametric,18,59.6850893433,
./stim/MorphM10_10_orig.jpg,173,,,,,,,,,0,173,173,173,,,,,,,,,,,,,,,-9.228515625,-2.05078125,1,0,0,0.935480833054,,,,,2015_Oct_20_1717,G,facesParametric,18,59.6850893433,
./stim/MorphM1_07_orig.jpg,174,,,,,,,,,0,174,174,174,,,,,,,,,,,,,,,-9.31640625,-2.109375,0,0,1,1.60799789429,,,,,2015_Oct_20_1717,G,facesParametric,18,59.6850893433,
./stim/MorphF7_09_orig.jpg,175,,,,,,,,,0,175,175,175,,,,,,,,,,,,,,,-9.345703125,-2.109375,1,0,0,4.15479302406,,,,,2015_Oct_20_1717,G,facesParametric,18,59.6850893433,
./stim/MorphF3_01_orig.jpg,176,,,,,,,,,0,176,176,176,,,,,,,,,,,,,,,-9.2578125,-1.9921875,0,0,1,0.802188158035,,,,,2015_Oct_20_1717,G,facesParametric,18,59.6850893433,
./stim/MorphM2_03_orig.jpg,177,,,,,,,,,0,177,177,177,,,,,,,,,,,,,,,-9.287109375,-1.962890625,0,0,1,1.2203578949,,,,,2015_Oct_20_1717,G,facesParametric,18,59.6850893433,
./stim/MorphF4_02_orig.jpg,178,,,,,,,,,0,178,178,178,,,,,,,,,,,,,,,-9.287109375,-1.962890625,0,0,1,1.52258014679,,,,,2015_Oct_20_1717,G,facesParametric,18,59.6850893433,
./stim/MorphM5_01_orig.jpg,179,,,,,,,,,0,179,179,179,,,,,,,,,,,,,,,-9.31640625,-1.875,0,0,1,0.869808197021,,,,,2015_Oct_20_1717,G,facesParametric,18,59.6850893433,
./stim/MorphF5_06_orig.jpg,180,,,,,,,,,0,180,180,180,,,,,,,,,,,,,,,-9.55078125,-1.787109375,0,0,1,4.00238919258,,,,,2015_Oct_20_1717,G,facesParametric,18,59.6850893433,
./stim/MorphF9_02_orig.jpg,181,,,,,,,,,0,181,181,181,,,,,,,,,,,,,,,-9.66796875,-2.080078125,0,0,1,1.5918610096,,,,,2015_Oct_20_1717,G,facesParametric,18,59.6850893433,
./stim/MorphM6_04_orig.jpg,182,,,,,,,,,0,182,182,182,,,,,,,,,,,,,,,-10.01953125,-2.197265625,0,0,1,1.43967294693,,,,,2015_Oct_20_1717,G,facesParametric,18,59.6850893433,
./stim/MorphF9_05_orig.jpg,183,,,,,,,,,0,183,183,183,,,,,,,,,,,,,,,-10.01953125,-2.16796875,0,0,1,0.752713918686,,,,,2015_Oct_20_1717,G,facesParametric,18,59.6850893433,
./stim/MorphM10_03_orig.jpg,184,,,,,,,,,0,184,184,184,,,,,,,,,,,,,,,-10.01953125,-2.138671875,1,0,0,0.8870408535,,,,,2015_Oct_20_1717,G,facesParametric,18,59.6850893433,
./stim/MorphF6_08_orig.jpg,185,,,,,,,,,0,185,185,185,,,,,,,,,,,,,,,-10.01953125,-2.109375,0,0,1,0.820034980774,,,,,2015_Oct_20_1717,G,facesParametric,18,59.6850893433,
./stim/MorphF9_03_orig.jpg,186,,,,,,,,,0,186,186,186,,,,,,,,,,,,,,,-10.01953125,-2.109375,0,0,1,2.39421200752,,,,,2015_Oct_20_1717,G,facesParametric,18,59.6850893433,
./stim/MorphF2_02_orig.jpg,187,,,,,,,,,0,187,187,187,,,,,,,,,,,,,,,-10.01953125,-2.109375,0,0,1,1.4396750927,,,,,2015_Oct_20_1717,G,facesParametric,18,59.6850893433,
./stim/MorphM8_06_orig.jpg,188,,,,,,,,,0,188,188,188,,,,,,,,,,,,,,,-9.990234375,-2.080078125,0,0,1,1.18846106529,,,,,2015_Oct_20_1717,G,facesParametric,18,59.6850893433,
./stim/MorphM3_09_orig.jpg,189,,,,,,,,,0,189,189,189,,,,,,,,,,,,,,,-9.9609375,-2.05078125,1,0,0,1.77539277077,,,,,2015_Oct_20_1717,G,facesParametric,18,59.6850893433,
./stim/MorphF3_10_orig.jpg,190,,,,,,,,,0,190,190,190,,,,,,,,,,,,,,,-9.931640625,-2.05078125,1,0,0,0.919923067093,,,,,2015_Oct_20_1717,G,facesParametric,18,59.6850893433,
./stim/MorphM3_08_orig.jpg,191,,,,,,,,,0,191,191,191,,,,,,,,,,,,,,,-9.814453125,-2.080078125,0,0,1,0.920717954636,,,,,2015_Oct_20_1717,G,facesParametric,18,59.6850893433,
./stim/MorphM1_04_orig.jpg,192,,,,,,,,,0,192,192,192,,,,,,,,,,,,,,,-9.755859375,-2.138671875,0,0,1,1.60757398605,,,,,2015_Oct_20_1717,G,facesParametric,18,59.6850893433,
./stim/MorphF5_05_orig.jpg,193,,,,,,,,,0,193,193,193,,,,,,,,,,,,,,,-9.755859375,-2.021484375,0,0,1,2.57789683342,,,,,2015_Oct_20_1717,G,facesParametric,18,59.6850893433,
./stim/MorphF1_02_orig.jpg,194,,,,,,,,,0,194,194,194,,,,,,,,,,,,,,,-9.609375,-2.34375,0,0,1,1.33917617798,,,,,2015_Oct_20_1717,G,facesParametric,18,59.6850893433,
./stim/MorphM9_04_orig.jpg,195,,,,,,,,,0,195,195,195,,,,,,,,,,,,,,,-9.609375,-2.197265625,0,0,1,1.00453996658,,,,,2015_Oct_20_1717,G,facesParametric,18,59.6850893433,
./stim/MorphM8_05_orig.jpg,196,,,,,,,,,0,196,196,196,,,,,,,,,,,,,,,-9.609375,-2.197265625,0,0,1,1.52335715294,,,,,2015_Oct_20_1717,G,facesParametric,18,59.6850893433,
./stim/MorphM10_00_orig.jpg,197,,,,,,,,,0,197,197,197,,,,,,,,,,,,,,,-9.609375,-2.197265625,0,0,1,1.54015207291,,,,,2015_Oct_20_1717,G,facesParametric,18,59.6850893433,
./stim/MorphM1_03_orig.jpg,198,,,,,,,,,0,198,198,198,,,,,,,,,,,,,,,-9.609375,-2.197265625,1,0,0,2.01017212868,,,,,2015_Oct_20_1717,G,facesParametric,18,59.6850893433,
./stim/MorphF8_05_orig.jpg,199,,,,,,,,,0,199,199,199,,,,,,,,,,,,,,,-9.66796875,-3.22265625,1,0,0,1.45679998398,,,,,2015_Oct_20_1717,G,facesParametric,18,59.6850893433,
./stim/MorphM6_00_orig.jpg,200,,,,,,,,,0,200,200,200,,,,,,,,,,,,,,,-10.37109375,-2.8125,1,0,0,3.31742715836,,,,,2015_Oct_20_1717,G,facesParametric,18,59.6850893433,
./stim/MorphF7_05_orig.jpg,201,,,,,,,,,0,201,201,201,,,,,,,,,,,,,,,-10.341796875,-2.841796875,1,0,0,1.40668296814,,,,,2015_Oct_20_1717,G,facesParametric,18,59.6850893433,
./stim/MorphM2_06_orig.jpg,202,,,,,,,,,0,202,202,202,,,,,,,,,,,,,,,-10.341796875,-2.841796875,1,0,0,1.50645399094,,,,,2015_Oct_20_1717,G,facesParametric,18,59.6850893433,
./stim/MorphM3_10_orig.jpg,203,,,,,,,,,0,203,203,203,,,,,,,,,,,,,,,-10.3125,-3.046875,1,0,0,1.50671315193,,,,,2015_Oct_20_1717,G,facesParametric,18,59.6850893433,
./stim/MorphF8_00_orig.jpg,204,,,,,,,,,0,204,204,204,,,,,,,,,,,,,,,-10.25390625,-3.017578125,1,0,0,1.08840203285,,,,,2015_Oct_20_1717,G,facesParametric,18,59.6850893433,
./stim/MorphF1_08_orig.jpg,205,,,,,,,,,0,205,205,205,,,,,,,,,,,,,,,-10.224609375,-3.046875,1,0,0,0.985553026199,,,,,2015_Oct_20_1717,G,facesParametric,18,59.6850893433,
./stim/MorphM8_00_orig.jpg,206,,,,,,,,,0,206,206,206,,,,,,,,,,,,,,,-10.224609375,-3.046875,1,0,0,0.820312976837,,,,,2015_Oct_20_1717,G,facesParametric,18,59.6850893433,
./stim/MorphF3_09_orig.jpg,207,,,,,,,,,0,207,207,207,,,,,,,,,,,,,,,-10.224609375,-3.046875,1,0,0,0.719449996948,,,,,2015_Oct_20_1717,G,facesParametric,18,59.6850893433,
./stim/MorphM8_01_orig.jpg,208,,,,,,,,,0,208,208,208,,,,,,,,,,,,,,,-10.224609375,-3.046875,1,0,0,0.920490980148,,,,,2015_Oct_20_1717,G,facesParametric,18,59.6850893433,
./stim/MorphM7_04_orig.jpg,209,,,,,,,,,0,209,209,209,,,,,,,,,,,,,,,-10.283203125,-3.22265625,1,0,0,1.12165307999,,,,,2015_Oct_20_1717,G,facesParametric,18,59.6850893433,
./stim/MorphM5_10_orig.jpg,210,,,,,,,,,0,210,210,210,,,,,,,,,,,,,,,-10.283203125,-3.22265625,1,0,0,1.15345716476,,,,,2015_Oct_20_1717,G,facesParametric,18,59.6850893433,
./stim/MorphF5_07_orig.jpg,211,,,,,,,,,0,211,211,211,,,,,,,,,,,,,,,-10.283203125,-3.22265625,1,0,0,0.936904907227,,,,,2015_Oct_20_1717,G,facesParametric,18,59.6850893433,
./stim/MorphM8_03_orig.jpg,212,,,,,,,,,0,212,212,212,,,,,,,,,,,,,,,-10.283203125,-3.22265625,1,0,0,1.38979411125,,,,,2015_Oct_20_1717,G,facesParametric,18,59.6850893433,
./stim/MorphF5_08_orig.jpg,213,,,,,,,,,0,213,213,213,,,,,,,,,,,,,,,-10.283203125,-3.22265625,1,0,0,0.786445140839,,,,,2015_Oct_20_1717,G,facesParametric,18,59.6850893433,
./stim/MorphM5_07_orig.jpg,214,,,,,,,,,0,214,214,214,,,,,,,,,,,,,,,-10.283203125,-3.22265625,1,0,0,0.753236055374,,,,,2015_Oct_20_1717,G,facesParametric,18,59.6850893433,
./stim/MorphM4_03_orig.jpg,215,,,,,,,,,0,215,215,215,,,,,,,,,,,,,,,-10.283203125,-3.22265625,0,0,1,2.7123939991,,,,,2015_Oct_20_1717,G,facesParametric,18,59.6850893433,
./stim/MorphM8_08_orig.jpg,216,,,,,,,,,0,216,216,216,,,,,,,,,,,,,,,-10.283203125,-3.22265625,1,0,0,1.12171006203,,,,,2015_Oct_20_1717,G,facesParametric,18,59.6850893433,
./stim/MorphM2_01_orig.jpg,217,,,,,,,,,0,217,217,217,,,,,,,,,,,,,,,-10.283203125,-3.22265625,0,0,1,1.1219189167,,,,,2015_Oct_20_1717,G,facesParametric,18,59.6850893433,
./stim/MorphM4_08_orig.jpg,218,,,,,,,,,0,218,218,218,,,,,,,,,,,,,,,-10.283203125,-3.251953125,1,0,0,1.13695383072,,,,,2015_Oct_20_1717,G,facesParametric,18,59.6850893433,
./stim/MorphF2_09_orig.jpg,219,,,,,,,,,0,219,219,219,,,,,,,,,,,,,,,-10.283203125,-3.33984375,1,0,0,1.17288780212,,,,,2015_Oct_20_1717,G,facesParametric,18,59.6850893433,
,,,,,,,,,,,,,,,,,,,,,,,,,,,,,,,,,,,,return,1.10157012939,2015_Oct_20_1717,G,facesParametric,18,59.6850893433,
