img,num,basicLoop.thisRepN,basicLoop.thisTrialN,basicLoop.thisN,basicLoop.thisIndex,trials.thisRepN,trials.thisTrialN,trials.thisN,trials.thisIndex,trials2.thisRepN,trials2.thisTrialN,trials2.thisN,trials2.thisIndex,key_resp_2.keys,key_resp_2.rt,basicRating1.response,basicRating1.rt,basicRating2.response,basicRating2.rt,basicRating3.response,basicRating3.rt,basicRating4.response,basicRating4.rt,key_resp_3.keys,key_resp_3.rt,key_resp_4.keys,key_resp_4.rt,mouseResp.x,mouseResp.y,mouseResp.leftButton,mouseResp.midButton,mouseResp.rightButton,mouseResp.time,key_resp_5.keys,key_resp_5.rt,key_resp_7.keys,key_resp_7.rt,date,group,expName,participant,frameRate,
,,,,,,,,,,,,,,return,60.3110439777,,,,,,,,,,,,,,,,,,,,,,,2015_Oct_24_1037,G,facesParametric,19,59.4381981073,
./basicStim/21M_DI_O.jpg,,0,0,0,43,,,,,,,,,,,None,None,None,None,DIS,4.255,None,None,,,,,,,,,,,,,,,2015_Oct_24_1037,G,facesParametric,19,59.4381981073,
./basicStim/28M_FE_O.jpg,,0,1,1,65,,,,,,,,,,,None,None,FEA,2.265,None,None,None,None,,,,,,,,,,,,,,,2015_Oct_24_1037,G,facesParametric,19,59.4381981073,
./basicStim/28M_SA_C.jpg,,0,2,2,67,,,,,,,,,,,SAD,4.14,None,None,None,None,None,None,,,,,,,,,,,,,,,2015_Oct_24_1037,G,facesParametric,19,59.4381981073,
./basicStim/09F_SA_C.jpg,,0,3,3,39,,,,,,,,,,,SAD,1.431,None,None,None,None,None,None,,,,,,,,,,,,,,,2015_Oct_24_1037,G,facesParametric,19,59.4381981073,
./basicStim/01F_DI_O.jpg,,0,4,4,1,,,,,,,,,,,None,None,None,None,DIS,2.735,None,None,,,,,,,,,,,,,,,2015_Oct_24_1037,G,facesParametric,19,59.4381981073,
./basicStim/01F_AN_O.jpg,,0,5,5,0,,,,,,,,,,,None,None,ANG,3.661,None,None,None,None,,,,,,,,,,,,,,,2015_Oct_24_1037,G,facesParametric,19,59.4381981073,
./basicStim/23M_SP_O.jpg,,0,6,6,54,,,,,,,,,,,None,None,None,None,None,None,dummy,2.314,,,,,,,,,,,,,,,2015_Oct_24_1037,G,facesParametric,19,59.4381981073,
./basicStim/36M_DI_O.jpg,,0,7,7,78,,,,,,,,,,,None,None,None,None,DIS,2.013,None,None,,,,,,,,,,,,,,,2015_Oct_24_1037,G,facesParametric,19,59.4381981073,
./basicStim/02F_DI_O.jpg,,0,8,8,8,,,,,,,,,,,None,None,None,None,DIS,2.55,None,None,,,,,,,,,,,,,,,2015_Oct_24_1037,G,facesParametric,19,59.4381981073,
./basicStim/36M_NE_C.jpg,,0,9,9,83,,,,,,,,,,,None,None,None,None,None,None,NTR,3.587,,,,,,,,,,,,,,,2015_Oct_24_1037,G,facesParametric,19,59.4381981073,
./basicStim/28M_HA_O.jpg,,0,10,10,66,,,,,,,,,,,HAP,1.598,None,None,None,None,None,None,,,,,,,,,,,,,,,2015_Oct_24_1037,G,facesParametric,19,59.4381981073,
./basicStim/01F_FE_O.jpg,,0,11,11,2,,,,,,,,,,,None,None,FEA,2.318,None,None,None,None,,,,,,,,,,,,,,,2015_Oct_24_1037,G,facesParametric,19,59.4381981073,
./basicStim/07F_AN_O.jpg,,0,12,12,28,,,,,,,,,,,None,None,ANG,1.347,None,None,None,None,,,,,,,,,,,,,,,2015_Oct_24_1037,G,facesParametric,19,59.4381981073,
./basicStim/28M_NE_C.jpg,,0,13,13,69,,,,,,,,,,,None,None,None,None,None,None,NTR,2.484,,,,,,,,,,,,,,,2015_Oct_24_1037,G,facesParametric,19,59.4381981073,
./basicStim/34M_SA_C.jpg,,0,14,14,74,,,,,,,,,,,None,None,FEA,4.644,None,None,None,None,,,,,,,,,,,,,,,2015_Oct_24_1037,G,facesParametric,19,59.4381981073,
./basicStim/09F_FE_O.jpg,,0,15,15,37,,,,,,,,,,,None,None,None,None,None,None,NTR,6.27,,,,,,,,,,,,,,,2015_Oct_24_1037,G,facesParametric,19,59.4381981073,
./basicStim/09F_NE_C.jpg,,0,16,16,41,,,,,,,,,,,None,None,None,None,None,None,NTR,1.995,,,,,,,,,,,,,,,2015_Oct_24_1037,G,facesParametric,19,59.4381981073,
./basicStim/23M_FE_O.jpg,,0,17,17,51,,,,,,,,,,,None,None,FEA,4.562,None,None,None,None,,,,,,,,,,,,,,,2015_Oct_24_1037,G,facesParametric,19,59.4381981073,
./basicStim/06F_HA_O.jpg,,0,18,18,24,,,,,,,,,,,HAP,2.15,None,None,None,None,None,None,,,,,,,,,,,,,,,2015_Oct_24_1037,G,facesParametric,19,59.4381981073,
./basicStim/01F_SA_C.jpg,,0,19,19,4,,,,,,,,,,,SAD,1.634,None,None,None,None,None,None,,,,,,,,,,,,,,,2015_Oct_24_1037,G,facesParametric,19,59.4381981073,
./basicStim/06F_FE_O.jpg,,0,20,20,23,,,,,,,,,,,None,None,FEA,1.131,None,None,None,None,,,,,,,,,,,,,,,2015_Oct_24_1037,G,facesParametric,19,59.4381981073,
./basicStim/06F_AN_O.jpg,,0,21,21,21,,,,,,,,,,,None,None,ANG,4.176,None,None,None,None,,,,,,,,,,,,,,,2015_Oct_24_1037,G,facesParametric,19,59.4381981073,
./basicStim/34M_SP_O.jpg,,0,22,22,75,,,,,,,,,,,None,None,None,None,SUP,1.965,None,None,,,,,,,,,,,,,,,2015_Oct_24_1037,G,facesParametric,19,59.4381981073,
./basicStim/23M_AN_O.jpg,,0,23,23,49,,,,,,,,,,,None,None,ANG,0.971,None,None,None,None,,,,,,,,,,,,,,,2015_Oct_24_1037,G,facesParametric,19,59.4381981073,
./basicStim/28M_SP_O.jpg,,0,24,24,68,,,,,,,,,,,None,None,FEA,1.478,None,None,None,None,,,,,,,,,,,,,,,2015_Oct_24_1037,G,facesParametric,19,59.4381981073,
./basicStim/36M_FE_O.jpg,,0,25,25,79,,,,,,,,,,,None,None,FEA,0.822,None,None,None,None,,,,,,,,,,,,,,,2015_Oct_24_1037,G,facesParametric,19,59.4381981073,
./basicStim/02F_HA_O.jpg,,0,26,26,10,,,,,,,,,,,HAP,1.655,None,None,None,None,None,None,,,,,,,,,,,,,,,2015_Oct_24_1037,G,facesParametric,19,59.4381981073,
./basicStim/09F_SP_O.jpg,,0,27,27,40,,,,,,,,,,,None,None,None,None,SUP,3.289,None,None,,,,,,,,,,,,,,,2015_Oct_24_1037,G,facesParametric,19,59.4381981073,
./basicStim/24M_SA_C.jpg,,0,28,28,60,,,,,,,,,,,SAD,1.865,None,None,None,None,None,None,,,,,,,,,,,,,,,2015_Oct_24_1037,G,facesParametric,19,59.4381981073,
./basicStim/23M_NE_C.jpg,,0,29,29,55,,,,,,,,,,,None,None,None,None,None,None,NTR,1.213,,,,,,,,,,,,,,,2015_Oct_24_1037,G,facesParametric,19,59.4381981073,
./basicStim/28M_AN_O.jpg,,0,30,30,63,,,,,,,,,,,None,None,None,None,DIS,2.364,None,None,,,,,,,,,,,,,,,2015_Oct_24_1037,G,facesParametric,19,59.4381981073,
./basicStim/23M_SA_C.jpg,,0,31,31,53,,,,,,,,,,,None,None,None,None,SUP,1.678,None,None,,,,,,,,,,,,,,,2015_Oct_24_1037,G,facesParametric,19,59.4381981073,
./basicStim/36M_AN_O.jpg,,0,32,32,77,,,,,,,,,,,None,None,ANG,1.461,None,None,None,None,,,,,,,,,,,,,,,2015_Oct_24_1037,G,facesParametric,19,59.4381981073,
./basicStim/03F_SP_O.jpg,,0,33,33,19,,,,,,,,,,,HAP,1.515,None,None,None,None,None,None,,,,,,,,,,,,,,,2015_Oct_24_1037,G,facesParametric,19,59.4381981073,
./basicStim/09F_AN_O.jpg,,0,34,34,35,,,,,,,,,,,None,None,ANG,2.03,None,None,None,None,,,,,,,,,,,,,,,2015_Oct_24_1037,G,facesParametric,19,59.4381981073,
./basicStim/36M_SP_O.jpg,,0,35,35,82,,,,,,,,,,,None,None,None,None,SUP,1.274,None,None,,,,,,,,,,,,,,,2015_Oct_24_1037,G,facesParametric,19,59.4381981073,
./basicStim/03F_AN_O.jpg,,0,36,36,14,,,,,,,,,,,None,None,ANG,0.991,None,None,None,None,,,,,,,,,,,,,,,2015_Oct_24_1037,G,facesParametric,19,59.4381981073,
./basicStim/24M_AN_O.jpg,,0,37,37,56,,,,,,,,,,,None,None,None,None,DIS,1.543,None,None,,,,,,,,,,,,,,,2015_Oct_24_1037,G,facesParametric,19,59.4381981073,
./basicStim/24M_DI_O.jpg,,0,38,38,57,,,,,,,,,,,SAD,1.245,None,None,None,None,None,None,,,,,,,,,,,,,,,2015_Oct_24_1037,G,facesParametric,19,59.4381981073,
./basicStim/21M_SA_C.jpg,,0,39,39,46,,,,,,,,,,,SAD,2.166,None,None,None,None,None,None,,,,,,,,,,,,,,,2015_Oct_24_1037,G,facesParametric,19,59.4381981073,
./basicStim/21M_NE_C.jpg,,0,40,40,48,,,,,,,,,,,None,None,None,None,None,None,NTR,2.319,,,,,,,,,,,,,,,2015_Oct_24_1037,G,facesParametric,19,59.4381981073,
./basicStim/01F_HA_O.jpg,,0,41,41,3,,,,,,,,,,,HAP,0.977,None,None,None,None,None,None,,,,,,,,,,,,,,,2015_Oct_24_1037,G,facesParametric,19,59.4381981073,
./basicStim/01F_NE_C.jpg,,0,42,42,6,,,,,,,,,,,None,None,None,None,None,None,NTR,4.463,,,,,,,,,,,,,,,2015_Oct_24_1037,G,facesParametric,19,59.4381981073,
./basicStim/21M_AN_O.jpg,,0,43,43,42,,,,,,,,,,,None,None,ANG,2.032,None,None,None,None,,,,,,,,,,,,,,,2015_Oct_24_1037,G,facesParametric,19,59.4381981073,
./basicStim/23M_HA_O.jpg,,0,44,44,52,,,,,,,,,,,HAP,0.662,None,None,None,None,None,None,,,,,,,,,,,,,,,2015_Oct_24_1037,G,facesParametric,19,59.4381981073,
./basicStim/02F_FE_O.jpg,,0,45,45,9,,,,,,,,,,,None,None,None,None,DIS,2.255,None,None,,,,,,,,,,,,,,,2015_Oct_24_1037,G,facesParametric,19,59.4381981073,
./basicStim/03F_HA_O.jpg,,0,46,46,17,,,,,,,,,,,HAP,1.197,None,None,None,None,None,None,,,,,,,,,,,,,,,2015_Oct_24_1037,G,facesParametric,19,59.4381981073,
./basicStim/09F_DI_O.jpg,,0,47,47,36,,,,,,,,,,,None,None,None,None,DIS,1.211,None,None,,,,,,,,,,,,,,,2015_Oct_24_1037,G,facesParametric,19,59.4381981073,
./basicStim/03F_NE_C.jpg,,0,48,48,20,,,,,,,,,,,None,None,None,None,None,None,NTR,1.375,,,,,,,,,,,,,,,2015_Oct_24_1037,G,facesParametric,19,59.4381981073,
./basicStim/34M_DI_O.jpg,,0,49,49,71,,,,,,,,,,,None,None,None,None,DIS,2.015,None,None,,,,,,,,,,,,,,,2015_Oct_24_1037,G,facesParametric,19,59.4381981073,
./basicStim/34M_HA_O.jpg,,0,50,50,73,,,,,,,,,,,HAP,1.146,None,None,None,None,None,None,,,,,,,,,,,,,,,2015_Oct_24_1037,G,facesParametric,19,59.4381981073,
./basicStim/02F_AN_O.jpg,,0,51,51,7,,,,,,,,,,,None,None,ANG,2.382,None,None,None,None,,,,,,,,,,,,,,,2015_Oct_24_1037,G,facesParametric,19,59.4381981073,
./basicStim/07F_DI_O.jpg,,0,52,52,29,,,,,,,,,,,None,None,None,None,DIS,1.139,None,None,,,,,,,,,,,,,,,2015_Oct_24_1037,G,facesParametric,19,59.4381981073,
./basicStim/02F_SP_O.jpg,,0,53,53,12,,,,,,,,,,,None,None,None,None,SUP,0.982,None,None,,,,,,,,,,,,,,,2015_Oct_24_1037,G,facesParametric,19,59.4381981073,
./basicStim/06F_SP_O.jpg,,0,54,54,26,,,,,,,,,,,None,None,None,None,SUP,1.011,None,None,,,,,,,,,,,,,,,2015_Oct_24_1037,G,facesParametric,19,59.4381981073,
./basicStim/21M_SP_O.jpg,,0,55,55,47,,,,,,,,,,,None,None,None,None,SUP,1.715,None,None,,,,,,,,,,,,,,,2015_Oct_24_1037,G,facesParametric,19,59.4381981073,
./basicStim/24M_NE_C.jpg,,0,56,56,62,,,,,,,,,,,None,None,None,None,None,None,NTR,4.634,,,,,,,,,,,,,,,2015_Oct_24_1037,G,facesParametric,19,59.4381981073,
./basicStim/03F_SA_C.jpg,,0,57,57,18,,,,,,,,,,,None,None,FEA,5.064,None,None,None,None,,,,,,,,,,,,,,,2015_Oct_24_1037,G,facesParametric,19,59.4381981073,
./basicStim/06F_SA_C.jpg,,0,58,58,25,,,,,,,,,,,SAD,3.107,None,None,None,None,None,None,,,,,,,,,,,,,,,2015_Oct_24_1037,G,facesParametric,19,59.4381981073,
./basicStim/34M_NE_C.jpg,,0,59,59,76,,,,,,,,,,,None,None,None,None,None,None,NTR,2.365,,,,,,,,,,,,,,,2015_Oct_24_1037,G,facesParametric,19,59.4381981073,
./basicStim/03F_FE_O.jpg,,0,60,60,16,,,,,,,,,,,None,None,FEA,2.035,None,None,None,None,,,,,,,,,,,,,,,2015_Oct_24_1037,G,facesParametric,19,59.4381981073,
./basicStim/34M_AN_O.jpg,,0,61,61,70,,,,,,,,,,,None,None,ANG,1.433,None,None,None,None,,,,,,,,,,,,,,,2015_Oct_24_1037,G,facesParametric,19,59.4381981073,
./basicStim/36M_HA_O.jpg,,0,62,62,80,,,,,,,,,,,HAP,1.85,None,None,None,None,None,None,,,,,,,,,,,,,,,2015_Oct_24_1037,G,facesParametric,19,59.4381981073,
./basicStim/36M_SA_C.jpg,,0,63,63,81,,,,,,,,,,,SAD,1.562,None,None,None,None,None,None,,,,,,,,,,,,,,,2015_Oct_24_1037,G,facesParametric,19,59.4381981073,
./basicStim/34M_FE_O.jpg,,0,64,64,72,,,,,,,,,,,None,None,FEA,4.244,None,None,None,None,,,,,,,,,,,,,,,2015_Oct_24_1037,G,facesParametric,19,59.4381981073,
./basicStim/02F_SA_C.jpg,,0,65,65,11,,,,,,,,,,,SAD,2.051,None,None,None,None,None,None,,,,,,,,,,,,,,,2015_Oct_24_1037,G,facesParametric,19,59.4381981073,
./basicStim/06F_DI_O.jpg,,0,66,66,22,,,,,,,,,,,None,None,None,None,DIS,1.767,None,None,,,,,,,,,,,,,,,2015_Oct_24_1037,G,facesParametric,19,59.4381981073,
./basicStim/09F_HA_O.jpg,,0,67,67,38,,,,,,,,,,,HAP,1.193,None,None,None,None,None,None,,,,,,,,,,,,,,,2015_Oct_24_1037,G,facesParametric,19,59.4381981073,
./basicStim/24M_SP_O.jpg,,0,68,68,61,,,,,,,,,,,None,None,None,None,SUP,2.562,None,None,,,,,,,,,,,,,,,2015_Oct_24_1037,G,facesParametric,19,59.4381981073,
./basicStim/07F_HA_O.jpg,,0,69,69,31,,,,,,,,,,,None,None,FEA,1.163,None,None,None,None,,,,,,,,,,,,,,,2015_Oct_24_1037,G,facesParametric,19,59.4381981073,
./basicStim/07F_SA_C.jpg,,0,70,70,32,,,,,,,,,,,SAD,1.146,None,None,None,None,None,None,,,,,,,,,,,,,,,2015_Oct_24_1037,G,facesParametric,19,59.4381981073,
./basicStim/03F_DI_O.jpg,,0,71,71,15,,,,,,,,,,,None,None,None,None,DIS,3.59,None,None,,,,,,,,,,,,,,,2015_Oct_24_1037,G,facesParametric,19,59.4381981073,
./basicStim/02F_NE_C.jpg,,0,72,72,13,,,,,,,,,,,None,None,None,None,None,None,NTR,2.283,,,,,,,,,,,,,,,2015_Oct_24_1037,G,facesParametric,19,59.4381981073,
./basicStim/07F_SP_O.jpg,,0,73,73,33,,,,,,,,,,,None,None,None,None,SUP,2.117,None,None,,,,,,,,,,,,,,,2015_Oct_24_1037,G,facesParametric,19,59.4381981073,
./basicStim/01F_SP_O.jpg,,0,74,74,5,,,,,,,,,,,None,None,None,None,SUP,1.096,None,None,,,,,,,,,,,,,,,2015_Oct_24_1037,G,facesParametric,19,59.4381981073,
./basicStim/06F_NE_C.jpg,,0,75,75,27,,,,,,,,,,,None,None,None,None,None,None,NTR,1.978,,,,,,,,,,,,,,,2015_Oct_24_1037,G,facesParametric,19,59.4381981073,
./basicStim/07F_NE_C.jpg,,0,76,76,34,,,,,,,,,,,None,None,FEA,3.172,None,None,None,None,,,,,,,,,,,,,,,2015_Oct_24_1037,G,facesParametric,19,59.4381981073,
./basicStim/23M_DI_O.jpg,,0,77,77,50,,,,,,,,,,,SAD,1.514,None,None,None,None,None,None,,,,,,,,,,,,,,,2015_Oct_24_1037,G,facesParametric,19,59.4381981073,
./basicStim/21M_HA_O.jpg,,0,78,78,45,,,,,,,,,,,HAP,0.727,None,None,None,None,None,None,,,,,,,,,,,,,,,2015_Oct_24_1037,G,facesParametric,19,59.4381981073,
./basicStim/24M_FE_O.jpg,,0,79,79,58,,,,,,,,,,,None,None,FEA,2.988,None,None,None,None,,,,,,,,,,,,,,,2015_Oct_24_1037,G,facesParametric,19,59.4381981073,
./basicStim/28M_DI_O.jpg,,0,80,80,64,,,,,,,,,,,None,None,None,None,DIS,2.099,None,None,,,,,,,,,,,,,,,2015_Oct_24_1037,G,facesParametric,19,59.4381981073,
./basicStim/21M_FE_O.jpg,,0,81,81,44,,,,,,,,,,,None,None,FEA,2.284,None,None,None,None,,,,,,,,,,,,,,,2015_Oct_24_1037,G,facesParametric,19,59.4381981073,
./basicStim/24M_HA_O.jpg,,0,82,82,59,,,,,,,,,,,HAP,1.028,None,None,None,None,None,None,,,,,,,,,,,,,,,2015_Oct_24_1037,G,facesParametric,19,59.4381981073,
./basicStim/07F_FE_O.jpg,,0,83,83,30,,,,,,,,,,,None,None,None,None,DIS,3.733,None,None,,,,,,,,,,,,,,,2015_Oct_24_1037,G,facesParametric,19,59.4381981073,
,,,,,,,,,,,,,,,,,,,,,,,,return,18.0010302067,,,,,,,,,,,,,2015_Oct_24_1037,G,facesParametric,19,59.4381981073,
,,,,,,,,,,,,,,return,9.92125201225,,,,,,,,,,,,,,,,,,,,,,,2015_Oct_24_1037,G,facesParametric,19,59.4381981073,
,,,,,,,,,,,,,,,,,,,,,,,,return,4.84307789803,,,,,,,,,,,,,2015_Oct_24_1037,G,facesParametric,19,59.4381981073,
,,,,,,,,,,,,,,,,,,,,,,,,,,return,1.39100909233,,,,,,,,,,,2015_Oct_24_1037,G,facesParametric,19,59.4381981073,
./stim/MorphM5_05_orig.jpg,0,,,,,0,0,0,0,,,,,,,,,,,,,,,,,,,-1.0546875,-8.994140625,0,0,1,11.7865519524,,,,,2015_Oct_24_1037,G,facesParametric,19,59.4381981073,
./stim/MorphM3_03_orig.jpg,1,,,,,0,1,1,1,,,,,,,,,,,,,,,,,,,-1.40625,-9.931640625,1,0,0,1.99142193794,,,,,2015_Oct_24_1037,G,facesParametric,19,59.4381981073,
./stim/MorphM7_10_orig.jpg,2,,,,,0,2,2,2,,,,,,,,,,,,,,,,,,,-1.58203125,-10.48828125,0,0,1,1.13828396797,,,,,2015_Oct_24_1037,G,facesParametric,19,59.4381981073,
./stim/MorphF9_05_orig.jpg,3,,,,,0,3,3,3,,,,,,,,,,,,,,,,,,,-2.109375,-11.689453125,1,0,0,0.920257806778,,,,,2015_Oct_24_1037,G,facesParametric,19,59.4381981073,
./stim/MorphM8_08_orig.jpg,4,,,,,0,4,4,4,,,,,,,,,,,,,,,,,,,-1.962890625,-11.748046875,0,0,1,1.13818216324,,,,,2015_Oct_24_1037,G,facesParametric,19,59.4381981073,
./stim/MorphM5_01_orig.jpg,5,,,,,0,5,5,5,,,,,,,,,,,,,,,,,,,-2.138671875,-12.12890625,1,0,0,11.5967521667,,,,,2015_Oct_24_1037,G,facesParametric,19,59.4381981073,
./stim/MorphM1_09_orig.jpg,6,,,,,0,6,6,6,,,,,,,,,,,,,,,,,,,-2.138671875,-11.89453125,0,0,1,2.12485408783,,,,,2015_Oct_24_1037,G,facesParametric,19,59.4381981073,
./stim/MorphF5_02_orig.jpg,7,,,,,0,7,7,7,,,,,,,,,,,,,,,,,,,-1.904296875,-12.509765625,1,0,0,2.79713511467,,,,,2015_Oct_24_1037,G,facesParametric,19,59.4381981073,
./stim/MorphM7_08_orig.jpg,8,,,,,0,8,8,8,,,,,,,,,,,,,,,,,,,-1.845703125,-12.3046875,0,0,1,1.02088093758,,,,,2015_Oct_24_1037,G,facesParametric,19,59.4381981073,
./stim/MorphF3_07_orig.jpg,9,,,,,0,9,9,9,,,,,,,,,,,,,,,,,,,-1.962890625,-12.568359375,1,0,0,1.70828700066,,,,,2015_Oct_24_1037,G,facesParametric,19,59.4381981073,
./stim/MorphM2_03_orig.jpg,10,,,,,0,10,10,10,,,,,,,,,,,,,,,,,,,-1.9921875,-12.59765625,1,0,0,1.3051700592,,,,,2015_Oct_24_1037,G,facesParametric,19,59.4381981073,
./stim/MorphM6_07_orig.jpg,11,,,,,0,11,11,11,,,,,,,,,,,,,,,,,,,-1.58203125,-13.154296875,0,0,1,1.84266996384,,,,,2015_Oct_24_1037,G,facesParametric,19,59.4381981073,
./stim/MorphF6_05_orig.jpg,12,,,,,0,12,12,12,,,,,,,,,,,,,,,,,,,-2.138671875,-13.125,1,0,0,3.81983804703,,,,,2015_Oct_24_1037,G,facesParametric,19,59.4381981073,
./stim/MorphF5_06_orig.jpg,13,,,,,0,13,13,13,,,,,,,,,,,,,,,,,,,-2.109375,-12.802734375,1,0,0,1.74023580551,,,,,2015_Oct_24_1037,G,facesParametric,19,59.4381981073,
./stim/MorphM6_10_orig.jpg,14,,,,,0,14,14,14,,,,,,,,,,,,,,,,,,,-2.314453125,-13.037109375,0,0,1,1.92583990097,,,,,2015_Oct_24_1037,G,facesParametric,19,59.4381981073,
./stim/MorphM1_07_orig.jpg,15,,,,,0,15,15,15,,,,,,,,,,,,,,,,,,,-6.474609375,-13.125,1,0,0,3.85359311104,,,,,2015_Oct_24_1037,G,facesParametric,19,59.4381981073,
./stim/MorphF10_05_orig.jpg,16,,,,,0,16,16,16,,,,,,,,,,,,,,,,,,,-4.6875,-12.48046875,1,0,0,8.56120204926,,,,,2015_Oct_24_1037,G,facesParametric,19,59.4381981073,
./stim/MorphM5_07_orig.jpg,17,,,,,0,17,17,17,,,,,,,,,,,,,,,,,,,-3.955078125,-12.3046875,0,0,1,1.28717207909,,,,,2015_Oct_24_1037,G,facesParametric,19,59.4381981073,
./stim/MorphM4_03_orig.jpg,18,,,,,0,18,18,18,,,,,,,,,,,,,,,,,,,-6.064453125,-13.06640625,1,0,0,2.7132229805,,,,,2015_Oct_24_1037,G,facesParametric,19,59.4381981073,
./stim/MorphF2_02_orig.jpg,19,,,,,0,19,19,19,,,,,,,,,,,,,,,,,,,-6.123046875,-13.154296875,1,0,0,2.34535193443,,,,,2015_Oct_24_1037,G,facesParametric,19,59.4381981073,
./stim/MorphM9_04_orig.jpg,20,,,,,0,20,20,20,,,,,,,,,,,,,,,,,,,-6.03515625,-12.919921875,1,0,0,1.50696611404,,,,,2015_Oct_24_1037,G,facesParametric,19,59.4381981073,
./stim/MorphM5_03_orig.jpg,21,,,,,0,21,21,21,,,,,,,,,,,,,,,,,,,-6.09375,-13.154296875,0,0,1,1.08825802803,,,,,2015_Oct_24_1037,G,facesParametric,19,59.4381981073,
./stim/MorphF4_06_orig.jpg,22,,,,,0,22,22,22,,,,,,,,,,,,,,,,,,,-6.650390625,-7.96875,1,0,0,7.85855197906,,,,,2015_Oct_24_1037,G,facesParametric,19,59.4381981073,
./stim/MorphM2_04_orig.jpg,23,,,,,0,23,23,23,,,,,,,,,,,,,,,,,,,-6.4453125,-7.529296875,1,0,0,1.17211914062,,,,,2015_Oct_24_1037,G,facesParametric,19,59.4381981073,
./stim/MorphF2_04_orig.jpg,24,,,,,0,24,24,24,,,,,,,,,,,,,,,,,,,-6.474609375,-7.3828125,0,0,1,1.70720791817,,,,,2015_Oct_24_1037,G,facesParametric,19,59.4381981073,
./stim/MorphF1_01_orig.jpg,25,,,,,0,25,25,25,,,,,,,,,,,,,,,,,,,-6.826171875,-7.177734375,1,0,0,1.15544986725,,,,,2015_Oct_24_1037,G,facesParametric,19,59.4381981073,
./stim/MorphF4_02_orig.jpg,26,,,,,0,26,26,26,,,,,,,,,,,,,,,,,,,-6.73828125,-7.119140625,1,0,0,0.953952074051,,,,,2015_Oct_24_1037,G,facesParametric,19,59.4381981073,
./stim/MorphM5_09_orig.jpg,27,,,,,0,27,27,27,,,,,,,,,,,,,,,,,,,-6.5625,-6.97265625,0,0,1,0.987477064133,,,,,2015_Oct_24_1037,G,facesParametric,19,59.4381981073,
./stim/MorphF4_08_orig.jpg,28,,,,,0,28,28,28,,,,,,,,,,,,,,,,,,,-6.15234375,-6.943359375,0,0,1,1.07143712044,,,,,2015_Oct_24_1037,G,facesParametric,19,59.4381981073,
./stim/MorphM5_04_orig.jpg,29,,,,,0,29,29,29,,,,,,,,,,,,,,,,,,,-6.73828125,-6.240234375,1,0,0,4.05433487892,,,,,2015_Oct_24_1037,G,facesParametric,19,59.4381981073,
./stim/MorphM10_06_orig.jpg,30,,,,,0,30,30,30,,,,,,,,,,,,,,,,,,,-6.123046875,-6.064453125,0,0,1,1.33995604515,,,,,2015_Oct_24_1037,G,facesParametric,19,59.4381981073,
./stim/MorphF1_09_orig.jpg,31,,,,,0,31,31,31,,,,,,,,,,,,,,,,,,,-5.7421875,-6.03515625,0,0,1,6.86966085434,,,,,2015_Oct_24_1037,G,facesParametric,19,59.4381981073,
./stim/MorphF4_09_orig.jpg,32,,,,,0,32,32,32,,,,,,,,,,,,,,,,,,,-5.771484375,-6.474609375,0,0,1,1.59122109413,,,,,2015_Oct_24_1037,G,facesParametric,19,59.4381981073,
./stim/MorphF2_00_orig.jpg,33,,,,,0,33,33,33,,,,,,,,,,,,,,,,,,,-5.7421875,-6.38671875,1,0,0,1.3729159832,,,,,2015_Oct_24_1037,G,facesParametric,19,59.4381981073,
./stim/MorphF5_09_orig.jpg,34,,,,,0,34,34,34,,,,,,,,,,,,,,,,,,,-5.7421875,-6.38671875,0,0,1,1.40632104874,,,,,2015_Oct_24_1037,G,facesParametric,19,59.4381981073,
./stim/MorphM8_07_orig.jpg,35,,,,,0,35,35,35,,,,,,,,,,,,,,,,,,,-5.390625,-6.26953125,0,0,1,1.97658586502,,,,,2015_Oct_24_1037,G,facesParametric,19,59.4381981073,
./stim/MorphF5_01_orig.jpg,36,,,,,0,36,36,36,,,,,,,,,,,,,,,,,,,-5.390625,-6.533203125,1,0,0,1.35610198975,,,,,2015_Oct_24_1037,G,facesParametric,19,59.4381981073,
./stim/MorphF4_00_orig.jpg,37,,,,,0,37,37,37,,,,,,,,,,,,,,,,,,,-5.09765625,-6.357421875,1,0,0,0.952563047409,,,,,2015_Oct_24_1037,G,facesParametric,19,59.4381981073,
./stim/MorphM9_10_orig.jpg,38,,,,,0,38,38,38,,,,,,,,,,,,,,,,,,,-5.009765625,-6.2109375,0,0,1,1.85818600655,,,,,2015_Oct_24_1037,G,facesParametric,19,59.4381981073,
./stim/MorphM2_01_orig.jpg,39,,,,,0,39,39,39,,,,,,,,,,,,,,,,,,,-4.833984375,-5.712890625,1,0,0,1.0382540226,,,,,2015_Oct_24_1037,G,facesParametric,19,59.4381981073,
./stim/MorphF1_06_orig.jpg,40,,,,,0,40,40,40,,,,,,,,,,,,,,,,,,,-4.5703125,-5.771484375,1,0,0,1.18878293037,,,,,2015_Oct_24_1037,G,facesParametric,19,59.4381981073,
./stim/MorphF6_04_orig.jpg,41,,,,,0,41,41,41,,,,,,,,,,,,,,,,,,,-4.5703125,-5.7421875,1,0,0,2.76420092583,,,,,2015_Oct_24_1037,G,facesParametric,19,59.4381981073,
./stim/MorphM4_06_orig.jpg,42,,,,,0,42,42,42,,,,,,,,,,,,,,,,,,,-4.62890625,-5.80078125,0,0,1,1.50678515434,,,,,2015_Oct_24_1037,G,facesParametric,19,59.4381981073,
./stim/MorphM5_08_orig.jpg,43,,,,,0,43,43,43,,,,,,,,,,,,,,,,,,,-4.365234375,-5.771484375,0,0,1,2.86460399628,,,,,2015_Oct_24_1037,G,facesParametric,19,59.4381981073,
./stim/MorphM2_09_orig.jpg,44,,,,,0,44,44,44,,,,,,,,,,,,,,,,,,,-4.21875,-5.68359375,0,0,1,2.00764107704,,,,,2015_Oct_24_1037,G,facesParametric,19,59.4381981073,
./stim/MorphF3_02_orig.jpg,45,,,,,0,45,45,45,,,,,,,,,,,,,,,,,,,-3.720703125,-5.390625,1,0,0,1.03713202477,,,,,2015_Oct_24_1037,G,facesParametric,19,59.4381981073,
./stim/MorphM10_10_orig.jpg,46,,,,,0,46,46,46,,,,,,,,,,,,,,,,,,,-4.013671875,-4.482421875,0,0,1,1.37333297729,,,,,2015_Oct_24_1037,G,facesParametric,19,59.4381981073,
./stim/MorphM2_02_orig.jpg,47,,,,,0,47,47,47,,,,,,,,,,,,,,,,,,,-4.482421875,-4.716796875,1,0,0,1.5571680069,,,,,2015_Oct_24_1037,G,facesParametric,19,59.4381981073,
./stim/MorphM8_06_orig.jpg,48,,,,,0,48,48,48,,,,,,,,,,,,,,,,,,,-4.833984375,-4.5703125,1,0,0,3.03145098686,,,,,2015_Oct_24_1037,G,facesParametric,19,59.4381981073,
./stim/MorphM3_09_orig.jpg,49,,,,,0,49,49,49,,,,,,,,,,,,,,,,,,,-5.068359375,-5.0390625,0,0,1,3.21648907661,,,,,2015_Oct_24_1037,G,facesParametric,19,59.4381981073,
./stim/MorphF8_08_orig.jpg,50,,,,,0,50,50,50,,,,,,,,,,,,,,,,,,,-4.599609375,-5.595703125,0,0,1,3.66896605492,,,,,2015_Oct_24_1037,G,facesParametric,19,59.4381981073,
./stim/MorphF4_05_orig.jpg,51,,,,,0,51,51,51,,,,,,,,,,,,,,,,,,,-4.453125,-5.712890625,1,0,0,0.987363100052,,,,,2015_Oct_24_1037,G,facesParametric,19,59.4381981073,
./stim/MorphF9_09_orig.jpg,52,,,,,0,52,52,52,,,,,,,,,,,,,,,,,,,-4.541015625,-5.654296875,0,0,1,1.1546831131,,,,,2015_Oct_24_1037,G,facesParametric,19,59.4381981073,
./stim/MorphF10_10_orig.jpg,53,,,,,0,53,53,53,,,,,,,,,,,,,,,,,,,-4.62890625,-5.625,0,0,1,2.58034801483,,,,,2015_Oct_24_1037,G,facesParametric,19,59.4381981073,
./stim/MorphM9_00_orig.jpg,54,,,,,0,54,54,54,,,,,,,,,,,,,,,,,,,-4.599609375,-5.830078125,1,0,0,0.918873071671,,,,,2015_Oct_24_1037,G,facesParametric,19,59.4381981073,
./stim/MorphF7_06_orig.jpg,55,,,,,0,55,55,55,,,,,,,,,,,,,,,,,,,-4.306640625,-5.859375,1,0,0,2.46191883087,,,,,2015_Oct_24_1037,G,facesParametric,19,59.4381981073,
./stim/MorphM6_02_orig.jpg,56,,,,,0,56,56,56,,,,,,,,,,,,,,,,,,,-4.248046875,-6.064453125,1,0,0,4.95977377892,,,,,2015_Oct_24_1037,G,facesParametric,19,59.4381981073,
./stim/MorphF8_09_orig.jpg,57,,,,,0,57,57,57,,,,,,,,,,,,,,,,,,,-4.189453125,-6.123046875,0,0,1,1.49038600922,,,,,2015_Oct_24_1037,G,facesParametric,19,59.4381981073,
./stim/MorphF10_03_orig.jpg,58,,,,,0,58,58,58,,,,,,,,,,,,,,,,,,,-4.1015625,-5.91796875,1,0,0,4.77506089211,,,,,2015_Oct_24_1037,G,facesParametric,19,59.4381981073,
./stim/MorphF6_02_orig.jpg,59,,,,,0,59,59,59,,,,,,,,,,,,,,,,,,,-4.04296875,-5.91796875,1,0,0,1.22194695473,,,,,2015_Oct_24_1037,G,facesParametric,19,59.4381981073,
./stim/MorphM4_10_orig.jpg,60,,,,,0,60,60,60,,,,,,,,,,,,,,,,,,,-4.130859375,-6.005859375,0,0,1,2.34516191483,,,,,2015_Oct_24_1037,G,facesParametric,19,59.4381981073,
./stim/MorphF4_03_orig.jpg,61,,,,,0,61,61,61,,,,,,,,,,,,,,,,,,,-4.541015625,-6.064453125,1,0,0,1.22176504135,,,,,2015_Oct_24_1037,G,facesParametric,19,59.4381981073,
./stim/MorphF9_03_orig.jpg,62,,,,,0,62,62,62,,,,,,,,,,,,,,,,,,,-4.39453125,-5.712890625,1,0,0,1.82447385788,,,,,2015_Oct_24_1037,G,facesParametric,19,59.4381981073,
./stim/MorphM7_02_orig.jpg,63,,,,,0,63,63,63,,,,,,,,,,,,,,,,,,,-4.1015625,-5.419921875,0,0,1,1.59083509445,,,,,2015_Oct_24_1037,G,facesParametric,19,59.4381981073,
./stim/MorphF4_07_orig.jpg,64,,,,,0,64,64,64,,,,,,,,,,,,,,,,,,,-4.248046875,-5.478515625,0,0,1,2.59669399261,,,,,2015_Oct_24_1037,G,facesParametric,19,59.4381981073,
./stim/MorphM8_10_orig.jpg,65,,,,,0,65,65,65,,,,,,,,,,,,,,,,,,,-3.603515625,-5.537109375,0,0,1,2.74569582939,,,,,2015_Oct_24_1037,G,facesParametric,19,59.4381981073,
./stim/MorphF6_10_orig.jpg,66,,,,,0,66,66,66,,,,,,,,,,,,,,,,,,,-3.3984375,-5.888671875,0,0,1,5.946352005,,,,,2015_Oct_24_1037,G,facesParametric,19,59.4381981073,
./stim/MorphM7_05_orig.jpg,67,,,,,0,67,67,67,,,,,,,,,,,,,,,,,,,-3.45703125,-5.859375,0,0,1,2.10986685753,,,,,2015_Oct_24_1037,G,facesParametric,19,59.4381981073,
./stim/MorphF3_06_orig.jpg,68,,,,,0,68,68,68,,,,,,,,,,,,,,,,,,,-3.486328125,-5.80078125,1,0,0,1.59091997147,,,,,2015_Oct_24_1037,G,facesParametric,19,59.4381981073,
./stim/MorphM4_05_orig.jpg,69,,,,,0,69,69,69,,,,,,,,,,,,,,,,,,,-3.28125,-6.03515625,0,0,1,3.30034685135,,,,,2015_Oct_24_1037,G,facesParametric,19,59.4381981073,
./stim/MorphM10_00_orig.jpg,70,,,,,0,70,70,70,,,,,,,,,,,,,,,,,,,-3.046875,-6.15234375,1,0,0,1.22133278847,,,,,2015_Oct_24_1037,G,facesParametric,19,59.4381981073,
./stim/MorphM8_04_orig.jpg,71,,,,,0,71,71,71,,,,,,,,,,,,,,,,,,,-2.87109375,-6.240234375,1,0,0,7.10482001305,,,,,2015_Oct_24_1037,G,facesParametric,19,59.4381981073,
./stim/MorphM2_06_orig.jpg,72,,,,,0,72,72,72,,,,,,,,,,,,,,,,,,,-2.9296875,-6.26953125,1,0,0,2.9148080349,,,,,2015_Oct_24_1037,G,facesParametric,19,59.4381981073,
./stim/MorphM7_03_orig.jpg,73,,,,,0,73,73,73,,,,,,,,,,,,,,,,,,,-2.8125,-6.09375,1,0,0,4.15514707565,,,,,2015_Oct_24_1037,G,facesParametric,19,59.4381981073,
./stim/MorphF1_02_orig.jpg,74,,,,,0,74,74,74,,,,,,,,,,,,,,,,,,,-2.841796875,-6.2109375,1,0,0,1.23902416229,,,,,2015_Oct_24_1037,G,facesParametric,19,59.4381981073,
./stim/MorphM9_08_orig.jpg,75,,,,,0,75,75,75,,,,,,,,,,,,,,,,,,,-2.75390625,-6.50390625,0,0,1,1.3731482029,,,,,2015_Oct_24_1037,G,facesParametric,19,59.4381981073,
./stim/MorphF6_09_orig.jpg,76,,,,,0,76,76,76,,,,,,,,,,,,,,,,,,,-2.841796875,-6.796875,0,0,1,2.69475197792,,,,,2015_Oct_24_1037,G,facesParametric,19,59.4381981073,
./stim/MorphM1_02_orig.jpg,77,,,,,0,77,77,77,,,,,,,,,,,,,,,,,,,-2.666015625,-6.826171875,1,0,0,1.45678305626,,,,,2015_Oct_24_1037,G,facesParametric,19,59.4381981073,
./stim/MorphF6_07_orig.jpg,78,,,,,0,78,78,78,,,,,,,,,,,,,,,,,,,-2.783203125,-6.943359375,1,0,0,5.98043203354,,,,,2015_Oct_24_1037,G,facesParametric,19,59.4381981073,
./stim/MorphF3_10_orig.jpg,79,,,,,0,79,79,79,,,,,,,,,,,,,,,,,,,-2.724609375,-7.08984375,1,0,0,2.14351201057,,,,,2015_Oct_24_1037,G,facesParametric,19,59.4381981073,
./stim/MorphM6_00_orig.jpg,80,,,,,0,80,80,80,,,,,,,,,,,,,,,,,,,-2.490234375,-7.08984375,1,0,0,3.46804904938,,,,,2015_Oct_24_1037,G,facesParametric,19,59.4381981073,
./stim/MorphM4_01_orig.jpg,81,,,,,0,81,81,81,,,,,,,,,,,,,,,,,,,-2.490234375,-7.1484375,1,0,0,1.52380299568,,,,,2015_Oct_24_1037,G,facesParametric,19,59.4381981073,
./stim/MorphM1_01_orig.jpg,82,,,,,0,82,82,82,,,,,,,,,,,,,,,,,,,-2.373046875,-7.060546875,1,0,0,1.12036395073,,,,,2015_Oct_24_1037,G,facesParametric,19,59.4381981073,
./stim/MorphM10_01_orig.jpg,83,,,,,0,83,83,83,,,,,,,,,,,,,,,,,,,-2.314453125,-7.060546875,1,0,0,2.17723011971,,,,,2015_Oct_24_1037,G,facesParametric,19,59.4381981073,
./stim/MorphF8_07_orig.jpg,84,,,,,0,84,84,84,,,,,,,,,,,,,,,,,,,-2.255859375,-7.001953125,0,0,1,1.62497401237,,,,,2015_Oct_24_1037,G,facesParametric,19,59.4381981073,
./stim/MorphM10_08_orig.jpg,85,,,,,0,85,85,85,,,,,,,,,,,,,,,,,,,-2.109375,-7.060546875,0,0,1,1.13847208023,,,,,2015_Oct_24_1037,G,facesParametric,19,59.4381981073,
./stim/MorphF7_10_orig.jpg,86,,,,,0,86,86,86,,,,,,,,,,,,,,,,,,,-2.16796875,-7.1484375,0,0,1,2.24422001839,,,,,2015_Oct_24_1037,G,facesParametric,19,59.4381981073,
./stim/MorphF8_03_orig.jpg,87,,,,,0,87,87,87,,,,,,,,,,,,,,,,,,,-2.255859375,-7.20703125,1,0,0,1.06925487518,,,,,2015_Oct_24_1037,G,facesParametric,19,59.4381981073,
./stim/MorphF3_05_orig.jpg,88,,,,,0,88,88,88,,,,,,,,,,,,,,,,,,,-2.255859375,-7.20703125,1,0,0,1.17191982269,,,,,2015_Oct_24_1037,G,facesParametric,19,59.4381981073,
./stim/MorphF1_10_orig.jpg,89,,,,,0,89,89,89,,,,,,,,,,,,,,,,,,,-2.431640625,-7.529296875,0,0,1,2.68028402328,,,,,2015_Oct_24_1037,G,facesParametric,19,59.4381981073,
./stim/MorphF6_06_orig.jpg,90,,,,,0,90,90,90,,,,,,,,,,,,,,,,,,,-2.51953125,-7.734375,0,0,1,2.8130698204,,,,,2015_Oct_24_1037,G,facesParametric,19,59.4381981073,
./stim/MorphM2_08_orig.jpg,91,,,,,0,91,91,91,,,,,,,,,,,,,,,,,,,-2.578125,-7.705078125,0,0,1,3.38429713249,,,,,2015_Oct_24_1037,G,facesParametric,19,59.4381981073,
./stim/MorphF5_05_orig.jpg,92,,,,,0,92,92,92,,,,,,,,,,,,,,,,,,,-2.783203125,-7.470703125,1,0,0,3.09917712212,,,,,2015_Oct_24_1037,G,facesParametric,19,59.4381981073,
./stim/MorphM5_06_orig.jpg,93,,,,,0,93,93,93,,,,,,,,,,,,,,,,,,,-2.75390625,-7.353515625,0,0,1,1.42349410057,,,,,2015_Oct_24_1037,G,facesParametric,19,59.4381981073,
./stim/MorphF3_03_orig.jpg,94,,,,,0,94,94,94,,,,,,,,,,,,,,,,,,,-2.63671875,-7.265625,1,0,0,0.970733165741,,,,,2015_Oct_24_1037,G,facesParametric,19,59.4381981073,
./stim/MorphF10_04_orig.jpg,95,,,,,0,95,95,95,,,,,,,,,,,,,,,,,,,-2.724609375,-7.20703125,1,0,0,4.18859195709,,,,,2015_Oct_24_1037,G,facesParametric,19,59.4381981073,
./stim/MorphM8_09_orig.jpg,96,,,,,0,96,96,96,,,,,,,,,,,,,,,,,,,-2.724609375,-7.236328125,0,0,1,2.15942883492,,,,,2015_Oct_24_1037,G,facesParametric,19,59.4381981073,
./stim/MorphF1_03_orig.jpg,97,,,,,0,97,97,97,,,,,,,,,,,,,,,,,,,-2.75390625,-7.119140625,1,0,0,4.72451996803,,,,,2015_Oct_24_1037,G,facesParametric,19,59.4381981073,
./stim/MorphF10_07_orig.jpg,98,,,,,0,98,98,98,,,,,,,,,,,,,,,,,,,-2.6953125,-7.20703125,1,0,0,4.33867406845,,,,,2015_Oct_24_1037,G,facesParametric,19,59.4381981073,
./stim/MorphF7_05_orig.jpg,99,,,,,0,99,99,99,,,,,,,,,,,,,,,,,,,-2.783203125,-7.294921875,1,0,0,1.4232981205,,,,,2015_Oct_24_1037,G,facesParametric,19,59.4381981073,
./stim/MorphF3_00_orig.jpg,100,,,,,0,100,100,100,,,,,,,,,,,,,,,,,,,-2.724609375,-7.32421875,1,0,0,1.1548140049,,,,,2015_Oct_24_1037,G,facesParametric,19,59.4381981073,
./stim/MorphM3_05_orig.jpg,101,,,,,0,101,101,101,,,,,,,,,,,,,,,,,,,-2.109375,-7.03125,1,0,0,14.7812461853,,,,,2015_Oct_24_1037,G,facesParametric,19,59.4381981073,
./stim/MorphF10_09_orig.jpg,102,,,,,0,102,102,102,,,,,,,,,,,,,,,,,,,-2.197265625,-6.884765625,0,0,1,1.92436599731,,,,,2015_Oct_24_1037,G,facesParametric,19,59.4381981073,
./stim/MorphF5_03_orig.jpg,103,,,,,0,103,103,103,,,,,,,,,,,,,,,,,,,-2.314453125,-7.08984375,1,0,0,6.88598299026,,,,,2015_Oct_24_1037,G,facesParametric,19,59.4381981073,
./stim/MorphM9_07_orig.jpg,104,,,,,0,104,104,104,,,,,,,,,,,,,,,,,,,-2.255859375,-7.060546875,0,0,1,3.36695098877,,,,,2015_Oct_24_1037,G,facesParametric,19,59.4381981073,
./stim/MorphM10_07_orig.jpg,105,,,,,0,105,105,105,,,,,,,,,,,,,,,,,,,-2.05078125,-7.32421875,0,0,1,2.84562683105,,,,,2015_Oct_24_1037,G,facesParametric,19,59.4381981073,
./stim/MorphF1_07_orig.jpg,106,,,,,0,106,106,106,,,,,,,,,,,,,,,,,,,-2.314453125,-7.412109375,1,0,0,3.35060787201,,,,,2015_Oct_24_1037,G,facesParametric,19,59.4381981073,
./stim/MorphF7_04_orig.jpg,107,,,,,0,107,107,107,,,,,,,,,,,,,,,,,,,-2.197265625,-7.412109375,1,0,0,2.26113295555,,,,,2015_Oct_24_1037,G,facesParametric,19,59.4381981073,
./stim/MorphM7_06_orig.jpg,108,,,,,0,108,108,108,,,,,,,,,,,,,,,,,,,-2.109375,-7.353515625,0,0,1,1.32162094116,,,,,2015_Oct_24_1037,G,facesParametric,19,59.4381981073,
./stim/MorphF10_02_orig.jpg,109,,,,,0,109,109,109,,,,,,,,,,,,,,,,,,,-2.080078125,-7.470703125,1,0,0,1.3904941082,,,,,2015_Oct_24_1037,G,facesParametric,19,59.4381981073,
./stim/MorphF9_10_orig.jpg,110,,,,,0,110,110,110,,,,,,,,,,,,,,,,,,,-2.607421875,-7.67578125,0,0,1,7.23640990257,,,,,2015_Oct_24_1037,G,facesParametric,19,59.4381981073,
./stim/MorphM9_06_orig.jpg,111,,,,,0,111,111,111,,,,,,,,,,,,,,,,,,,-2.51953125,-8.37890625,1,0,0,3.41693115234,,,,,2015_Oct_24_1037,G,facesParametric,19,59.4381981073,
./stim/MorphM10_03_orig.jpg,112,,,,,0,112,112,112,,,,,,,,,,,,,,,,,,,-1.69921875,-8.466796875,0,0,1,13.5912508965,,,,,2015_Oct_24_1037,G,facesParametric,19,59.4381981073,
./stim/MorphM4_00_orig.jpg,113,,,,,0,113,113,113,,,,,,,,,,,,,,,,,,,-1.40625,-8.671875,1,0,0,1.38982892036,,,,,2015_Oct_24_1037,G,facesParametric,19,59.4381981073,
./stim/MorphM10_09_orig.jpg,114,,,,,0,114,114,114,,,,,,,,,,,,,,,,,,,-1.9921875,-8.701171875,0,0,1,1.0050098896,,,,,2015_Oct_24_1037,G,facesParametric,19,59.4381981073,
./stim/MorphM9_02_orig.jpg,115,,,,,0,115,115,115,,,,,,,,,,,,,,,,,,,-2.578125,-8.701171875,1,0,0,1.33808088303,,,,,2015_Oct_24_1037,G,facesParametric,19,59.4381981073,
./stim/MorphF7_07_orig.jpg,116,,,,,0,116,116,116,,,,,,,,,,,,,,,,,,,-2.8125,-8.7890625,1,0,0,8.25975203514,,,,,2015_Oct_24_1037,G,facesParametric,19,59.4381981073,
./stim/MorphM8_01_orig.jpg,117,,,,,0,117,117,117,,,,,,,,,,,,,,,,,,,-3.076171875,-8.4375,1,0,0,1.74143409729,,,,,2015_Oct_24_1037,G,facesParametric,19,59.4381981073,
./stim/MorphF5_08_orig.jpg,118,,,,,0,118,118,118,,,,,,,,,,,,,,,,,,,-3.10546875,-8.3203125,0,0,1,1.70879793167,,,,,2015_Oct_24_1037,G,facesParametric,19,59.4381981073,
./stim/MorphF6_00_orig.jpg,119,,,,,0,119,119,119,,,,,,,,,,,,,,,,,,,-3.10546875,-8.26171875,1,0,0,1.27138996124,,,,,2015_Oct_24_1037,G,facesParametric,19,59.4381981073,
./stim/MorphF8_10_orig.jpg,120,,,,,0,120,120,120,,,,,,,,,,,,,,,,,,,-3.310546875,-8.056640625,0,0,1,0.985123872757,,,,,2015_Oct_24_1037,G,facesParametric,19,59.4381981073,
./stim/MorphF10_06_orig.jpg,121,,,,,0,121,121,121,,,,,,,,,,,,,,,,,,,-3.45703125,-8.26171875,0,0,1,2.54644107819,,,,,2015_Oct_24_1037,G,facesParametric,19,59.4381981073,
./stim/MorphF3_09_orig.jpg,122,,,,,0,122,122,122,,,,,,,,,,,,,,,,,,,-3.515625,-8.349609375,1,0,0,1.15523386002,,,,,2015_Oct_24_1037,G,facesParametric,19,59.4381981073,
./stim/MorphF9_07_orig.jpg,123,,,,,0,123,123,123,,,,,,,,,,,,,,,,,,,-4.3359375,-8.26171875,0,0,1,1.69136285782,,,,,2015_Oct_24_1037,G,facesParametric,19,59.4381981073,
./stim/MorphF2_09_orig.jpg,124,,,,,0,124,124,124,,,,,,,,,,,,,,,,,,,-4.482421875,-8.203125,0,0,1,1.84183597565,,,,,2015_Oct_24_1037,G,facesParametric,19,59.4381981073,
./stim/MorphM7_09_orig.jpg,125,,,,,0,125,125,125,,,,,,,,,,,,,,,,,,,-4.39453125,-8.349609375,0,0,1,1.49081802368,,,,,2015_Oct_24_1037,G,facesParametric,19,59.4381981073,
./stim/MorphF6_08_orig.jpg,126,,,,,0,126,126,126,,,,,,,,,,,,,,,,,,,-4.658203125,-8.173828125,0,0,1,1.89212989807,,,,,2015_Oct_24_1037,G,facesParametric,19,59.4381981073,
./stim/MorphM3_01_orig.jpg,127,,,,,0,127,127,127,,,,,,,,,,,,,,,,,,,-4.833984375,-8.232421875,1,0,0,1.22207403183,,,,,2015_Oct_24_1037,G,facesParametric,19,59.4381981073,
./stim/MorphF7_01_orig.jpg,128,,,,,0,128,128,128,,,,,,,,,,,,,,,,,,,-5.009765625,-8.173828125,1,0,0,0.953942775726,,,,,2015_Oct_24_1037,G,facesParametric,19,59.4381981073,
./stim/MorphF2_06_orig.jpg,129,,,,,0,129,129,129,,,,,,,,,,,,,,,,,,,-4.892578125,-8.02734375,0,0,1,3.58574509621,,,,,2015_Oct_24_1037,G,facesParametric,19,59.4381981073,
./stim/MorphM1_03_orig.jpg,130,,,,,0,130,130,130,,,,,,,,,,,,,,,,,,,-4.951171875,-8.203125,1,0,0,1.73968601227,,,,,2015_Oct_24_1037,G,facesParametric,19,59.4381981073,
./stim/MorphM8_03_orig.jpg,131,,,,,0,131,131,131,,,,,,,,,,,,,,,,,,,-4.423828125,-8.203125,1,0,0,1.33849382401,,,,,2015_Oct_24_1037,G,facesParametric,19,59.4381981073,
./stim/MorphF7_03_orig.jpg,132,,,,,0,132,132,132,,,,,,,,,,,,,,,,,,,-4.130859375,-8.232421875,1,0,0,1.84156012535,,,,,2015_Oct_24_1037,G,facesParametric,19,59.4381981073,
./stim/MorphM6_03_orig.jpg,133,,,,,0,133,133,133,,,,,,,,,,,,,,,,,,,-3.984375,-8.173828125,1,0,0,1.62320399284,,,,,2015_Oct_24_1037,G,facesParametric,19,59.4381981073,
./stim/MorphM3_06_orig.jpg,134,,,,,0,134,134,134,,,,,,,,,,,,,,,,,,,-3.720703125,-8.3203125,0,0,1,2.56279110909,,,,,2015_Oct_24_1037,G,facesParametric,19,59.4381981073,
./stim/MorphM5_10_orig.jpg,135,,,,,0,135,135,135,,,,,,,,,,,,,,,,,,,-4.130859375,-8.3203125,0,0,1,2.91503787041,,,,,2015_Oct_24_1037,G,facesParametric,19,59.4381981073,
./stim/MorphM8_02_orig.jpg,136,,,,,0,136,136,136,,,,,,,,,,,,,,,,,,,-5.419921875,-9.08203125,1,0,0,2.09413599968,,,,,2015_Oct_24_1037,G,facesParametric,19,59.4381981073,
./stim/MorphF2_10_orig.jpg,137,,,,,0,137,137,137,,,,,,,,,,,,,,,,,,,-5.009765625,-8.876953125,0,0,1,1.64110898972,,,,,2015_Oct_24_1037,G,facesParametric,19,59.4381981073,
./stim/MorphM1_10_orig.jpg,138,,,,,0,138,138,138,,,,,,,,,,,,,,,,,,,-4.951171875,-8.96484375,1,0,0,1.05400180817,,,,,2015_Oct_24_1037,G,facesParametric,19,59.4381981073,
./stim/MorphF3_08_orig.jpg,139,,,,,0,139,139,139,,,,,,,,,,,,,,,,,,,-4.951171875,-8.90625,1,0,0,1.33937907219,,,,,2015_Oct_24_1037,G,facesParametric,19,59.4381981073,
./stim/MorphM10_04_orig.jpg,140,,,,,0,140,140,140,,,,,,,,,,,,,,,,,,,-4.6875,-8.876953125,1,0,0,10.4728198051,,,,,2015_Oct_24_1037,G,facesParametric,19,59.4381981073,
./stim/MorphM7_07_orig.jpg,141,,,,,0,141,141,141,,,,,,,,,,,,,,,,,,,-4.716796875,-8.818359375,0,0,1,2.46260595322,,,,,2015_Oct_24_1037,G,facesParametric,19,59.4381981073,
./stim/MorphF8_02_orig.jpg,142,,,,,0,142,142,142,,,,,,,,,,,,,,,,,,,-4.74609375,-9.19921875,1,0,0,3.35035610199,,,,,2015_Oct_24_1037,G,facesParametric,19,59.4381981073,
./stim/MorphM6_09_orig.jpg,143,,,,,0,143,143,143,,,,,,,,,,,,,,,,,,,-5.068359375,-9.31640625,0,0,1,1.97624182701,,,,,2015_Oct_24_1037,G,facesParametric,19,59.4381981073,
./stim/MorphF1_08_orig.jpg,144,,,,,0,144,144,144,,,,,,,,,,,,,,,,,,,-4.86328125,-9.462890625,0,0,1,9.33384108543,,,,,2015_Oct_24_1037,G,facesParametric,19,59.4381981073,
./stim/MorphF10_01_orig.jpg,145,,,,,0,145,145,145,,,,,,,,,,,,,,,,,,,-4.951171875,-9.169921875,1,0,0,3.5850019455,,,,,2015_Oct_24_1037,G,facesParametric,19,59.4381981073,
./stim/MorphF7_09_orig.jpg,146,,,,,0,146,146,146,,,,,,,,,,,,,,,,,,,-5.009765625,-9.2578125,0,0,1,1.47407388687,,,,,2015_Oct_24_1037,G,facesParametric,19,59.4381981073,
./stim/MorphM1_06_orig.jpg,147,,,,,0,147,147,147,,,,,,,,,,,,,,,,,,,-3.22265625,-8.232421875,1,0,0,71.3592660427,,,,,2015_Oct_24_1037,G,facesParametric,19,59.4381981073,
./stim/MorphM3_02_orig.jpg,148,,,,,0,148,148,148,,,,,,,,,,,,,,,,,,,-4.21875,-8.466796875,1,0,0,54.7186729908,,,,,2015_Oct_24_1037,G,facesParametric,19,59.4381981073,
./stim/MorphF5_07_orig.jpg,149,,,,,0,149,149,149,,,,,,,,,,,,,,,,,,,-4.16015625,-9.052734375,0,0,1,2.14317512512,,,,,2015_Oct_24_1037,G,facesParametric,19,59.4381981073,
./stim/MorphM6_01_orig.jpg,150,,,,,0,150,150,150,,,,,,,,,,,,,,,,,,,-4.658203125,-9.755859375,1,0,0,1.67489004135,,,,,2015_Oct_24_1037,G,facesParametric,19,59.4381981073,
./stim/MorphM5_02_orig.jpg,151,,,,,0,151,151,151,,,,,,,,,,,,,,,,,,,-5.09765625,-11.044921875,1,0,0,39.7192471027,,,,,2015_Oct_24_1037,G,facesParametric,19,59.4381981073,
./stim/MorphM1_00_orig.jpg,152,,,,,0,152,152,152,,,,,,,,,,,,,,,,,,,-5.68359375,-10.927734375,1,0,0,9.08255290985,,,,,2015_Oct_24_1037,G,facesParametric,19,59.4381981073,
./stim/MorphM4_02_orig.jpg,153,,,,,0,153,153,153,,,,,,,,,,,,,,,,,,,-5.09765625,-10.107421875,1,0,0,32.8308520317,,,,,2015_Oct_24_1037,G,facesParametric,19,59.4381981073,
./stim/MorphF2_01_orig.jpg,154,,,,,0,154,154,154,,,,,,,,,,,,,,,,,,,-2.431640625,-13.154296875,1,0,0,21.8703711033,,,,,2015_Oct_24_1037,G,facesParametric,19,59.4381981073,
./stim/MorphM2_07_orig.jpg,155,,,,,0,155,155,155,,,,,,,,,,,,,,,,,,,-2.138671875,-13.125,0,0,1,4.10267901421,,,,,2015_Oct_24_1037,G,facesParametric,19,59.4381981073,
./stim/MorphM1_05_orig.jpg,156,,,,,0,156,156,156,,,,,,,,,,,,,,,,,,,-2.75390625,-13.154296875,1,0,0,7.17214202881,,,,,2015_Oct_24_1037,G,facesParametric,19,59.4381981073,
./stim/MorphM3_07_orig.jpg,157,,,,,0,157,157,157,,,,,,,,,,,,,,,,,,,-1.259765625,-13.095703125,0,0,1,45.2822639942,,,,,2015_Oct_24_1037,G,facesParametric,19,59.4381981073,
./stim/MorphF9_01_orig.jpg,158,,,,,0,158,158,158,,,,,,,,,,,,,,,,,,,-3.251953125,-12.890625,1,0,0,2.5456161499,,,,,2015_Oct_24_1037,G,facesParametric,19,59.4381981073,
./stim/MorphM2_10_orig.jpg,159,,,,,0,159,159,159,,,,,,,,,,,,,,,,,,,-2.9296875,-12.626953125,0,0,1,1.99184298515,,,,,2015_Oct_24_1037,G,facesParametric,19,59.4381981073,
./stim/MorphM3_04_orig.jpg,160,,,,,0,160,160,160,,,,,,,,,,,,,,,,,,,-2.666015625,-13.06640625,1,0,0,1.79216313362,,,,,2015_Oct_24_1037,G,facesParametric,19,59.4381981073,
./stim/MorphM9_09_orig.jpg,161,,,,,0,161,161,161,,,,,,,,,,,,,,,,,,,-5.91796875,-13.154296875,0,0,1,2.5276529789,,,,,2015_Oct_24_1037,G,facesParametric,19,59.4381981073,
./stim/MorphF3_01_orig.jpg,162,,,,,0,162,162,162,,,,,,,,,,,,,,,,,,,-22.8515625,-0.791015625,1,0,0,2.10990095139,,,,,2015_Oct_24_1037,G,facesParametric,19,59.4381981073,
./stim/MorphF5_04_orig.jpg,163,,,,,0,163,163,163,,,,,,,,,,,,,,,,,,,-22.529296875,-0.52734375,1,0,0,2.89803504944,,,,,2015_Oct_24_1037,G,facesParametric,19,59.4381981073,
./stim/MorphF9_00_orig.jpg,164,,,,,0,164,164,164,,,,,,,,,,,,,,,,,,,-22.646484375,-0.498046875,1,0,0,3.03239202499,,,,,2015_Oct_24_1037,G,facesParametric,19,59.4381981073,
./stim/MorphF1_05_orig.jpg,165,,,,,0,165,165,165,,,,,,,,,,,,,,,,,,,-19.013671875,-3.720703125,1,0,0,1.32230591774,,,,,2015_Oct_24_1037,G,facesParametric,19,59.4381981073,
./stim/MorphF8_05_orig.jpg,166,,,,,0,166,166,166,,,,,,,,,,,,,,,,,,,-19.04296875,-4.04296875,1,0,0,24.6354210377,,,,,2015_Oct_24_1037,G,facesParametric,19,59.4381981073,
./stim/MorphF7_08_orig.jpg,167,,,,,0,167,167,167,,,,,,,,,,,,,,,,,,,-18.984375,-4.453125,0,0,1,2.59600710869,,,,,2015_Oct_24_1037,G,facesParametric,19,59.4381981073,
./stim/MorphM5_00_orig.jpg,168,,,,,0,168,168,168,,,,,,,,,,,,,,,,,,,-17.578125,-4.541015625,1,0,0,17.1102330685,,,,,2015_Oct_24_1037,G,facesParametric,19,59.4381981073,
./stim/MorphM2_00_orig.jpg,169,,,,,0,169,169,169,,,,,,,,,,,,,,,,,,,-17.16796875,-4.3359375,1,0,0,3.50132608414,,,,,2015_Oct_24_1037,G,facesParametric,19,59.4381981073,
./stim/MorphF1_04_orig.jpg,170,,,,,0,170,170,170,,,,,,,,,,,,,,,,,,,-15.76171875,-2.4609375,0,0,1,7.57244205475,,,,,2015_Oct_24_1037,G,facesParametric,19,59.4381981073,
./stim/MorphM10_05_orig.jpg,171,,,,,0,171,171,171,,,,,,,,,,,,,,,,,,,-15.849609375,-3.955078125,0,0,1,3.09762907028,,,,,2015_Oct_24_1037,G,facesParametric,19,59.4381981073,
./stim/MorphF6_01_orig.jpg,172,,,,,0,172,172,172,,,,,,,,,,,,,,,,,,,-15.8203125,-4.189453125,1,0,0,2.46220207214,,,,,2015_Oct_24_1037,G,facesParametric,19,59.4381981073,
./stim/MorphM9_03_orig.jpg,173,,,,,0,173,173,173,,,,,,,,,,,,,,,,,,,-14.47265625,-3.1640625,0,0,1,17.9618098736,,,,,2015_Oct_24_1037,G,facesParametric,19,59.4381981073,
./stim/MorphM3_10_orig.jpg,174,,,,,0,174,174,174,,,,,,,,,,,,,,,,,,,-16.171875,-4.51171875,0,0,1,3.16608381271,,,,,2015_Oct_24_1037,G,facesParametric,19,59.4381981073,
./stim/MorphM8_05_orig.jpg,175,,,,,0,175,175,175,,,,,,,,,,,,,,,,,,,-16.259765625,-4.306640625,0,0,1,2.49644398689,,,,,2015_Oct_24_1037,G,facesParametric,19,59.4381981073,
./stim/MorphF2_08_orig.jpg,176,,,,,0,176,176,176,,,,,,,,,,,,,,,,,,,-18.8671875,-4.5703125,0,0,1,2.04348802567,,,,,2015_Oct_24_1037,G,facesParametric,19,59.4381981073,
./stim/MorphF8_04_orig.jpg,177,,,,,0,177,177,177,,,,,,,,,,,,,,,,,,,-23.4375,-8.49609375,1,0,0,1.92480707169,,,,,2015_Oct_24_1037,G,facesParametric,19,59.4381981073,
./stim/MorphM1_04_orig.jpg,178,,,,,0,178,178,178,,,,,,,,,,,,,,,,,,,-23.349609375,-3.57421875,1,0,0,4.3896458149,,,,,2015_Oct_24_1037,G,facesParametric,19,59.4381981073,
./stim/MorphM4_07_orig.jpg,179,,,,,0,179,179,179,,,,,,,,,,,,,,,,,,,-23.232421875,-3.603515625,0,0,1,1.96016001701,,,,,2015_Oct_24_1037,G,facesParametric,19,59.4381981073,
./stim/MorphF9_04_orig.jpg,180,,,,,0,180,180,180,,,,,,,,,,,,,,,,,,,-22.939453125,-3.1640625,0,0,1,3.16552710533,,,,,2015_Oct_24_1037,G,facesParametric,19,59.4381981073,
./stim/MorphM6_08_orig.jpg,181,,,,,0,181,181,181,,,,,,,,,,,,,,,,,,,-22.998046875,-3.046875,0,0,1,1.67513799667,,,,,2015_Oct_24_1037,G,facesParametric,19,59.4381981073,
./stim/MorphF2_05_orig.jpg,182,,,,,0,182,182,182,,,,,,,,,,,,,,,,,,,-23.203125,-2.87109375,0,0,1,3.78596806526,,,,,2015_Oct_24_1037,G,facesParametric,19,59.4381981073,
./stim/MorphF8_01_orig.jpg,183,,,,,0,183,183,183,,,,,,,,,,,,,,,,,,,-22.939453125,-2.98828125,1,0,0,1.3399450779,,,,,2015_Oct_24_1037,G,facesParametric,19,59.4381981073,
./stim/MorphF9_02_orig.jpg,184,,,,,0,184,184,184,,,,,,,,,,,,,,,,,,,-18.134765625,-4.130859375,1,0,0,3.86997485161,,,,,2015_Oct_24_1037,G,facesParametric,19,59.4381981073,
./stim/MorphF10_08_orig.jpg,185,,,,,0,185,185,185,,,,,,,,,,,,,,,,,,,-18.896484375,-3.251953125,0,0,1,1.57404708862,,,,,2015_Oct_24_1037,G,facesParametric,19,59.4381981073,
./stim/MorphF5_00_orig.jpg,186,,,,,0,186,186,186,,,,,,,,,,,,,,,,,,,-19.248046875,-3.427734375,1,0,0,2.61318206787,,,,,2015_Oct_24_1037,G,facesParametric,19,59.4381981073,
./stim/MorphF4_04_orig.jpg,187,,,,,0,187,187,187,,,,,,,,,,,,,,,,,,,-19.189453125,-3.22265625,1,0,0,8.25923705101,,,,,2015_Oct_24_1037,G,facesParametric,19,59.4381981073,
./stim/MorphF8_00_orig.jpg,188,,,,,0,188,188,188,,,,,,,,,,,,,,,,,,,-17.958984375,-2.607421875,1,0,0,1.79158616066,,,,,2015_Oct_24_1037,G,facesParametric,19,59.4381981073,
./stim/MorphF4_01_orig.jpg,189,,,,,0,189,189,189,,,,,,,,,,,,,,,,,,,-16.962890625,-2.197265625,1,0,0,2.74652409554,,,,,2015_Oct_24_1037,G,facesParametric,19,59.4381981073,
./stim/MorphF9_08_orig.jpg,190,,,,,0,190,190,190,,,,,,,,,,,,,,,,,,,-16.69921875,-2.138671875,0,0,1,0.987185001373,,,,,2015_Oct_24_1037,G,facesParametric,19,59.4381981073,
./stim/MorphM7_01_orig.jpg,191,,,,,0,191,191,191,,,,,,,,,,,,,,,,,,,-16.7578125,-1.46484375,1,0,0,10.4576580524,,,,,2015_Oct_24_1037,G,facesParametric,19,59.4381981073,
./stim/MorphF2_07_orig.jpg,192,,,,,0,192,192,192,,,,,,,,,,,,,,,,,,,-16.69921875,-0.87890625,0,0,1,4.72283315659,,,,,2015_Oct_24_1037,G,facesParametric,19,59.4381981073,
./stim/MorphF10_00_orig.jpg,193,,,,,0,193,193,193,,,,,,,,,,,,,,,,,,,-16.81640625,-1.201171875,1,0,0,2.61363482475,,,,,2015_Oct_24_1037,G,facesParametric,19,59.4381981073,
./stim/MorphF7_02_orig.jpg,194,,,,,0,194,194,194,,,,,,,,,,,,,,,,,,,-16.875,-1.171875,0,0,1,5.59400105476,,,,,2015_Oct_24_1037,G,facesParametric,19,59.4381981073,
./stim/MorphF8_06_orig.jpg,195,,,,,0,195,195,195,,,,,,,,,,,,,,,,,,,-17.05078125,-1.376953125,1,0,0,15.3675010204,,,,,2015_Oct_24_1037,G,facesParametric,19,59.4381981073,
./stim/MorphM9_05_orig.jpg,196,,,,,0,196,196,196,,,,,,,,,,,,,,,,,,,-15.146484375,-1.845703125,0,0,1,6.55181002617,,,,,2015_Oct_24_1037,G,facesParametric,19,59.4381981073,
./stim/MorphM6_04_orig.jpg,197,,,,,0,197,197,197,,,,,,,,,,,,,,,,,,,-15.908203125,-6.357421875,0,0,1,11.4114129543,,,,,2015_Oct_24_1037,G,facesParametric,19,59.4381981073,
./stim/MorphF2_03_orig.jpg,198,,,,,0,198,198,198,,,,,,,,,,,,,,,,,,,-16.5234375,-7.470703125,1,0,0,3.92074084282,,,,,2015_Oct_24_1037,G,facesParametric,19,59.4381981073,
./stim/MorphF9_06_orig.jpg,199,,,,,0,199,199,199,,,,,,,,,,,,,,,,,,,-13.9453125,-9.580078125,1,0,0,4.07110714912,,,,,2015_Oct_24_1037,G,facesParametric,19,59.4381981073,
./stim/MorphF5_10_orig.jpg,200,,,,,0,200,200,200,,,,,,,,,,,,,,,,,,,-11.806640625,-8.408203125,0,0,1,5.5287001133,,,,,2015_Oct_24_1037,G,facesParametric,19,59.4381981073,
./stim/MorphM7_00_orig.jpg,201,,,,,0,201,201,201,,,,,,,,,,,,,,,,,,,-10.400390625,-5.244140625,0,0,1,17.2949860096,,,,,2015_Oct_24_1037,G,facesParametric,19,59.4381981073,
./stim/MorphM9_01_orig.jpg,202,,,,,0,202,202,202,,,,,,,,,,,,,,,,,,,-11.30859375,-0.966796875,1,0,0,10.0717740059,,,,,2015_Oct_24_1037,G,facesParametric,19,59.4381981073,
./stim/MorphM4_08_orig.jpg,203,,,,,0,203,203,203,,,,,,,,,,,,,,,,,,,-12.802734375,-0.849609375,0,0,1,2.37783288956,,,,,2015_Oct_24_1037,G,facesParametric,19,59.4381981073,
./stim/MorphM3_08_orig.jpg,204,,,,,0,204,204,204,,,,,,,,,,,,,,,,,,,-14.150390625,-0.322265625,1,0,0,1.49159312248,,,,,2015_Oct_24_1037,G,facesParametric,19,59.4381981073,
./stim/MorphF6_03_orig.jpg,205,,,,,0,205,205,205,,,,,,,,,,,,,,,,,,,-12.919921875,0.439453125,1,0,0,4.03648805618,,,,,2015_Oct_24_1037,G,facesParametric,19,59.4381981073,
./stim/MorphF7_00_orig.jpg,206,,,,,0,206,206,206,,,,,,,,,,,,,,,,,,,-15.908203125,-8.994140625,1,0,0,6.78629493713,,,,,2015_Oct_24_1037,G,facesParametric,19,59.4381981073,
./stim/MorphM8_00_orig.jpg,207,,,,,0,207,207,207,,,,,,,,,,,,,,,,,,,-16.728515625,-9.404296875,0,0,1,3.09946203232,,,,,2015_Oct_24_1037,G,facesParametric,19,59.4381981073,
./stim/MorphF3_04_orig.jpg,208,,,,,0,208,208,208,,,,,,,,,,,,,,,,,,,-13.623046875,-8.61328125,0,0,1,10.406840086,,,,,2015_Oct_24_1037,G,facesParametric,19,59.4381981073,
./stim/MorphM4_04_orig.jpg,209,,,,,0,209,209,209,,,,,,,,,,,,,,,,,,,-19.98046875,-9.697265625,0,0,1,3.50119113922,,,,,2015_Oct_24_1037,G,facesParametric,19,59.4381981073,
./stim/MorphF1_00_orig.jpg,210,,,,,0,210,210,210,,,,,,,,,,,,,,,,,,,-19.599609375,-9.66796875,1,0,0,1.11984109879,,,,,2015_Oct_24_1037,G,facesParametric,19,59.4381981073,
./stim/MorphM1_08_orig.jpg,211,,,,,0,211,211,211,,,,,,,,,,,,,,,,,,,-19.716796875,-9.84375,1,0,0,3.04859685898,,,,,2015_Oct_24_1037,G,facesParametric,19,59.4381981073,
./stim/MorphM6_06_orig.jpg,212,,,,,0,212,212,212,,,,,,,,,,,,,,,,,,,-20.888671875,-10.107421875,0,0,1,4.5072491169,,,,,2015_Oct_24_1037,G,facesParametric,19,59.4381981073,
./stim/MorphF4_10_orig.jpg,213,,,,,0,213,213,213,,,,,,,,,,,,,,,,,,,-21.357421875,-10.25390625,0,0,1,5.34469914436,,,,,2015_Oct_24_1037,G,facesParametric,19,59.4381981073,
./stim/MorphM7_04_orig.jpg,214,,,,,0,214,214,214,,,,,,,,,,,,,,,,,,,-21.50390625,-10.13671875,0,0,1,8.04186081886,,,,,2015_Oct_24_1037,G,facesParametric,19,59.4381981073,
./stim/MorphM2_05_orig.jpg,215,,,,,0,215,215,215,,,,,,,,,,,,,,,,,,,-21.416015625,-9.990234375,1,0,0,2.96300387383,,,,,2015_Oct_24_1037,G,facesParametric,19,59.4381981073,
./stim/MorphM3_00_orig.jpg,216,,,,,0,216,216,216,,,,,,,,,,,,,,,,,,,-20.830078125,-9.697265625,1,0,0,2.56324410439,,,,,2015_Oct_24_1037,G,facesParametric,19,59.4381981073,
./stim/MorphM10_02_orig.jpg,217,,,,,0,217,217,217,,,,,,,,,,,,,,,,,,,-20.44921875,-9.43359375,1,0,0,1.89203810692,,,,,2015_Oct_24_1037,G,facesParametric,19,59.4381981073,
./stim/MorphM4_09_orig.jpg,218,,,,,0,218,218,218,,,,,,,,,,,,,,,,,,,-20.302734375,-9.140625,0,0,1,2.41150903702,,,,,2015_Oct_24_1037,G,facesParametric,19,59.4381981073,
./stim/MorphM6_05_orig.jpg,219,,,,,0,219,219,219,,,,,,,,,,,,,,,,,,,-20.33203125,-8.818359375,1,0,0,3.56880998611,,,,,2015_Oct_24_1037,G,facesParametric,19,59.4381981073,
,,,,,,,,,,,,,,,,,,,,,,,,,,,,,,,,,,return,24.8380920887,,,2015_Oct_24_1037,G,facesParametric,19,59.4381981073,
./stim/MorphF1_02_orig.jpg,0,,,,,,,,,0,0,0,0,,,,,,,,,,,,,,,-20.537109375,-8.84765625,1,0,0,3.43441009521,,,,,2015_Oct_24_1037,G,facesParametric,19,59.4381981073,
./stim/MorphF3_06_orig.jpg,1,,,,,,,,,0,1,1,1,,,,,,,,,,,,,,,-20.537109375,-8.5546875,1,0,0,2.62958288193,,,,,2015_Oct_24_1037,G,facesParametric,19,59.4381981073,
./stim/MorphF5_06_orig.jpg,2,,,,,,,,,0,2,2,2,,,,,,,,,,,,,,,-22.705078125,-9.345703125,0,0,1,1.89234685898,,,,,2015_Oct_24_1037,G,facesParametric,19,59.4381981073,
./stim/MorphM8_01_orig.jpg,3,,,,,,,,,0,3,3,3,,,,,,,,,,,,,,,-20.478515625,8.291015625,1,0,0,2.12636804581,,,,,2015_Oct_24_1037,G,facesParametric,19,59.4381981073,
./stim/MorphF10_04_orig.jpg,4,,,,,,,,,0,4,4,4,,,,,,,,,,,,,,,-21.767578125,4.62890625,1,0,0,2.36019396782,,,,,2015_Oct_24_1037,G,facesParametric,19,59.4381981073,
./stim/MorphF6_04_orig.jpg,5,,,,,,,,,0,5,5,5,,,,,,,,,,,,,,,-23.232421875,1.669921875,1,0,0,1.40656495094,,,,,2015_Oct_24_1037,G,facesParametric,19,59.4381981073,
./stim/MorphM9_01_orig.jpg,6,,,,,,,,,0,6,6,6,,,,,,,,,,,,,,,-23.14453125,1.552734375,1,0,0,3.0826818943,,,,,2015_Oct_24_1037,G,facesParametric,19,59.4381981073,
./stim/MorphM4_03_orig.jpg,7,,,,,,,,,0,7,7,7,,,,,,,,,,,,,,,-23.232421875,1.58203125,0,0,1,2.29410409927,,,,,2015_Oct_24_1037,G,facesParametric,19,59.4381981073,
./stim/MorphF5_00_orig.jpg,8,,,,,,,,,0,8,8,8,,,,,,,,,,,,,,,-22.939453125,1.376953125,1,0,0,1.38974499702,,,,,2015_Oct_24_1037,G,facesParametric,19,59.4381981073,
./stim/MorphM8_02_orig.jpg,9,,,,,,,,,0,9,9,9,,,,,,,,,,,,,,,-22.91015625,1.875,0,0,1,1.54031419754,,,,,2015_Oct_24_1037,G,facesParametric,19,59.4381981073,
./stim/MorphM5_04_orig.jpg,10,,,,,,,,,0,10,10,10,,,,,,,,,,,,,,,-23.4375,2.080078125,0,0,1,4.07047605515,,,,,2015_Oct_24_1037,G,facesParametric,19,59.4381981073,
./stim/MorphM3_03_orig.jpg,11,,,,,,,,,0,11,11,11,,,,,,,,,,,,,,,-23.4375,-0.5859375,1,0,0,0.951440095901,,,,,2015_Oct_24_1037,G,facesParametric,19,59.4381981073,
./stim/MorphM5_08_orig.jpg,12,,,,,,,,,0,12,12,12,,,,,,,,,,,,,,,-23.203125,-0.146484375,0,0,1,5.61182713509,,,,,2015_Oct_24_1037,G,facesParametric,19,59.4381981073,
./stim/MorphF8_09_orig.jpg,13,,,,,,,,,0,13,13,13,,,,,,,,,,,,,,,-23.173828125,0.5859375,0,0,1,2.89789390564,,,,,2015_Oct_24_1037,G,facesParametric,19,59.4381981073,
./stim/MorphM1_07_orig.jpg,14,,,,,,,,,0,14,14,14,,,,,,,,,,,,,,,-23.4375,-0.966796875,1,0,0,1.92749595642,,,,,2015_Oct_24_1037,G,facesParametric,19,59.4381981073,
./stim/MorphM7_07_orig.jpg,15,,,,,,,,,0,15,15,15,,,,,,,,,,,,,,,-23.4375,0.498046875,0,0,1,1.00337791443,,,,,2015_Oct_24_1037,G,facesParametric,19,59.4381981073,
./stim/MorphF7_06_orig.jpg,16,,,,,,,,,0,16,16,16,,,,,,,,,,,,,,,-23.4375,0.234375,0,0,1,2.57961583138,,,,,2015_Oct_24_1037,G,facesParametric,19,59.4381981073,
./stim/MorphM10_07_orig.jpg,17,,,,,,,,,0,17,17,17,,,,,,,,,,,,,,,-23.4375,-0.263671875,0,0,1,2.64246201515,,,,,2015_Oct_24_1037,G,facesParametric,19,59.4381981073,
./stim/MorphF4_00_orig.jpg,18,,,,,,,,,0,18,18,18,,,,,,,,,,,,,,,-23.203125,-0.46875,1,0,0,0.869271039963,,,,,2015_Oct_24_1037,G,facesParametric,19,59.4381981073,
./stim/MorphM7_08_orig.jpg,19,,,,,,,,,0,19,19,19,,,,,,,,,,,,,,,-23.4375,-0.849609375,0,0,1,2.63003897667,,,,,2015_Oct_24_1037,G,facesParametric,19,59.4381981073,
./stim/MorphM8_06_orig.jpg,20,,,,,,,,,0,20,20,20,,,,,,,,,,,,,,,-23.4375,-1.904296875,0,0,1,3.81984496117,,,,,2015_Oct_24_1037,G,facesParametric,19,59.4381981073,
./stim/MorphM5_09_orig.jpg,21,,,,,,,,,0,21,21,21,,,,,,,,,,,,,,,-23.3203125,-3.369140625,0,0,1,2.27735495567,,,,,2015_Oct_24_1037,G,facesParametric,19,59.4381981073,
./stim/MorphF3_00_orig.jpg,22,,,,,,,,,0,22,22,22,,,,,,,,,,,,,,,-22.470703125,-5.5078125,1,0,0,1.75834798813,,,,,2015_Oct_24_1037,G,facesParametric,19,59.4381981073,
./stim/MorphF4_07_orig.jpg,23,,,,,,,,,0,23,23,23,,,,,,,,,,,,,,,-22.1484375,1.376953125,0,0,1,1.74165391922,,,,,2015_Oct_24_1037,G,facesParametric,19,59.4381981073,
./stim/MorphM6_02_orig.jpg,24,,,,,,,,,0,24,24,24,,,,,,,,,,,,,,,-20.185546875,2.40234375,1,0,0,2.02698898315,,,,,2015_Oct_24_1037,G,facesParametric,19,59.4381981073,
./stim/MorphF10_01_orig.jpg,25,,,,,,,,,0,25,25,25,,,,,,,,,,,,,,,-11.806640625,9.78515625,0,0,1,14.0264260769,,,,,2015_Oct_24_1037,G,facesParametric,19,59.4381981073,
./stim/MorphF9_06_orig.jpg,26,,,,,,,,,0,26,26,26,,,,,,,,,,,,,,,-12.744140625,9.052734375,0,0,1,1.44016385078,,,,,2015_Oct_24_1037,G,facesParametric,19,59.4381981073,
./stim/MorphM6_03_orig.jpg,27,,,,,,,,,0,27,27,27,,,,,,,,,,,,,,,-14.384765625,7.91015625,1,0,0,2.02612996101,,,,,2015_Oct_24_1037,G,facesParametric,19,59.4381981073,
./stim/MorphM2_03_orig.jpg,28,,,,,,,,,0,28,28,28,,,,,,,,,,,,,,,-14.00390625,8.173828125,1,0,0,1.27302289009,,,,,2015_Oct_24_1037,G,facesParametric,19,59.4381981073,
./stim/MorphF8_02_orig.jpg,29,,,,,,,,,0,29,29,29,,,,,,,,,,,,,,,-14.033203125,8.349609375,1,0,0,4.25315308571,,,,,2015_Oct_24_1037,G,facesParametric,19,59.4381981073,
./stim/MorphM8_03_orig.jpg,30,,,,,,,,,0,30,30,30,,,,,,,,,,,,,,,-13.681640625,8.4375,0,0,1,3.08259320259,,,,,2015_Oct_24_1037,G,facesParametric,19,59.4381981073,
./stim/MorphM9_05_orig.jpg,31,,,,,,,,,0,31,31,31,,,,,,,,,,,,,,,-13.2421875,8.642578125,1,0,0,6.13253498077,,,,,2015_Oct_24_1037,G,facesParametric,19,59.4381981073,
./stim/MorphF5_09_orig.jpg,32,,,,,,,,,0,32,32,32,,,,,,,,,,,,,,,-12.978515625,8.4375,0,0,1,1.23884797096,,,,,2015_Oct_24_1037,G,facesParametric,19,59.4381981073,
./stim/MorphM2_08_orig.jpg,33,,,,,,,,,0,33,33,33,,,,,,,,,,,,,,,-14.091796875,6.2109375,0,0,1,2.74653100967,,,,,2015_Oct_24_1037,G,facesParametric,19,59.4381981073,
./stim/MorphM6_08_orig.jpg,34,,,,,,,,,0,34,34,34,,,,,,,,,,,,,,,-14.443359375,6.4453125,1,0,0,2.86385989189,,,,,2015_Oct_24_1037,G,facesParametric,19,59.4381981073,
./stim/MorphF5_04_orig.jpg,35,,,,,,,,,0,35,35,35,,,,,,,,,,,,,,,-15.1171875,5.478515625,1,0,0,2.51252102852,,,,,2015_Oct_24_1037,G,facesParametric,19,59.4381981073,
./stim/MorphF4_08_orig.jpg,36,,,,,,,,,0,36,36,36,,,,,,,,,,,,,,,-13.4765625,6.6796875,0,0,1,5.25883984566,,,,,2015_Oct_24_1037,G,facesParametric,19,59.4381981073,
./stim/MorphM8_00_orig.jpg,37,,,,,,,,,0,37,37,37,,,,,,,,,,,,,,,-12.94921875,6.357421875,1,0,0,2.94847297668,,,,,2015_Oct_24_1037,G,facesParametric,19,59.4381981073,
./stim/MorphF9_00_orig.jpg,38,,,,,,,,,0,38,38,38,,,,,,,,,,,,,,,-13.447265625,7.1484375,1,0,0,8.93017101288,,,,,2015_Oct_24_1037,G,facesParametric,19,59.4381981073,
./stim/MorphF1_05_orig.jpg,39,,,,,,,,,0,39,39,39,,,,,,,,,,,,,,,-13.447265625,7.6171875,1,0,0,1.80879306793,,,,,2015_Oct_24_1037,G,facesParametric,19,59.4381981073,
./stim/MorphM4_05_orig.jpg,40,,,,,,,,,0,40,40,40,,,,,,,,,,,,,,,-13.447265625,7.998046875,0,0,1,1.13763093948,,,,,2015_Oct_24_1037,G,facesParametric,19,59.4381981073,
./stim/MorphM1_05_orig.jpg,41,,,,,,,,,0,41,41,41,,,,,,,,,,,,,,,-13.447265625,8.3203125,0,0,1,3.26736187935,,,,,2015_Oct_24_1037,G,facesParametric,19,59.4381981073,
./stim/MorphM8_10_orig.jpg,42,,,,,,,,,0,42,42,42,,,,,,,,,,,,,,,-13.388671875,8.408203125,0,0,1,1.30562615395,,,,,2015_Oct_24_1037,G,facesParametric,19,59.4381981073,
./stim/MorphF8_00_orig.jpg,43,,,,,,,,,0,43,43,43,,,,,,,,,,,,,,,-13.828125,8.7890625,1,0,0,2.0434191227,,,,,2015_Oct_24_1037,G,facesParametric,19,59.4381981073,
./stim/MorphF7_10_orig.jpg,44,,,,,,,,,0,44,44,44,,,,,,,,,,,,,,,-14.296875,9.169921875,0,0,1,1.5240380764,,,,,2015_Oct_24_1037,G,facesParametric,19,59.4381981073,
./stim/MorphM8_05_orig.jpg,45,,,,,,,,,0,45,45,45,,,,,,,,,,,,,,,-14.4140625,9.78515625,1,0,0,2.07488584518,,,,,2015_Oct_24_1037,G,facesParametric,19,59.4381981073,
./stim/MorphM4_00_orig.jpg,46,,,,,,,,,0,46,46,46,,,,,,,,,,,,,,,-14.47265625,10.283203125,1,0,0,1.45766305923,,,,,2015_Oct_24_1037,G,facesParametric,19,59.4381981073,
./stim/MorphF1_00_orig.jpg,47,,,,,,,,,0,47,47,47,,,,,,,,,,,,,,,-14.560546875,10.4296875,1,0,0,0.95291686058,,,,,2015_Oct_24_1037,G,facesParametric,19,59.4381981073,
./stim/MorphF5_02_orig.jpg,48,,,,,,,,,0,48,48,48,,,,,,,,,,,,,,,-14.58984375,10.48828125,1,0,0,1.38894796371,,,,,2015_Oct_24_1037,G,facesParametric,19,59.4381981073,
./stim/MorphF7_00_orig.jpg,49,,,,,,,,,0,49,49,49,,,,,,,,,,,,,,,-14.4140625,10.400390625,1,0,0,1.38977503777,,,,,2015_Oct_24_1037,G,facesParametric,19,59.4381981073,
./stim/MorphM2_07_orig.jpg,50,,,,,,,,,0,50,50,50,,,,,,,,,,,,,,,-14.267578125,10.3125,0,0,1,1.69120407104,,,,,2015_Oct_24_1037,G,facesParametric,19,59.4381981073,
./stim/MorphM9_04_orig.jpg,51,,,,,,,,,0,51,51,51,,,,,,,,,,,,,,,-14.23828125,10.25390625,1,0,0,1.50737404823,,,,,2015_Oct_24_1037,G,facesParametric,19,59.4381981073,
./stim/MorphM3_00_orig.jpg,52,,,,,,,,,0,52,52,52,,,,,,,,,,,,,,,-14.1796875,10.13671875,1,0,0,2.64659190178,,,,,2015_Oct_24_1037,G,facesParametric,19,59.4381981073,
./stim/MorphM1_04_orig.jpg,53,,,,,,,,,0,53,53,53,,,,,,,,,,,,,,,-13.9453125,9.228515625,1,0,0,1.6079158783,,,,,2015_Oct_24_1037,G,facesParametric,19,59.4381981073,
./stim/MorphM2_06_orig.jpg,54,,,,,,,,,0,54,54,54,,,,,,,,,,,,,,,-13.916015625,9.2578125,0,0,1,2.32654595375,,,,,2015_Oct_24_1037,G,facesParametric,19,59.4381981073,
./stim/MorphM3_04_orig.jpg,55,,,,,,,,,0,55,55,55,,,,,,,,,,,,,,,4.306640625,-11.044921875,1,0,0,9.87027716637,,,,,2015_Oct_24_1037,G,facesParametric,19,59.4381981073,
./stim/MorphF9_09_orig.jpg,56,,,,,,,,,0,56,56,56,,,,,,,,,,,,,,,4.072265625,-10.810546875,0,0,1,2.32895803452,,,,,2015_Oct_24_1037,G,facesParametric,19,59.4381981073,
./stim/MorphM7_03_orig.jpg,57,,,,,,,,,0,57,57,57,,,,,,,,,,,,,,,4.423828125,-10.634765625,1,0,0,1.77487397194,,,,,2015_Oct_24_1037,G,facesParametric,19,59.4381981073,
./stim/MorphF7_04_orig.jpg,58,,,,,,,,,0,58,58,58,,,,,,,,,,,,,,,4.541015625,-10.634765625,1,0,0,7.42349410057,,,,,2015_Oct_24_1037,G,facesParametric,19,59.4381981073,
./stim/MorphM3_02_orig.jpg,59,,,,,,,,,0,59,59,59,,,,,,,,,,,,,,,4.306640625,-10.517578125,1,0,0,2.61247897148,,,,,2015_Oct_24_1037,G,facesParametric,19,59.4381981073,
./stim/MorphM2_09_orig.jpg,60,,,,,,,,,0,60,60,60,,,,,,,,,,,,,,,4.27734375,-10.517578125,0,0,1,1.17214417458,,,,,2015_Oct_24_1037,G,facesParametric,19,59.4381981073,
./stim/MorphM5_00_orig.jpg,61,,,,,,,,,0,61,61,61,,,,,,,,,,,,,,,3.896484375,-10.576171875,0,0,1,2.81325292587,,,,,2015_Oct_24_1037,G,facesParametric,19,59.4381981073,
./stim/MorphF5_08_orig.jpg,62,,,,,,,,,0,62,62,62,,,,,,,,,,,,,,,3.75,-10.72265625,1,0,0,7.50674891472,,,,,2015_Oct_24_1037,G,facesParametric,19,59.4381981073,
./stim/MorphF6_02_orig.jpg,63,,,,,,,,,0,63,63,63,,,,,,,,,,,,,,,3.8671875,-10.83984375,1,0,0,0.904147148132,,,,,2015_Oct_24_1037,G,facesParametric,19,59.4381981073,
./stim/MorphF2_03_orig.jpg,64,,,,,,,,,0,64,64,64,,,,,,,,,,,,,,,4.04296875,-10.810546875,0,0,1,1.8751680851,,,,,2015_Oct_24_1037,G,facesParametric,19,59.4381981073,
./stim/MorphM10_01_orig.jpg,65,,,,,,,,,0,65,65,65,,,,,,,,,,,,,,,4.072265625,-10.8984375,1,0,0,1.15523600578,,,,,2015_Oct_24_1037,G,facesParametric,19,59.4381981073,
./stim/MorphM4_02_orig.jpg,66,,,,,,,,,0,66,66,66,,,,,,,,,,,,,,,4.072265625,-10.927734375,1,0,0,1.45678186417,,,,,2015_Oct_24_1037,G,facesParametric,19,59.4381981073,
./stim/MorphF8_08_orig.jpg,67,,,,,,,,,0,67,67,67,,,,,,,,,,,,,,,4.013671875,-10.576171875,0,0,1,2.42902088165,,,,,2015_Oct_24_1037,G,facesParametric,19,59.4381981073,
./stim/MorphF4_05_orig.jpg,68,,,,,,,,,0,68,68,68,,,,,,,,,,,,,,,3.984375,-10.693359375,1,0,0,1.43982291222,,,,,2015_Oct_24_1037,G,facesParametric,19,59.4381981073,
./stim/MorphM9_10_orig.jpg,69,,,,,,,,,0,69,69,69,,,,,,,,,,,,,,,4.189453125,-10.83984375,0,0,1,1.45644712448,,,,,2015_Oct_24_1037,G,facesParametric,19,59.4381981073,
./stim/MorphM4_09_orig.jpg,70,,,,,,,,,0,70,70,70,,,,,,,,,,,,,,,4.39453125,-10.78125,0,0,1,2.91455101967,,,,,2015_Oct_24_1037,G,facesParametric,19,59.4381981073,
./stim/MorphF8_03_orig.jpg,71,,,,,,,,,0,71,71,71,,,,,,,,,,,,,,,4.013671875,-10.810546875,1,0,0,1.08831214905,,,,,2015_Oct_24_1037,G,facesParametric,19,59.4381981073,
./stim/MorphF10_07_orig.jpg,72,,,,,,,,,0,72,72,72,,,,,,,,,,,,,,,4.306640625,-10.72265625,1,0,0,4.75792789459,,,,,2015_Oct_24_1037,G,facesParametric,19,59.4381981073,
./stim/MorphF9_02_orig.jpg,73,,,,,,,,,0,73,73,73,,,,,,,,,,,,,,,4.541015625,-10.517578125,1,0,0,2.61307501793,,,,,2015_Oct_24_1037,G,facesParametric,19,59.4381981073,
./stim/MorphM6_10_orig.jpg,74,,,,,,,,,0,74,74,74,,,,,,,,,,,,,,,4.5703125,-10.72265625,0,0,1,1.23881101608,,,,,2015_Oct_24_1037,G,facesParametric,19,59.4381981073,
./stim/MorphF9_05_orig.jpg,75,,,,,,,,,0,75,75,75,,,,,,,,,,,,,,,4.74609375,-10.693359375,0,0,1,4.473539114,,,,,2015_Oct_24_1037,G,facesParametric,19,59.4381981073,
./stim/MorphF7_01_orig.jpg,76,,,,,,,,,0,76,76,76,,,,,,,,,,,,,,,4.892578125,-10.751953125,1,0,0,1.18670296669,,,,,2015_Oct_24_1037,G,facesParametric,19,59.4381981073,
./stim/MorphM7_05_orig.jpg,77,,,,,,,,,0,77,77,77,,,,,,,,,,,,,,,4.892578125,-10.83984375,0,0,1,2.54625701904,,,,,2015_Oct_24_1037,G,facesParametric,19,59.4381981073,
./stim/MorphM5_03_orig.jpg,78,,,,,,,,,0,78,78,78,,,,,,,,,,,,,,,4.775390625,-10.634765625,1,0,0,2.47896003723,,,,,2015_Oct_24_1037,G,facesParametric,19,59.4381981073,
./stim/MorphF1_08_orig.jpg,79,,,,,,,,,0,79,79,79,,,,,,,,,,,,,,,4.6875,-10.546875,0,0,1,2.24430608749,,,,,2015_Oct_24_1037,G,facesParametric,19,59.4381981073,
./stim/MorphM9_07_orig.jpg,80,,,,,,,,,0,80,80,80,,,,,,,,,,,,,,,4.658203125,-10.6640625,1,0,0,4.67399716377,,,,,2015_Oct_24_1037,G,facesParametric,19,59.4381981073,
./stim/MorphM3_01_orig.jpg,81,,,,,,,,,0,81,81,81,,,,,,,,,,,,,,,4.716796875,-10.78125,1,0,0,2.25990200043,,,,,2015_Oct_24_1037,G,facesParametric,19,59.4381981073,
./stim/MorphM10_08_orig.jpg,82,,,,,,,,,0,82,82,82,,,,,,,,,,,,,,,4.74609375,-10.810546875,0,0,1,1.50710892677,,,,,2015_Oct_24_1037,G,facesParametric,19,59.4381981073,
./stim/MorphM7_00_orig.jpg,83,,,,,,,,,0,83,83,83,,,,,,,,,,,,,,,4.8046875,-10.869140625,0,0,1,3.83709788322,,,,,2015_Oct_24_1037,G,facesParametric,19,59.4381981073,
./stim/MorphF6_01_orig.jpg,84,,,,,,,,,0,84,84,84,,,,,,,,,,,,,,,4.8046875,-10.869140625,1,0,0,2.89784812927,,,,,2015_Oct_24_1037,G,facesParametric,19,59.4381981073,
./stim/MorphM1_10_orig.jpg,85,,,,,,,,,0,85,85,85,,,,,,,,,,,,,,,4.8046875,-10.869140625,0,0,1,2.27585196495,,,,,2015_Oct_24_1037,G,facesParametric,19,59.4381981073,
./stim/MorphF10_02_orig.jpg,86,,,,,,,,,0,86,86,86,,,,,,,,,,,,,,,4.8046875,-10.869140625,1,0,0,4.92503499985,,,,,2015_Oct_24_1037,G,facesParametric,19,59.4381981073,
./stim/MorphF6_00_orig.jpg,87,,,,,,,,,0,87,87,87,,,,,,,,,,,,,,,4.833984375,-10.869140625,1,0,0,1.10471916199,,,,,2015_Oct_24_1037,G,facesParametric,19,59.4381981073,
./stim/MorphM3_10_orig.jpg,88,,,,,,,,,0,88,88,88,,,,,,,,,,,,,,,4.921875,-10.8984375,0,0,1,1.25591993332,,,,,2015_Oct_24_1037,G,facesParametric,19,59.4381981073,
./stim/MorphM6_07_orig.jpg,89,,,,,,,,,0,89,89,89,,,,,,,,,,,,,,,5.0390625,-10.78125,0,0,1,3.35084795952,,,,,2015_Oct_24_1037,G,facesParametric,19,59.4381981073,
./stim/MorphM3_08_orig.jpg,90,,,,,,,,,0,90,90,90,,,,,,,,,,,,,,,5.0390625,-10.78125,1,0,0,1.75843191147,,,,,2015_Oct_24_1037,G,facesParametric,19,59.4381981073,
./stim/MorphM10_02_orig.jpg,91,,,,,,,,,0,91,91,91,,,,,,,,,,,,,,,5.0390625,-10.78125,1,0,0,1.03772211075,,,,,2015_Oct_24_1037,G,facesParametric,19,59.4381981073,
./stim/MorphM4_08_orig.jpg,92,,,,,,,,,0,92,92,92,,,,,,,,,,,,,,,5.068359375,-10.751953125,0,0,1,1.33891391754,,,,,2015_Oct_24_1037,G,facesParametric,19,59.4381981073,
./stim/MorphF3_08_orig.jpg,93,,,,,,,,,0,93,93,93,,,,,,,,,,,,,,,5.009765625,-10.810546875,1,0,0,2.34546995163,,,,,2015_Oct_24_1037,G,facesParametric,19,59.4381981073,
./stim/MorphF9_10_orig.jpg,94,,,,,,,,,0,94,94,94,,,,,,,,,,,,,,,4.951171875,-10.83984375,0,0,1,2.84725594521,,,,,2015_Oct_24_1037,G,facesParametric,19,59.4381981073,
./stim/MorphF10_06_orig.jpg,95,,,,,,,,,0,95,95,95,,,,,,,,,,,,,,,5.5078125,-10.927734375,0,0,1,4.99332213402,,,,,2015_Oct_24_1037,G,facesParametric,19,59.4381981073,
./stim/MorphM8_07_orig.jpg,96,,,,,,,,,0,96,96,96,,,,,,,,,,,,,,,5.361328125,-11.015625,0,0,1,1.48788785934,,,,,2015_Oct_24_1037,G,facesParametric,19,59.4381981073,
./stim/MorphF6_10_orig.jpg,97,,,,,,,,,0,97,97,97,,,,,,,,,,,,,,,5.56640625,-10.869140625,0,0,1,1.20493006706,,,,,2015_Oct_24_1037,G,facesParametric,19,59.4381981073,
./stim/MorphF2_10_orig.jpg,98,,,,,,,,,0,98,98,98,,,,,,,,,,,,,,,5.712890625,-10.8984375,0,0,1,1.40687012672,,,,,2015_Oct_24_1037,G,facesParametric,19,59.4381981073,
./stim/MorphM5_02_orig.jpg,99,,,,,,,,,0,99,99,99,,,,,,,,,,,,,,,5.625,-10.986328125,1,0,0,1.59104299545,,,,,2015_Oct_24_1037,G,facesParametric,19,59.4381981073,
./stim/MorphM6_09_orig.jpg,100,,,,,,,,,0,100,100,100,,,,,,,,,,,,,,,5.390625,-10.693359375,0,0,1,2.445540905,,,,,2015_Oct_24_1037,G,facesParametric,19,59.4381981073,
./stim/MorphM1_02_orig.jpg,101,,,,,,,,,0,101,101,101,,,,,,,,,,,,,,,5.5078125,-10.6640625,1,0,0,1.05473709106,,,,,2015_Oct_24_1037,G,facesParametric,19,59.4381981073,
./stim/MorphF10_09_orig.jpg,102,,,,,,,,,0,102,102,102,,,,,,,,,,,,,,,5.625,-10.83984375,0,0,1,1.40461587906,,,,,2015_Oct_24_1037,G,facesParametric,19,59.4381981073,
./stim/MorphM4_10_orig.jpg,103,,,,,,,,,0,103,103,103,,,,,,,,,,,,,,,5.625,-10.927734375,0,0,1,2.89620089531,,,,,2015_Oct_24_1037,G,facesParametric,19,59.4381981073,
./stim/MorphF3_02_orig.jpg,104,,,,,,,,,0,104,104,104,,,,,,,,,,,,,,,5.625,-10.986328125,1,0,0,1.03593301773,,,,,2015_Oct_24_1037,G,facesParametric,19,59.4381981073,
./stim/MorphF6_07_orig.jpg,105,,,,,,,,,0,105,105,105,,,,,,,,,,,,,,,5.625,-11.015625,1,0,0,1.85917496681,,,,,2015_Oct_24_1037,G,facesParametric,19,59.4381981073,
./stim/MorphM3_06_orig.jpg,106,,,,,,,,,0,106,106,106,,,,,,,,,,,,,,,5.56640625,-11.07421875,1,0,0,1.74120998383,,,,,2015_Oct_24_1037,G,facesParametric,19,59.4381981073,
./stim/MorphF4_04_orig.jpg,107,,,,,,,,,0,107,107,107,,,,,,,,,,,,,,,5.56640625,-11.07421875,1,0,0,1.28911495209,,,,,2015_Oct_24_1037,G,facesParametric,19,59.4381981073,
./stim/MorphM2_01_orig.jpg,108,,,,,,,,,0,108,108,108,,,,,,,,,,,,,,,5.56640625,-11.07421875,1,0,0,0.987799882889,,,,,2015_Oct_24_1037,G,facesParametric,19,59.4381981073,
./stim/MorphF4_01_orig.jpg,109,,,,,,,,,0,109,109,109,,,,,,,,,,,,,,,5.56640625,-11.07421875,1,0,0,1.30572295189,,,,,2015_Oct_24_1037,G,facesParametric,19,59.4381981073,
./stim/MorphM6_00_orig.jpg,110,,,,,,,,,0,110,110,110,,,,,,,,,,,,,,,5.537109375,-11.103515625,1,0,0,2.86489295959,,,,,2015_Oct_24_1037,G,facesParametric,19,59.4381981073,
./stim/MorphF9_07_orig.jpg,111,,,,,,,,,0,111,111,111,,,,,,,,,,,,,,,5.537109375,-11.103515625,0,0,1,1.2053501606,,,,,2015_Oct_24_1037,G,facesParametric,19,59.4381981073,
./stim/MorphF5_05_orig.jpg,112,,,,,,,,,0,112,112,112,,,,,,,,,,,,,,,5.595703125,-10.986328125,1,0,0,2.9310939312,,,,,2015_Oct_24_1037,G,facesParametric,19,59.4381981073,
./stim/MorphF2_01_orig.jpg,113,,,,,,,,,0,113,113,113,,,,,,,,,,,,,,,5.654296875,-10.869140625,0,0,1,4.08814501762,,,,,2015_Oct_24_1037,G,facesParametric,19,59.4381981073,
./stim/MorphF1_06_orig.jpg,114,,,,,,,,,0,114,114,114,,,,,,,,,,,,,,,5.68359375,-10.78125,0,0,1,11.4102199078,,,,,2015_Oct_24_1037,G,facesParametric,19,59.4381981073,
./stim/MorphM10_00_orig.jpg,115,,,,,,,,,0,115,115,115,,,,,,,,,,,,,,,5.7421875,-10.83984375,1,0,0,1.30544185638,,,,,2015_Oct_24_1037,G,facesParametric,19,59.4381981073,
./stim/MorphM6_05_orig.jpg,116,,,,,,,,,0,116,116,116,,,,,,,,,,,,,,,5.830078125,-11.19140625,0,0,1,3.83626794815,,,,,2015_Oct_24_1037,G,facesParametric,19,59.4381981073,
./stim/MorphF8_06_orig.jpg,117,,,,,,,,,0,117,117,117,,,,,,,,,,,,,,,5.33203125,-12.59765625,1,0,0,1.49008607864,,,,,2015_Oct_24_1037,G,facesParametric,19,59.4381981073,
./stim/MorphF3_07_orig.jpg,118,,,,,,,,,0,118,118,118,,,,,,,,,,,,,,,5.2734375,-12.5390625,1,0,0,0.887098073959,,,,,2015_Oct_24_1037,G,facesParametric,19,59.4381981073,
./stim/MorphM1_06_orig.jpg,119,,,,,,,,,0,119,119,119,,,,,,,,,,,,,,,5.126953125,-12.626953125,1,0,0,7.4567527771,,,,,2015_Oct_24_1037,G,facesParametric,19,59.4381981073,
./stim/MorphF7_03_orig.jpg,120,,,,,,,,,0,120,120,120,,,,,,,,,,,,,,,5.15625,-12.685546875,1,0,0,1.69112896919,,,,,2015_Oct_24_1037,G,facesParametric,19,59.4381981073,
./stim/MorphF1_10_orig.jpg,121,,,,,,,,,0,121,121,121,,,,,,,,,,,,,,,5.33203125,-12.65625,0,0,1,1.33934402466,,,,,2015_Oct_24_1037,G,facesParametric,19,59.4381981073,
./stim/MorphF6_08_orig.jpg,122,,,,,,,,,0,122,122,122,,,,,,,,,,,,,,,2.28515625,-12.94921875,0,0,1,1.23933005333,,,,,2015_Oct_24_1037,G,facesParametric,19,59.4381981073,
./stim/MorphF4_10_orig.jpg,123,,,,,,,,,0,123,123,123,,,,,,,,,,,,,,,0.615234375,-13.154296875,0,0,1,3.88693785667,,,,,2015_Oct_24_1037,G,facesParametric,19,59.4381981073,
./stim/MorphM10_10_orig.jpg,124,,,,,,,,,0,124,124,124,,,,,,,,,,,,,,,-0.05859375,-13.154296875,0,0,1,5.21099686623,,,,,2015_Oct_24_1037,G,facesParametric,19,59.4381981073,
./stim/MorphF8_07_orig.jpg,125,,,,,,,,,0,125,125,125,,,,,,,,,,,,,,,0.146484375,-13.154296875,0,0,1,6.08200097084,,,,,2015_Oct_24_1037,G,facesParametric,19,59.4381981073,
./stim/MorphM1_03_orig.jpg,126,,,,,,,,,0,126,126,126,,,,,,,,,,,,,,,-0.087890625,-13.154296875,1,0,0,0.753045082092,,,,,2015_Oct_24_1037,G,facesParametric,19,59.4381981073,
./stim/MorphF1_01_orig.jpg,127,,,,,,,,,0,127,127,127,,,,,,,,,,,,,,,0.05859375,-13.154296875,1,0,0,0.852224826813,,,,,2015_Oct_24_1037,G,facesParametric,19,59.4381981073,
./stim/MorphM7_09_orig.jpg,128,,,,,,,,,0,128,128,128,,,,,,,,,,,,,,,0.1171875,-13.125,0,0,1,1.11884284019,,,,,2015_Oct_24_1037,G,facesParametric,19,59.4381981073,
./stim/MorphF2_07_orig.jpg,129,,,,,,,,,0,129,129,129,,,,,,,,,,,,,,,0.029296875,-13.037109375,0,0,1,2.07676291466,,,,,2015_Oct_24_1037,G,facesParametric,19,59.4381981073,
./stim/MorphM7_02_orig.jpg,130,,,,,,,,,0,130,130,130,,,,,,,,,,,,,,,0.029296875,-13.154296875,1,0,0,1.37160587311,,,,,2015_Oct_24_1037,G,facesParametric,19,59.4381981073,
./stim/MorphF3_01_orig.jpg,131,,,,,,,,,0,131,131,131,,,,,,,,,,,,,,,0.087890625,-13.154296875,1,0,0,0.887835025787,,,,,2015_Oct_24_1037,G,facesParametric,19,59.4381981073,
./stim/MorphF9_04_orig.jpg,132,,,,,,,,,0,132,132,132,,,,,,,,,,,,,,,-0.17578125,-12.978515625,0,0,1,8.72765994072,,,,,2015_Oct_24_1037,G,facesParametric,19,59.4381981073,
./stim/MorphM1_00_orig.jpg,133,,,,,,,,,0,133,133,133,,,,,,,,,,,,,,,-1.875,-13.095703125,1,0,0,1.18871617317,,,,,2015_Oct_24_1037,G,facesParametric,19,59.4381981073,
./stim/MorphM7_01_orig.jpg,134,,,,,,,,,0,134,134,134,,,,,,,,,,,,,,,-2.138671875,-13.095703125,1,0,0,2.27566099167,,,,,2015_Oct_24_1037,G,facesParametric,19,59.4381981073,
./stim/MorphF6_06_orig.jpg,135,,,,,,,,,0,135,135,135,,,,,,,,,,,,,,,-1.9921875,-13.06640625,0,0,1,2.6621131897,,,,,2015_Oct_24_1037,G,facesParametric,19,59.4381981073,
./stim/MorphF8_05_orig.jpg,136,,,,,,,,,0,136,136,136,,,,,,,,,,,,,,,-2.16796875,-13.154296875,1,0,0,2.5965681076,,,,,2015_Oct_24_1037,G,facesParametric,19,59.4381981073,
./stim/MorphF3_05_orig.jpg,137,,,,,,,,,0,137,137,137,,,,,,,,,,,,,,,-1.5234375,-13.06640625,1,0,0,2.56281495094,,,,,2015_Oct_24_1037,G,facesParametric,19,59.4381981073,
./stim/MorphM5_10_orig.jpg,138,,,,,,,,,0,138,138,138,,,,,,,,,,,,,,,-1.552734375,-12.919921875,0,0,1,1.18811678886,,,,,2015_Oct_24_1037,G,facesParametric,19,59.4381981073,
./stim/MorphF4_03_orig.jpg,139,,,,,,,,,0,139,139,139,,,,,,,,,,,,,,,-1.58203125,-12.71484375,1,0,0,1.20600199699,,,,,2015_Oct_24_1037,G,facesParametric,19,59.4381981073,
./stim/MorphM6_01_orig.jpg,140,,,,,,,,,0,140,140,140,,,,,,,,,,,,,,,-1.611328125,-12.890625,1,0,0,1.80585002899,,,,,2015_Oct_24_1037,G,facesParametric,19,59.4381981073,
./stim/MorphF5_03_orig.jpg,141,,,,,,,,,0,141,141,141,,,,,,,,,,,,,,,-1.875,-13.06640625,1,0,0,2.14376807213,,,,,2015_Oct_24_1037,G,facesParametric,19,59.4381981073,
./stim/MorphF2_08_orig.jpg,142,,,,,,,,,0,142,142,142,,,,,,,,,,,,,,,-0.966796875,-13.154296875,0,0,1,0.987166881561,,,,,2015_Oct_24_1037,G,facesParametric,19,59.4381981073,
./stim/MorphF3_10_orig.jpg,143,,,,,,,,,0,143,143,143,,,,,,,,,,,,,,,-1.904296875,-12.861328125,1,0,0,0.968988180161,,,,,2015_Oct_24_1037,G,facesParametric,19,59.4381981073,
./stim/MorphF1_07_orig.jpg,144,,,,,,,,,0,144,144,144,,,,,,,,,,,,,,,-1.40625,-13.095703125,0,0,1,2.15829896927,,,,,2015_Oct_24_1037,G,facesParametric,19,59.4381981073,
./stim/MorphM7_04_orig.jpg,145,,,,,,,,,0,145,145,145,,,,,,,,,,,,,,,-2.05078125,-12.685546875,0,0,1,6.29992008209,,,,,2015_Oct_24_1037,G,facesParametric,19,59.4381981073,
./stim/MorphM5_01_orig.jpg,146,,,,,,,,,0,146,146,146,,,,,,,,,,,,,,,-2.34375,-12.568359375,1,0,0,1.17169308662,,,,,2015_Oct_24_1037,G,facesParametric,19,59.4381981073,
./stim/MorphM4_06_orig.jpg,147,,,,,,,,,0,147,147,147,,,,,,,,,,,,,,,-2.490234375,-12.568359375,0,0,1,2.12530589104,,,,,2015_Oct_24_1037,G,facesParametric,19,59.4381981073,
./stim/MorphM2_02_orig.jpg,148,,,,,,,,,0,148,148,148,,,,,,,,,,,,,,,-2.373046875,-12.509765625,1,0,0,1.0047390461,,,,,2015_Oct_24_1037,G,facesParametric,19,59.4381981073,
./stim/MorphM10_05_orig.jpg,149,,,,,,,,,0,149,149,149,,,,,,,,,,,,,,,-2.197265625,-12.59765625,0,0,1,1.89233589172,,,,,2015_Oct_24_1037,G,facesParametric,19,59.4381981073,
./stim/MorphF4_02_orig.jpg,150,,,,,,,,,0,150,150,150,,,,,,,,,,,,,,,-2.05078125,-12.5390625,1,0,0,0.952069997787,,,,,2015_Oct_24_1037,G,facesParametric,19,59.4381981073,
./stim/MorphF2_02_orig.jpg,151,,,,,,,,,0,151,151,151,,,,,,,,,,,,,,,-2.109375,-12.626953125,1,0,0,1.82542490959,,,,,2015_Oct_24_1037,G,facesParametric,19,59.4381981073,
./stim/MorphM2_10_orig.jpg,152,,,,,,,,,0,152,152,152,,,,,,,,,,,,,,,-1.9921875,-12.685546875,0,0,1,1.55710697174,,,,,2015_Oct_24_1037,G,facesParametric,19,59.4381981073,
./stim/MorphM10_03_orig.jpg,153,,,,,,,,,0,153,153,153,,,,,,,,,,,,,,,-4.189453125,-12.451171875,1,0,0,1.10533308983,,,,,2015_Oct_24_1037,G,facesParametric,19,59.4381981073,
./stim/MorphF3_03_orig.jpg,154,,,,,,,,,0,154,154,154,,,,,,,,,,,,,,,-4.04296875,-12.568359375,1,0,0,1.3220307827,,,,,2015_Oct_24_1037,G,facesParametric,19,59.4381981073,
./stim/MorphF10_10_orig.jpg,155,,,,,,,,,0,155,155,155,,,,,,,,,,,,,,,-3.69140625,-13.06640625,0,0,1,1.49004888535,,,,,2015_Oct_24_1037,G,facesParametric,19,59.4381981073,
./stim/MorphF2_05_orig.jpg,156,,,,,,,,,0,156,156,156,,,,,,,,,,,,,,,-3.544921875,-13.0078125,0,0,1,2.21158504486,,,,,2015_Oct_24_1037,G,facesParametric,19,59.4381981073,
./stim/MorphF8_04_orig.jpg,157,,,,,,,,,0,157,157,157,,,,,,,,,,,,,,,-3.80859375,-12.94921875,1,0,0,1.89142203331,,,,,2015_Oct_24_1037,G,facesParametric,19,59.4381981073,
./stim/MorphM9_02_orig.jpg,158,,,,,,,,,0,158,158,158,,,,,,,,,,,,,,,-3.69140625,-12.36328125,1,0,0,3.40114498138,,,,,2015_Oct_24_1037,G,facesParametric,19,59.4381981073,
./stim/MorphM4_01_orig.jpg,159,,,,,,,,,0,159,159,159,,,,,,,,,,,,,,,-3.6328125,-12.275390625,1,0,0,2.14309215546,,,,,2015_Oct_24_1037,G,facesParametric,19,59.4381981073,
./stim/MorphM10_09_orig.jpg,160,,,,,,,,,0,160,160,160,,,,,,,,,,,,,,,-3.662109375,-12.1875,0,0,1,1.13666701317,,,,,2015_Oct_24_1037,G,facesParametric,19,59.4381981073,
./stim/MorphM9_06_orig.jpg,161,,,,,,,,,0,161,161,161,,,,,,,,,,,,,,,-3.57421875,-12.275390625,0,0,1,2.12568688393,,,,,2015_Oct_24_1037,G,facesParametric,19,59.4381981073,
./stim/MorphM6_06_orig.jpg,162,,,,,,,,,0,162,162,162,,,,,,,,,,,,,,,-3.837890625,-12.3046875,0,0,1,1.3038649559,,,,,2015_Oct_24_1037,G,facesParametric,19,59.4381981073,
./stim/MorphF10_00_orig.jpg,163,,,,,,,,,0,163,163,163,,,,,,,,,,,,,,,-3.955078125,-11.748046875,1,0,0,2.02578306198,,,,,2015_Oct_24_1037,G,facesParametric,19,59.4381981073,
./stim/MorphM2_00_orig.jpg,164,,,,,,,,,0,164,164,164,,,,,,,,,,,,,,,-3.837890625,-11.748046875,1,0,0,1.08723092079,,,,,2015_Oct_24_1037,G,facesParametric,19,59.4381981073,
./stim/MorphM6_04_orig.jpg,165,,,,,,,,,0,165,165,165,,,,,,,,,,,,,,,-3.603515625,-11.806640625,0,0,1,0.937524795532,,,,,2015_Oct_24_1037,G,facesParametric,19,59.4381981073,
./stim/MorphM2_04_orig.jpg,166,,,,,,,,,0,166,166,166,,,,,,,,,,,,,,,-4.453125,-11.455078125,1,0,0,2.44463300705,,,,,2015_Oct_24_1037,G,facesParametric,19,59.4381981073,
./stim/MorphF2_06_orig.jpg,167,,,,,,,,,0,167,167,167,,,,,,,,,,,,,,,-3.955078125,-11.630859375,0,0,1,1.23882102966,,,,,2015_Oct_24_1037,G,facesParametric,19,59.4381981073,
./stim/MorphM7_06_orig.jpg,168,,,,,,,,,0,168,168,168,,,,,,,,,,,,,,,-3.369140625,-11.6015625,1,0,0,3.09846901894,,,,,2015_Oct_24_1037,G,facesParametric,19,59.4381981073,
./stim/MorphF5_10_orig.jpg,169,,,,,,,,,0,169,169,169,,,,,,,,,,,,,,,-3.28125,-11.982421875,0,0,1,4.74193310738,,,,,2015_Oct_24_1037,G,facesParametric,19,59.4381981073,
./stim/MorphM3_07_orig.jpg,170,,,,,,,,,0,170,170,170,,,,,,,,,,,,,,,-3.6328125,-12.1875,0,0,1,8.83135509491,,,,,2015_Oct_24_1037,G,facesParametric,19,59.4381981073,
./stim/MorphM10_04_orig.jpg,171,,,,,,,,,0,171,171,171,,,,,,,,,,,,,,,-3.193359375,-12.65625,1,0,0,4.25557994843,,,,,2015_Oct_24_1037,G,facesParametric,19,59.4381981073,
./stim/MorphF2_00_orig.jpg,172,,,,,,,,,0,172,172,172,,,,,,,,,,,,,,,-3.10546875,-12.568359375,0,0,1,3.76915001869,,,,,2015_Oct_24_1037,G,facesParametric,19,59.4381981073,
./stim/MorphF7_05_orig.jpg,173,,,,,,,,,0,173,173,173,,,,,,,,,,,,,,,-2.900390625,-12.626953125,0,0,1,1.52391791344,,,,,2015_Oct_24_1037,G,facesParametric,19,59.4381981073,
./stim/MorphF2_09_orig.jpg,174,,,,,,,,,0,174,174,174,,,,,,,,,,,,,,,-2.900390625,-12.744140625,0,0,1,0.836199998856,,,,,2015_Oct_24_1037,G,facesParametric,19,59.4381981073,
./stim/MorphM7_10_orig.jpg,175,,,,,,,,,0,175,175,175,,,,,,,,,,,,,,,-2.900390625,-12.685546875,0,0,1,1.37297606468,,,,,2015_Oct_24_1037,G,facesParametric,19,59.4381981073,
./stim/MorphM1_01_orig.jpg,176,,,,,,,,,0,176,176,176,,,,,,,,,,,,,,,-3.046875,-12.626953125,1,0,0,0.902339935303,,,,,2015_Oct_24_1037,G,facesParametric,19,59.4381981073,
./stim/MorphM10_06_orig.jpg,177,,,,,,,,,0,177,177,177,,,,,,,,,,,,,,,-2.75390625,-12.12890625,0,0,1,21.8366250992,,,,,2015_Oct_24_1037,G,facesParametric,19,59.4381981073,
./stim/MorphF6_05_orig.jpg,178,,,,,,,,,0,178,178,178,,,,,,,,,,,,,,,-3.134765625,-12.01171875,1,0,0,1.00436592102,,,,,2015_Oct_24_1037,G,facesParametric,19,59.4381981073,
./stim/MorphF1_04_orig.jpg,179,,,,,,,,,0,179,179,179,,,,,,,,,,,,,,,-3.33984375,-12.158203125,1,0,0,2.10872602463,,,,,2015_Oct_24_1037,G,facesParametric,19,59.4381981073,
./stim/MorphF3_09_orig.jpg,180,,,,,,,,,0,180,180,180,,,,,,,,,,,,,,,-3.720703125,-11.806640625,0,0,1,2.99628210068,,,,,2015_Oct_24_1037,G,facesParametric,19,59.4381981073,
./stim/MorphM9_09_orig.jpg,181,,,,,,,,,0,181,181,181,,,,,,,,,,,,,,,-3.6328125,-11.630859375,0,0,1,1.06876897812,,,,,2015_Oct_24_1037,G,facesParametric,19,59.4381981073,
./stim/MorphM4_07_orig.jpg,182,,,,,,,,,0,182,182,182,,,,,,,,,,,,,,,-3.6328125,-11.689453125,0,0,1,1.30593109131,,,,,2015_Oct_24_1037,G,facesParametric,19,59.4381981073,
./stim/MorphF2_04_orig.jpg,183,,,,,,,,,0,183,183,183,,,,,,,,,,,,,,,-3.515625,-11.66015625,1,0,0,2.24293994904,,,,,2015_Oct_24_1037,G,facesParametric,19,59.4381981073,
./stim/MorphF7_02_orig.jpg,184,,,,,,,,,0,184,184,184,,,,,,,,,,,,,,,-3.515625,-11.806640625,1,0,0,0.888041973114,,,,,2015_Oct_24_1037,G,facesParametric,19,59.4381981073,
./stim/MorphM2_05_orig.jpg,185,,,,,,,,,0,185,185,185,,,,,,,,,,,,,,,-3.486328125,-11.806640625,1,0,0,1.89153599739,,,,,2015_Oct_24_1037,G,facesParametric,19,59.4381981073,
./stim/MorphF4_09_orig.jpg,186,,,,,,,,,0,186,186,186,,,,,,,,,,,,,,,-3.310546875,-11.748046875,0,0,1,0.968722105026,,,,,2015_Oct_24_1037,G,facesParametric,19,59.4381981073,
./stim/MorphF9_01_orig.jpg,187,,,,,,,,,0,187,187,187,,,,,,,,,,,,,,,-3.515625,-11.42578125,0,0,1,4.38758587837,,,,,2015_Oct_24_1037,G,facesParametric,19,59.4381981073,
./stim/MorphF7_07_orig.jpg,188,,,,,,,,,0,188,188,188,,,,,,,,,,,,,,,-3.369140625,-11.279296875,0,0,1,1.52479290962,,,,,2015_Oct_24_1037,G,facesParametric,19,59.4381981073,
./stim/MorphF5_07_orig.jpg,189,,,,,,,,,0,189,189,189,,,,,,,,,,,,,,,-3.251953125,-11.30859375,1,0,0,1.77272105217,,,,,2015_Oct_24_1037,G,facesParametric,19,59.4381981073,
./stim/MorphF10_05_orig.jpg,190,,,,,,,,,0,190,190,190,,,,,,,,,,,,,,,-3.134765625,-11.19140625,0,0,1,1.4905807972,,,,,2015_Oct_24_1037,G,facesParametric,19,59.4381981073,
./stim/MorphM5_05_orig.jpg,191,,,,,,,,,0,191,191,191,,,,,,,,,,,,,,,-3.1640625,-11.162109375,1,0,0,1.68886208534,,,,,2015_Oct_24_1037,G,facesParametric,19,59.4381981073,
./stim/MorphM4_04_orig.jpg,192,,,,,,,,,0,192,192,192,,,,,,,,,,,,,,,-3.22265625,-11.30859375,0,0,1,0.987451076508,,,,,2015_Oct_24_1037,G,facesParametric,19,59.4381981073,
./stim/MorphF1_09_orig.jpg,193,,,,,,,,,0,193,193,193,,,,,,,,,,,,,,,-3.662109375,-9.78515625,1,0,0,3.83648586273,,,,,2015_Oct_24_1037,G,facesParametric,19,59.4381981073,
./stim/MorphM5_06_orig.jpg,194,,,,,,,,,0,194,194,194,,,,,,,,,,,,,,,-4.365234375,-10.048828125,0,0,1,5.31097507477,,,,,2015_Oct_24_1037,G,facesParametric,19,59.4381981073,
./stim/MorphM9_08_orig.jpg,195,,,,,,,,,0,195,195,195,,,,,,,,,,,,,,,-4.248046875,-10.400390625,0,0,1,1.05263400078,,,,,2015_Oct_24_1037,G,facesParametric,19,59.4381981073,
./stim/MorphF4_06_orig.jpg,196,,,,,,,,,0,196,196,196,,,,,,,,,,,,,,,-4.306640625,-10.224609375,1,0,0,1.23663282394,,,,,2015_Oct_24_1037,G,facesParametric,19,59.4381981073,
./stim/MorphF10_08_orig.jpg,197,,,,,,,,,0,197,197,197,,,,,,,,,,,,,,,-4.62890625,-9.931640625,1,0,0,1.50722503662,,,,,2015_Oct_24_1037,G,facesParametric,19,59.4381981073,
./stim/MorphF9_08_orig.jpg,198,,,,,,,,,0,198,198,198,,,,,,,,,,,,,,,-4.6875,-10.078125,0,0,1,1.30565905571,,,,,2015_Oct_24_1037,G,facesParametric,19,59.4381981073,
./stim/MorphM1_09_orig.jpg,199,,,,,,,,,0,199,199,199,,,,,,,,,,,,,,,-4.74609375,-10.1953125,1,0,0,1.72358489037,,,,,2015_Oct_24_1037,G,facesParametric,19,59.4381981073,
./stim/MorphM8_04_orig.jpg,200,,,,,,,,,0,200,200,200,,,,,,,,,,,,,,,-4.6875,-10.166015625,0,0,1,3.48466515541,,,,,2015_Oct_24_1037,G,facesParametric,19,59.4381981073,
./stim/MorphM3_05_orig.jpg,201,,,,,,,,,0,201,201,201,,,,,,,,,,,,,,,-4.423828125,-9.7265625,1,0,0,1.89211797714,,,,,2015_Oct_24_1037,G,facesParametric,19,59.4381981073,
./stim/MorphM8_09_orig.jpg,202,,,,,,,,,0,202,202,202,,,,,,,,,,,,,,,-4.072265625,-9.31640625,0,0,1,2.56307792664,,,,,2015_Oct_24_1037,G,facesParametric,19,59.4381981073,
./stim/MorphM1_08_orig.jpg,203,,,,,,,,,0,203,203,203,,,,,,,,,,,,,,,-3.955078125,-9.08203125,0,0,1,4.54071998596,,,,,2015_Oct_24_1037,G,facesParametric,19,59.4381981073,
./stim/MorphM8_08_orig.jpg,204,,,,,,,,,0,204,204,204,,,,,,,,,,,,,,,-3.92578125,-9.08203125,0,0,1,1.5217769146,,,,,2015_Oct_24_1037,G,facesParametric,19,59.4381981073,
./stim/MorphF1_03_orig.jpg,205,,,,,,,,,0,205,205,205,,,,,,,,,,,,,,,-3.8671875,-8.935546875,1,0,0,0.836477994919,,,,,2015_Oct_24_1037,G,facesParametric,19,59.4381981073,
./stim/MorphF10_03_orig.jpg,206,,,,,,,,,0,206,206,206,,,,,,,,,,,,,,,-3.896484375,-9.052734375,1,0,0,1.64100813866,,,,,2015_Oct_24_1037,G,facesParametric,19,59.4381981073,
./stim/MorphF6_03_orig.jpg,207,,,,,,,,,0,207,207,207,,,,,,,,,,,,,,,-3.896484375,-9.052734375,1,0,0,0.836716890335,,,,,2015_Oct_24_1037,G,facesParametric,19,59.4381981073,
./stim/MorphF3_04_orig.jpg,208,,,,,,,,,0,208,208,208,,,,,,,,,,,,,,,-3.80859375,-9.0234375,1,0,0,2.15823698044,,,,,2015_Oct_24_1037,G,facesParametric,19,59.4381981073,
./stim/MorphF5_01_orig.jpg,209,,,,,,,,,0,209,209,209,,,,,,,,,,,,,,,-3.662109375,-9.111328125,1,0,0,1.27245998383,,,,,2015_Oct_24_1037,G,facesParametric,19,59.4381981073,
./stim/MorphM3_09_orig.jpg,210,,,,,,,,,0,210,210,210,,,,,,,,,,,,,,,0.615234375,-9.521484375,0,0,1,21.2651700974,,,,,2015_Oct_24_1037,G,facesParametric,19,59.4381981073,
./stim/MorphF7_08_orig.jpg,211,,,,,,,,,0,211,211,211,,,,,,,,,,,,,,,0.87890625,-10.224609375,1,0,0,2.05929684639,,,,,2015_Oct_24_1037,G,facesParametric,19,59.4381981073,
./stim/MorphF6_09_orig.jpg,212,,,,,,,,,0,212,212,212,,,,,,,,,,,,,,,0.87890625,-10.400390625,1,0,0,5.69687819481,,,,,2015_Oct_24_1037,G,facesParametric,19,59.4381981073,
./stim/MorphF8_10_orig.jpg,213,,,,,,,,,0,213,213,213,,,,,,,,,,,,,,,1.0546875,-10.4296875,0,0,1,4.75734496117,,,,,2015_Oct_24_1037,G,facesParametric,19,59.4381981073,
./stim/MorphF7_09_orig.jpg,214,,,,,,,,,0,214,214,214,,,,,,,,,,,,,,,0.966796875,-10.37109375,0,0,1,1.84114694595,,,,,2015_Oct_24_1037,G,facesParametric,19,59.4381981073,
./stim/MorphF8_01_orig.jpg,215,,,,,,,,,0,215,215,215,,,,,,,,,,,,,,,0.87890625,-10.400390625,1,0,0,0.735994815826,,,,,2015_Oct_24_1037,G,facesParametric,19,59.4381981073,
./stim/MorphM5_07_orig.jpg,216,,,,,,,,,0,216,216,216,,,,,,,,,,,,,,,0.5859375,-10.400390625,1,0,0,2.64535307884,,,,,2015_Oct_24_1037,G,facesParametric,19,59.4381981073,
./stim/MorphM9_03_orig.jpg,217,,,,,,,,,0,217,217,217,,,,,,,,,,,,,,,0.673828125,-10.72265625,1,0,0,1.13624882698,,,,,2015_Oct_24_1037,G,facesParametric,19,59.4381981073,
./stim/MorphF9_03_orig.jpg,218,,,,,,,,,0,218,218,218,,,,,,,,,,,,,,,0.849609375,-10.4296875,1,0,0,1.33780908585,,,,,2015_Oct_24_1037,G,facesParametric,19,59.4381981073,
./stim/MorphM9_00_orig.jpg,219,,,,,,,,,0,219,219,219,,,,,,,,,,,,,,,0.673828125,-10.546875,1,0,0,15.04915905,,,,,2015_Oct_24_1037,G,facesParametric,19,59.4381981073,
,,,,,,,,,,,,,,,,,,,,,,,,,,,,,,,,,,,,return,1.78829789162,2015_Oct_24_1037,G,facesParametric,19,59.4381981073,
