img,num,basicLoop.thisRepN,basicLoop.thisTrialN,basicLoop.thisN,basicLoop.thisIndex,trials.thisRepN,trials.thisTrialN,trials.thisN,trials.thisIndex,trials2.thisRepN,trials2.thisTrialN,trials2.thisN,trials2.thisIndex,key_resp_2.keys,key_resp_2.rt,basicRating1.response,basicRating1.rt,basicRating2.response,basicRating2.rt,basicRating3.response,basicRating3.rt,basicRating4.response,basicRating4.rt,key_resp_3.keys,key_resp_3.rt,key_resp_4.keys,key_resp_4.rt,mouseResp.x,mouseResp.y,mouseResp.leftButton,mouseResp.midButton,mouseResp.rightButton,mouseResp.time,key_resp_5.keys,key_resp_5.rt,key_resp_7.keys,key_resp_7.rt,date,group,expName,participant,frameRate,
,,,,,,,,,,,,,,return,2219.22624707,,,,,,,,,,,,,,,,,,,,,,,2015_Aug_27_1142,G,facesParametric,1,59.7161056645,
./basicStim/03F_DI_O.jpg,,0,0,0,15,,,,,,,,,,,None,None,None,None,DIS,3.625,None,None,,,,,,,,,,,,,,,2015_Aug_27_1142,G,facesParametric,1,59.7161056645,
./basicStim/07F_HA_O.jpg,,0,1,1,31,,,,,,,,,,,HAP,3.883,None,None,None,None,None,None,,,,,,,,,,,,,,,2015_Aug_27_1142,G,facesParametric,1,59.7161056645,
./basicStim/07F_SA_C.jpg,,0,2,2,32,,,,,,,,,,,SAD,1.495,None,None,None,None,None,None,,,,,,,,,,,,,,,2015_Aug_27_1142,G,facesParametric,1,59.7161056645,
./basicStim/23M_AN_O.jpg,,0,3,3,49,,,,,,,,,,,None,None,ANG,1.096,None,None,None,None,,,,,,,,,,,,,,,2015_Aug_27_1142,G,facesParametric,1,59.7161056645,
./basicStim/24M_AN_O.jpg,,0,4,4,56,,,,,,,,,,,None,None,None,None,DIS,1.944,None,None,,,,,,,,,,,,,,,2015_Aug_27_1142,G,facesParametric,1,59.7161056645,
./basicStim/09F_FE_O.jpg,,0,5,5,37,,,,,,,,,,,None,None,None,None,SUP,2.015,None,None,,,,,,,,,,,,,,,2015_Aug_27_1142,G,facesParametric,1,59.7161056645,
./basicStim/07F_AN_O.jpg,,0,6,6,28,,,,,,,,,,,None,None,ANG,1.275,None,None,None,None,,,,,,,,,,,,,,,2015_Aug_27_1142,G,facesParametric,1,59.7161056645,
./basicStim/36M_SA_C.jpg,,0,7,7,81,,,,,,,,,,,SAD,1.146,None,None,None,None,None,None,,,,,,,,,,,,,,,2015_Aug_27_1142,G,facesParametric,1,59.7161056645,
./basicStim/03F_SP_O.jpg,,0,8,8,19,,,,,,,,,,,None,None,None,None,SUP,4.081,None,None,,,,,,,,,,,,,,,2015_Aug_27_1142,G,facesParametric,1,59.7161056645,
./basicStim/21M_HA_O.jpg,,0,9,9,45,,,,,,,,,,,HAP,5.405,None,None,None,None,None,None,,,,,,,,,,,,,,,2015_Aug_27_1142,G,facesParametric,1,59.7161056645,
./basicStim/02F_DI_O.jpg,,0,10,10,8,,,,,,,,,,,None,None,None,None,DIS,6.391,None,None,,,,,,,,,,,,,,,2015_Aug_27_1142,G,facesParametric,1,59.7161056645,
./basicStim/06F_AN_O.jpg,,0,11,11,21,,,,,,,,,,,None,None,None,None,DIS,7.063,None,None,,,,,,,,,,,,,,,2015_Aug_27_1142,G,facesParametric,1,59.7161056645,
./basicStim/34M_HA_O.jpg,,0,12,12,73,,,,,,,,,,,HAP,2.051,None,None,None,None,None,None,,,,,,,,,,,,,,,2015_Aug_27_1142,G,facesParametric,1,59.7161056645,
./basicStim/03F_HA_O.jpg,,0,13,13,17,,,,,,,,,,,HAP,1.03,None,None,None,None,None,None,,,,,,,,,,,,,,,2015_Aug_27_1142,G,facesParametric,1,59.7161056645,
./basicStim/01F_SP_O.jpg,,0,14,14,5,,,,,,,,,,,None,None,None,None,SUP,1.447,None,None,,,,,,,,,,,,,,,2015_Aug_27_1142,G,facesParametric,1,59.7161056645,
./basicStim/09F_SP_O.jpg,,0,15,15,40,,,,,,,,,,,None,None,None,None,SUP,4.043,None,None,,,,,,,,,,,,,,,2015_Aug_27_1142,G,facesParametric,1,59.7161056645,
./basicStim/24M_DI_O.jpg,,0,16,16,57,,,,,,,,,,,SAD,2.066,None,None,None,None,None,None,,,,,,,,,,,,,,,2015_Aug_27_1142,G,facesParametric,1,59.7161056645,
./basicStim/03F_SA_C.jpg,,0,17,17,18,,,,,,,,,,,SAD,0.775,None,None,None,None,None,None,,,,,,,,,,,,,,,2015_Aug_27_1142,G,facesParametric,1,59.7161056645,
./basicStim/36M_FE_O.jpg,,0,18,18,79,,,,,,,,,,,None,None,FEA,3.86,None,None,None,None,,,,,,,,,,,,,,,2015_Aug_27_1142,G,facesParametric,1,59.7161056645,
./basicStim/03F_AN_O.jpg,,0,19,19,14,,,,,,,,,,,None,None,ANG,3.664,None,None,None,None,,,,,,,,,,,,,,,2015_Aug_27_1142,G,facesParametric,1,59.7161056645,
./basicStim/28M_DI_O.jpg,,0,20,20,64,,,,,,,,,,,None,None,None,None,DIS,3.224,None,None,,,,,,,,,,,,,,,2015_Aug_27_1142,G,facesParametric,1,59.7161056645,
./basicStim/01F_NE_C.jpg,,0,21,21,6,,,,,,,,,,,None,None,None,None,None,None,NTR,1.837,,,,,,,,,,,,,,,2015_Aug_27_1142,G,facesParametric,1,59.7161056645,
./basicStim/24M_SP_O.jpg,,0,22,22,61,,,,,,,,,,,None,None,None,None,SUP,4.585,None,None,,,,,,,,,,,,,,,2015_Aug_27_1142,G,facesParametric,1,59.7161056645,
./basicStim/34M_NE_C.jpg,,0,23,23,76,,,,,,,,,,,None,None,None,None,None,None,NTR,1.345,,,,,,,,,,,,,,,2015_Aug_27_1142,G,facesParametric,1,59.7161056645,
./basicStim/28M_AN_O.jpg,,0,24,24,63,,,,,,,,,,,None,None,None,None,DIS,3.336,None,None,,,,,,,,,,,,,,,2015_Aug_27_1142,G,facesParametric,1,59.7161056645,
./basicStim/07F_NE_C.jpg,,0,25,25,34,,,,,,,,,,,None,None,None,None,None,None,NTR,1.193,,,,,,,,,,,,,,,2015_Aug_27_1142,G,facesParametric,1,59.7161056645,
./basicStim/34M_SP_O.jpg,,0,26,26,75,,,,,,,,,,,None,None,None,None,SUP,2.284,None,None,,,,,,,,,,,,,,,2015_Aug_27_1142,G,facesParametric,1,59.7161056645,
./basicStim/28M_SA_C.jpg,,0,27,27,67,,,,,,,,,,,None,None,FEA,6.208,None,None,None,None,,,,,,,,,,,,,,,2015_Aug_27_1142,G,facesParametric,1,59.7161056645,
./basicStim/28M_HA_O.jpg,,0,28,28,66,,,,,,,,,,,HAP,4.046,None,None,None,None,None,None,,,,,,,,,,,,,,,2015_Aug_27_1142,G,facesParametric,1,59.7161056645,
./basicStim/24M_HA_O.jpg,,0,29,29,59,,,,,,,,,,,HAP,0.86,None,None,None,None,None,None,,,,,,,,,,,,,,,2015_Aug_27_1142,G,facesParametric,1,59.7161056645,
./basicStim/06F_DI_O.jpg,,0,30,30,22,,,,,,,,,,,None,None,None,None,DIS,2.546,None,None,,,,,,,,,,,,,,,2015_Aug_27_1142,G,facesParametric,1,59.7161056645,
./basicStim/34M_DI_O.jpg,,0,31,31,71,,,,,,,,,,,None,None,None,None,DIS,0.956,None,None,,,,,,,,,,,,,,,2015_Aug_27_1142,G,facesParametric,1,59.7161056645,
./basicStim/09F_HA_O.jpg,,0,32,32,38,,,,,,,,,,,HAP,2.252,None,None,None,None,None,None,,,,,,,,,,,,,,,2015_Aug_27_1142,G,facesParametric,1,59.7161056645,
./basicStim/36M_AN_O.jpg,,0,33,33,77,,,,,,,,,,,None,None,ANG,3.662,None,None,None,None,,,,,,,,,,,,,,,2015_Aug_27_1142,G,facesParametric,1,59.7161056645,
./basicStim/23M_DI_O.jpg,,0,34,34,50,,,,,,,,,,,SAD,0.943,None,None,None,None,None,None,,,,,,,,,,,,,,,2015_Aug_27_1142,G,facesParametric,1,59.7161056645,
./basicStim/09F_DI_O.jpg,,0,35,35,36,,,,,,,,,,,None,None,None,None,DIS,2.012,None,None,,,,,,,,,,,,,,,2015_Aug_27_1142,G,facesParametric,1,59.7161056645,
./basicStim/21M_NE_C.jpg,,0,36,36,48,,,,,,,,,,,None,None,None,None,None,None,NTR,0.872,,,,,,,,,,,,,,,2015_Aug_27_1142,G,facesParametric,1,59.7161056645,
./basicStim/28M_NE_C.jpg,,0,37,37,69,,,,,,,,,,,None,None,None,None,None,None,NTR,0.904,,,,,,,,,,,,,,,2015_Aug_27_1142,G,facesParametric,1,59.7161056645,
./basicStim/23M_FE_O.jpg,,0,38,38,51,,,,,,,,,,,None,None,None,None,SUP,1.413,None,None,,,,,,,,,,,,,,,2015_Aug_27_1142,G,facesParametric,1,59.7161056645,
./basicStim/07F_DI_O.jpg,,0,39,39,29,,,,,,,,,,,None,None,None,None,SUP,7.431,None,None,,,,,,,,,,,,,,,2015_Aug_27_1142,G,facesParametric,1,59.7161056645,
./basicStim/07F_SP_O.jpg,,0,40,40,33,,,,,,,,,,,None,None,None,None,SUP,3.856,None,None,,,,,,,,,,,,,,,2015_Aug_27_1142,G,facesParametric,1,59.7161056645,
./basicStim/01F_DI_O.jpg,,0,41,41,1,,,,,,,,,,,None,None,None,None,DIS,3.556,None,None,,,,,,,,,,,,,,,2015_Aug_27_1142,G,facesParametric,1,59.7161056645,
./basicStim/02F_AN_O.jpg,,0,42,42,7,,,,,,,,,,,None,None,ANG,2.064,None,None,None,None,,,,,,,,,,,,,,,2015_Aug_27_1142,G,facesParametric,1,59.7161056645,
./basicStim/02F_SP_O.jpg,,0,43,43,12,,,,,,,,,,,None,None,None,None,SUP,2.838,None,None,,,,,,,,,,,,,,,2015_Aug_27_1142,G,facesParametric,1,59.7161056645,
./basicStim/21M_FE_O.jpg,,0,44,44,44,,,,,,,,,,,None,None,FEA,3.136,None,None,None,None,,,,,,,,,,,,,,,2015_Aug_27_1142,G,facesParametric,1,59.7161056645,
./basicStim/01F_AN_O.jpg,,0,45,45,0,,,,,,,,,,,None,None,ANG,1.364,None,None,None,None,,,,,,,,,,,,,,,2015_Aug_27_1142,G,facesParametric,1,59.7161056645,
./basicStim/06F_HA_O.jpg,,0,46,46,24,,,,,,,,,,,HAP,1.985,None,None,None,None,None,None,,,,,,,,,,,,,,,2015_Aug_27_1142,G,facesParametric,1,59.7161056645,
./basicStim/02F_HA_O.jpg,,0,47,47,10,,,,,,,,,,,HAP,1.179,None,None,None,None,None,None,,,,,,,,,,,,,,,2015_Aug_27_1142,G,facesParametric,1,59.7161056645,
./basicStim/09F_SA_C.jpg,,0,48,48,39,,,,,,,,,,,SAD,3.373,None,None,None,None,None,None,,,,,,,,,,,,,,,2015_Aug_27_1142,G,facesParametric,1,59.7161056645,
./basicStim/01F_SA_C.jpg,,0,49,49,4,,,,,,,,,,,SAD,2.354,None,None,None,None,None,None,,,,,,,,,,,,,,,2015_Aug_27_1142,G,facesParametric,1,59.7161056645,
./basicStim/03F_NE_C.jpg,,0,50,50,20,,,,,,,,,,,None,None,None,None,None,None,NTR,2.231,,,,,,,,,,,,,,,2015_Aug_27_1142,G,facesParametric,1,59.7161056645,
./basicStim/21M_SP_O.jpg,,0,51,51,47,,,,,,,,,,,None,None,None,None,SUP,4.698,None,None,,,,,,,,,,,,,,,2015_Aug_27_1142,G,facesParametric,1,59.7161056645,
./basicStim/21M_SA_C.jpg,,0,52,52,46,,,,,,,,,,,SAD,4.683,None,None,None,None,None,None,,,,,,,,,,,,,,,2015_Aug_27_1142,G,facesParametric,1,59.7161056645,
./basicStim/24M_FE_O.jpg,,0,53,53,58,,,,,,,,,,,None,None,None,None,SUP,5.8,None,None,,,,,,,,,,,,,,,2015_Aug_27_1142,G,facesParametric,1,59.7161056645,
./basicStim/36M_HA_O.jpg,,0,54,54,80,,,,,,,,,,,HAP,0.878,None,None,None,None,None,None,,,,,,,,,,,,,,,2015_Aug_27_1142,G,facesParametric,1,59.7161056645,
./basicStim/24M_SA_C.jpg,,0,55,55,60,,,,,,,,,,,SAD,3.091,None,None,None,None,None,None,,,,,,,,,,,,,,,2015_Aug_27_1142,G,facesParametric,1,59.7161056645,
./basicStim/23M_SP_O.jpg,,0,56,56,54,,,,,,,,,,,None,None,None,None,SUP,1.109,None,None,,,,,,,,,,,,,,,2015_Aug_27_1142,G,facesParametric,1,59.7161056645,
./basicStim/36M_DI_O.jpg,,0,57,57,78,,,,,,,,,,,None,None,None,None,DIS,1.876,None,None,,,,,,,,,,,,,,,2015_Aug_27_1142,G,facesParametric,1,59.7161056645,
./basicStim/36M_NE_C.jpg,,0,58,58,83,,,,,,,,,,,None,None,None,None,None,None,NTR,0.869,,,,,,,,,,,,,,,2015_Aug_27_1142,G,facesParametric,1,59.7161056645,
./basicStim/36M_SP_O.jpg,,0,59,59,82,,,,,,,,,,,None,None,None,None,SUP,3.539,None,None,,,,,,,,,,,,,,,2015_Aug_27_1142,G,facesParametric,1,59.7161056645,
./basicStim/01F_FE_O.jpg,,0,60,60,2,,,,,,,,,,,None,None,FEA,3.154,None,None,None,None,,,,,,,,,,,,,,,2015_Aug_27_1142,G,facesParametric,1,59.7161056645,
./basicStim/01F_HA_O.jpg,,0,61,61,3,,,,,,,,,,,HAP,1.635,None,None,None,None,None,None,,,,,,,,,,,,,,,2015_Aug_27_1142,G,facesParametric,1,59.7161056645,
./basicStim/09F_NE_C.jpg,,0,62,62,41,,,,,,,,,,,None,None,None,None,None,None,NTR,0.722,,,,,,,,,,,,,,,2015_Aug_27_1142,G,facesParametric,1,59.7161056645,
./basicStim/09F_AN_O.jpg,,0,63,63,35,,,,,,,,,,,None,None,ANG,3.02,None,None,None,None,,,,,,,,,,,,,,,2015_Aug_27_1142,G,facesParametric,1,59.7161056645,
./basicStim/06F_SP_O.jpg,,0,64,64,26,,,,,,,,,,,None,None,None,None,SUP,3.687,None,None,,,,,,,,,,,,,,,2015_Aug_27_1142,G,facesParametric,1,59.7161056645,
./basicStim/34M_FE_O.jpg,,0,65,65,72,,,,,,,,,,,None,None,FEA,3.168,None,None,None,None,,,,,,,,,,,,,,,2015_Aug_27_1142,G,facesParametric,1,59.7161056645,
./basicStim/34M_SA_C.jpg,,0,66,66,74,,,,,,,,,,,SAD,0.898,None,None,None,None,None,None,,,,,,,,,,,,,,,2015_Aug_27_1142,G,facesParametric,1,59.7161056645,
./basicStim/23M_HA_O.jpg,,0,67,67,52,,,,,,,,,,,HAP,1.429,None,None,None,None,None,None,,,,,,,,,,,,,,,2015_Aug_27_1142,G,facesParametric,1,59.7161056645,
./basicStim/02F_SA_C.jpg,,0,68,68,11,,,,,,,,,,,SAD,1.867,None,None,None,None,None,None,,,,,,,,,,,,,,,2015_Aug_27_1142,G,facesParametric,1,59.7161056645,
./basicStim/03F_FE_O.jpg,,0,69,69,16,,,,,,,,,,,None,None,FEA,2.149,None,None,None,None,,,,,,,,,,,,,,,2015_Aug_27_1142,G,facesParametric,1,59.7161056645,
./basicStim/24M_NE_C.jpg,,0,70,70,62,,,,,,,,,,,None,None,None,None,None,None,NTR,1.584,,,,,,,,,,,,,,,2015_Aug_27_1142,G,facesParametric,1,59.7161056645,
./basicStim/34M_AN_O.jpg,,0,71,71,70,,,,,,,,,,,None,None,ANG,2.266,None,None,None,None,,,,,,,,,,,,,,,2015_Aug_27_1142,G,facesParametric,1,59.7161056645,
./basicStim/06F_FE_O.jpg,,0,72,72,23,,,,,,,,,,,None,None,FEA,4.648,None,None,None,None,,,,,,,,,,,,,,,2015_Aug_27_1142,G,facesParametric,1,59.7161056645,
./basicStim/21M_DI_O.jpg,,0,73,73,43,,,,,,,,,,,None,None,None,None,DIS,1.914,None,None,,,,,,,,,,,,,,,2015_Aug_27_1142,G,facesParametric,1,59.7161056645,
./basicStim/06F_NE_C.jpg,,0,74,74,27,,,,,,,,,,,None,None,None,None,None,None,NTR,0.902,,,,,,,,,,,,,,,2015_Aug_27_1142,G,facesParametric,1,59.7161056645,
./basicStim/28M_FE_O.jpg,,0,75,75,65,,,,,,,,,,,None,None,FEA,2.173,None,None,None,None,,,,,,,,,,,,,,,2015_Aug_27_1142,G,facesParametric,1,59.7161056645,
./basicStim/02F_NE_C.jpg,,0,76,76,13,,,,,,,,,,,None,None,None,None,None,None,NTR,1.417,,,,,,,,,,,,,,,2015_Aug_27_1142,G,facesParametric,1,59.7161056645,
./basicStim/28M_SP_O.jpg,,0,77,77,68,,,,,,,,,,,None,None,None,None,SUP,1.263,None,None,,,,,,,,,,,,,,,2015_Aug_27_1142,G,facesParametric,1,59.7161056645,
./basicStim/02F_FE_O.jpg,,0,78,78,9,,,,,,,,,,,None,None,FEA,6.64,None,None,None,None,,,,,,,,,,,,,,,2015_Aug_27_1142,G,facesParametric,1,59.7161056645,
./basicStim/23M_NE_C.jpg,,0,79,79,55,,,,,,,,,,,None,None,None,None,None,None,NTR,1.109,,,,,,,,,,,,,,,2015_Aug_27_1142,G,facesParametric,1,59.7161056645,
./basicStim/07F_FE_O.jpg,,0,80,80,30,,,,,,,,,,,None,None,FEA,3.991,None,None,None,None,,,,,,,,,,,,,,,2015_Aug_27_1142,G,facesParametric,1,59.7161056645,
./basicStim/23M_SA_C.jpg,,0,81,81,53,,,,,,,,,,,SAD,2.166,None,None,None,None,None,None,,,,,,,,,,,,,,,2015_Aug_27_1142,G,facesParametric,1,59.7161056645,
./basicStim/21M_AN_O.jpg,,0,82,82,42,,,,,,,,,,,None,None,ANG,3.104,None,None,None,None,,,,,,,,,,,,,,,2015_Aug_27_1142,G,facesParametric,1,59.7161056645,
./basicStim/06F_SA_C.jpg,,0,83,83,25,,,,,,,,,,,SAD,1.245,None,None,None,None,None,None,,,,,,,,,,,,,,,2015_Aug_27_1142,G,facesParametric,1,59.7161056645,
,,,,,,,,,,,,,,,,,,,,,,,,return,5.81718611717,,,,,,,,,,,,,2015_Aug_27_1142,G,facesParametric,1,59.7161056645,
,,,,,,,,,,,,,,return,40.6751549244,,,,,,,,,,,,,,,,,,,,,,,2015_Aug_27_1142,G,facesParametric,1,59.7161056645,
,,,,,,,,,,,,,,,,,,,,,,,,return,12.4018309116,,,,,,,,,,,,,2015_Aug_27_1142,G,facesParametric,1,59.7161056645,
,,,,,,,,,,,,,,,,,,,,,,,,,,return,1.62575411797,,,,,,,,,,,2015_Aug_27_1142,G,facesParametric,1,59.7161056645,
./stim/MorphM6_10_orig.jpg,0,,,,,0,0,0,0,,,,,,,,,,,,,,,,,,,4.658203125,-6.416015625,1,0,0,6.51769995689,,,,,2015_Aug_27_1142,G,facesParametric,1,59.7161056645,
./stim/MorphF9_04_orig.jpg,1,,,,,0,1,1,1,,,,,,,,,,,,,,,,,,,4.62890625,-6.416015625,1,0,0,4.60409784317,,,,,2015_Aug_27_1142,G,facesParametric,1,59.7161056645,
./stim/MorphM3_03_orig.jpg,2,,,,,0,2,2,2,,,,,,,,,,,,,,,,,,,4.62890625,-6.416015625,1,0,0,1.57437682152,,,,,2015_Aug_27_1142,G,facesParametric,1,59.7161056645,
./stim/MorphM1_00_orig.jpg,3,,,,,0,3,3,3,,,,,,,,,,,,,,,,,,,4.62890625,-6.416015625,1,0,0,2.59641718864,,,,,2015_Aug_27_1142,G,facesParametric,1,59.7161056645,
./stim/MorphM6_09_orig.jpg,4,,,,,0,4,4,4,,,,,,,,,,,,,,,,,,,3.427734375,-6.5625,1,0,0,9.85333704948,,,,,2015_Aug_27_1142,G,facesParametric,1,59.7161056645,
./stim/MorphM10_02_orig.jpg,5,,,,,0,5,5,5,,,,,,,,,,,,,,,,,,,3.251953125,-6.533203125,1,0,0,7.89265203476,,,,,2015_Aug_27_1142,G,facesParametric,1,59.7161056645,
./stim/MorphM3_06_orig.jpg,6,,,,,0,6,6,6,,,,,,,,,,,,,,,,,,,3.28125,-6.474609375,0,0,1,2.59591221809,,,,,2015_Aug_27_1142,G,facesParametric,1,59.7161056645,
./stim/MorphM7_08_orig.jpg,7,,,,,0,7,7,7,,,,,,,,,,,,,,,,,,,3.28125,-6.474609375,0,0,1,2.07733988762,,,,,2015_Aug_27_1142,G,facesParametric,1,59.7161056645,
./stim/MorphM6_04_orig.jpg,8,,,,,0,8,8,8,,,,,,,,,,,,,,,,,,,3.076171875,-6.591796875,1,0,0,1.92535996437,,,,,2015_Aug_27_1142,G,facesParametric,1,59.7161056645,
./stim/MorphM2_05_orig.jpg,9,,,,,0,9,9,9,,,,,,,,,,,,,,,,,,,3.10546875,-6.533203125,1,0,0,4.2052321434,,,,,2015_Aug_27_1142,G,facesParametric,1,59.7161056645,
./stim/MorphM3_01_orig.jpg,10,,,,,0,10,10,10,,,,,,,,,,,,,,,,,,,3.193359375,-6.416015625,0,0,1,1.03794002533,,,,,2015_Aug_27_1142,G,facesParametric,1,59.7161056645,
./stim/MorphF1_03_orig.jpg,11,,,,,0,11,11,11,,,,,,,,,,,,,,,,,,,3.10546875,-6.50390625,1,0,0,1.94121003151,,,,,2015_Aug_27_1142,G,facesParametric,1,59.7161056645,
./stim/MorphF8_09_orig.jpg,12,,,,,0,12,12,12,,,,,,,,,,,,,,,,,,,3.10546875,-6.50390625,0,0,1,1.47146606445,,,,,2015_Aug_27_1142,G,facesParametric,1,59.7161056645,
./stim/MorphF3_01_orig.jpg,13,,,,,0,13,13,13,,,,,,,,,,,,,,,,,,,3.10546875,-6.50390625,1,0,0,1.44027400017,,,,,2015_Aug_27_1142,G,facesParametric,1,59.7161056645,
./stim/MorphF7_03_orig.jpg,14,,,,,0,14,14,14,,,,,,,,,,,,,,,,,,,5.625,-3.896484375,1,0,0,16.0211749077,,,,,2015_Aug_27_1142,G,facesParametric,1,59.7161056645,
./stim/MorphM1_05_orig.jpg,15,,,,,0,15,15,15,,,,,,,,,,,,,,,,,,,5.712890625,-4.1015625,1,0,0,3.13252019882,,,,,2015_Aug_27_1142,G,facesParametric,1,59.7161056645,
./stim/MorphM5_08_orig.jpg,16,,,,,0,16,16,16,,,,,,,,,,,,,,,,,,,5.712890625,-4.1015625,0,0,1,2.27792286873,,,,,2015_Aug_27_1142,G,facesParametric,1,59.7161056645,
./stim/MorphF7_01_orig.jpg,17,,,,,0,17,17,17,,,,,,,,,,,,,,,,,,,5.712890625,-4.1015625,1,0,0,0.885313987732,,,,,2015_Aug_27_1142,G,facesParametric,1,59.7161056645,
./stim/MorphF1_10_orig.jpg,18,,,,,0,18,18,18,,,,,,,,,,,,,,,,,,,5.712890625,-4.1015625,0,0,1,2.32616996765,,,,,2015_Aug_27_1142,G,facesParametric,1,59.7161056645,
./stim/MorphF9_06_orig.jpg,19,,,,,0,19,19,19,,,,,,,,,,,,,,,,,,,5.7421875,-4.1015625,0,0,1,7.02120113373,,,,,2015_Aug_27_1142,G,facesParametric,1,59.7161056645,
./stim/MorphM4_00_orig.jpg,20,,,,,0,20,20,20,,,,,,,,,,,,,,,,,,,5.771484375,-4.072265625,1,0,0,1.94297194481,,,,,2015_Aug_27_1142,G,facesParametric,1,59.7161056645,
./stim/MorphM10_08_orig.jpg,21,,,,,0,21,21,21,,,,,,,,,,,,,,,,,,,5.771484375,-4.072265625,0,0,1,1.05213403702,,,,,2015_Aug_27_1142,G,facesParametric,1,59.7161056645,
./stim/MorphF8_07_orig.jpg,22,,,,,0,22,22,22,,,,,,,,,,,,,,,,,,,5.771484375,-4.072265625,0,0,1,1.2041490078,,,,,2015_Aug_27_1142,G,facesParametric,1,59.7161056645,
./stim/MorphF6_02_orig.jpg,23,,,,,0,23,23,23,,,,,,,,,,,,,,,,,,,5.91796875,-3.984375,1,0,0,3.08202815056,,,,,2015_Aug_27_1142,G,facesParametric,1,59.7161056645,
./stim/MorphM2_08_orig.jpg,24,,,,,0,24,24,24,,,,,,,,,,,,,,,,,,,5.91796875,-3.984375,0,0,1,1.70827102661,,,,,2015_Aug_27_1142,G,facesParametric,1,59.7161056645,
./stim/MorphF9_05_orig.jpg,25,,,,,0,25,25,25,,,,,,,,,,,,,,,,,,,5.91796875,-3.984375,1,0,0,3.73427295685,,,,,2015_Aug_27_1142,G,facesParametric,1,59.7161056645,
./stim/MorphF1_08_orig.jpg,26,,,,,0,26,26,26,,,,,,,,,,,,,,,,,,,5.91796875,-3.984375,0,0,1,4.54078793526,,,,,2015_Aug_27_1142,G,facesParametric,1,59.7161056645,
./stim/MorphF6_09_orig.jpg,27,,,,,0,27,27,27,,,,,,,,,,,,,,,,,,,5.91796875,-3.984375,0,0,1,2.02500295639,,,,,2015_Aug_27_1142,G,facesParametric,1,59.7161056645,
./stim/MorphF2_09_orig.jpg,28,,,,,0,28,28,28,,,,,,,,,,,,,,,,,,,5.91796875,-3.984375,0,0,1,1.37163996696,,,,,2015_Aug_27_1142,G,facesParametric,1,59.7161056645,
./stim/MorphF1_04_orig.jpg,29,,,,,0,29,29,29,,,,,,,,,,,,,,,,,,,5.91796875,-3.984375,0,0,1,2.26155591011,,,,,2015_Aug_27_1142,G,facesParametric,1,59.7161056645,
./stim/MorphM4_06_orig.jpg,30,,,,,0,30,30,30,,,,,,,,,,,,,,,,,,,5.91796875,-3.984375,0,0,1,3.31712794304,,,,,2015_Aug_27_1142,G,facesParametric,1,59.7161056645,
./stim/MorphM5_04_orig.jpg,31,,,,,0,31,31,31,,,,,,,,,,,,,,,,,,,5.9765625,-3.955078125,1,0,0,1.62430906296,,,,,2015_Aug_27_1142,G,facesParametric,1,59.7161056645,
./stim/MorphF10_02_orig.jpg,32,,,,,0,32,32,32,,,,,,,,,,,,,,,,,,,5.9765625,-3.955078125,1,0,0,3.68401789665,,,,,2015_Aug_27_1142,G,facesParametric,1,59.7161056645,
./stim/MorphF6_05_orig.jpg,33,,,,,0,33,33,33,,,,,,,,,,,,,,,,,,,5.9765625,-3.955078125,1,0,0,7.57279205322,,,,,2015_Aug_27_1142,G,facesParametric,1,59.7161056645,
./stim/MorphF8_01_orig.jpg,34,,,,,0,34,34,34,,,,,,,,,,,,,,,,,,,5.9765625,-3.955078125,1,0,0,1.27215695381,,,,,2015_Aug_27_1142,G,facesParametric,1,59.7161056645,
./stim/MorphM2_06_orig.jpg,35,,,,,0,35,35,35,,,,,,,,,,,,,,,,,,,5.9765625,-3.955078125,0,0,1,2.71373009682,,,,,2015_Aug_27_1142,G,facesParametric,1,59.7161056645,
./stim/MorphM9_02_orig.jpg,36,,,,,0,36,36,36,,,,,,,,,,,,,,,,,,,5.9765625,-3.955078125,1,0,0,3.06514501572,,,,,2015_Aug_27_1142,G,facesParametric,1,59.7161056645,
./stim/MorphM5_03_orig.jpg,37,,,,,0,37,37,37,,,,,,,,,,,,,,,,,,,5.91796875,-3.984375,1,0,0,2.61339497566,,,,,2015_Aug_27_1142,G,facesParametric,1,59.7161056645,
./stim/MorphM4_01_orig.jpg,38,,,,,0,38,38,38,,,,,,,,,,,,,,,,,,,5.91796875,-3.984375,1,0,0,1.82602906227,,,,,2015_Aug_27_1142,G,facesParametric,1,59.7161056645,
./stim/MorphM6_05_orig.jpg,39,,,,,0,39,39,39,,,,,,,,,,,,,,,,,,,5.888671875,-4.013671875,0,0,1,4.52115082741,,,,,2015_Aug_27_1142,G,facesParametric,1,59.7161056645,
./stim/MorphF4_02_orig.jpg,40,,,,,0,40,40,40,,,,,,,,,,,,,,,,,,,5.888671875,-4.013671875,1,0,0,1.25585603714,,,,,2015_Aug_27_1142,G,facesParametric,1,59.7161056645,
./stim/MorphM9_03_orig.jpg,41,,,,,0,41,41,41,,,,,,,,,,,,,,,,,,,5.888671875,-4.013671875,1,0,0,1.99300813675,,,,,2015_Aug_27_1142,G,facesParametric,1,59.7161056645,
./stim/MorphF4_06_orig.jpg,42,,,,,0,42,42,42,,,,,,,,,,,,,,,,,,,5.888671875,-4.013671875,0,0,1,1.95947384834,,,,,2015_Aug_27_1142,G,facesParametric,1,59.7161056645,
./stim/MorphF5_00_orig.jpg,43,,,,,0,43,43,43,,,,,,,,,,,,,,,,,,,5.888671875,-4.013671875,1,0,0,1.23916387558,,,,,2015_Aug_27_1142,G,facesParametric,1,59.7161056645,
./stim/MorphM7_04_orig.jpg,44,,,,,0,44,44,44,,,,,,,,,,,,,,,,,,,5.888671875,-4.013671875,1,0,0,1.05459308624,,,,,2015_Aug_27_1142,G,facesParametric,1,59.7161056645,
./stim/MorphF1_07_orig.jpg,45,,,,,0,45,45,45,,,,,,,,,,,,,,,,,,,5.712890625,-4.1015625,1,0,0,3.03222298622,,,,,2015_Aug_27_1142,G,facesParametric,1,59.7161056645,
./stim/MorphF7_02_orig.jpg,46,,,,,0,46,46,46,,,,,,,,,,,,,,,,,,,9.43359375,-2.197265625,1,0,0,4.08715486526,,,,,2015_Aug_27_1142,G,facesParametric,1,59.7161056645,
./stim/MorphF3_08_orig.jpg,47,,,,,0,47,47,47,,,,,,,,,,,,,,,,,,,9.462890625,-2.197265625,0,0,1,5.19230818748,,,,,2015_Aug_27_1142,G,facesParametric,1,59.7161056645,
./stim/MorphM4_03_orig.jpg,48,,,,,0,48,48,48,,,,,,,,,,,,,,,,,,,9.4921875,-2.2265625,1,0,0,2.67945194244,,,,,2015_Aug_27_1142,G,facesParametric,1,59.7161056645,
./stim/MorphM7_05_orig.jpg,49,,,,,0,49,49,49,,,,,,,,,,,,,,,,,,,9.55078125,-2.4609375,0,0,1,0.936388969421,,,,,2015_Aug_27_1142,G,facesParametric,1,59.7161056645,
./stim/MorphM4_08_orig.jpg,50,,,,,0,50,50,50,,,,,,,,,,,,,,,,,,,9.521484375,-2.490234375,0,0,1,1.11914491653,,,,,2015_Aug_27_1142,G,facesParametric,1,59.7161056645,
./stim/MorphM2_03_orig.jpg,51,,,,,0,51,51,51,,,,,,,,,,,,,,,,,,,9.4921875,-2.4609375,1,0,0,1.25620484352,,,,,2015_Aug_27_1142,G,facesParametric,1,59.7161056645,
./stim/MorphF3_10_orig.jpg,52,,,,,0,52,52,52,,,,,,,,,,,,,,,,,,,9.4921875,-2.4609375,0,0,1,1.94064497948,,,,,2015_Aug_27_1142,G,facesParametric,1,59.7161056645,
./stim/MorphF6_08_orig.jpg,53,,,,,0,53,53,53,,,,,,,,,,,,,,,,,,,9.4921875,-2.4609375,0,0,1,1.65647602081,,,,,2015_Aug_27_1142,G,facesParametric,1,59.7161056645,
./stim/MorphM3_10_orig.jpg,54,,,,,0,54,54,54,,,,,,,,,,,,,,,,,,,9.4921875,-2.4609375,0,0,1,2.21003293991,,,,,2015_Aug_27_1142,G,facesParametric,1,59.7161056645,
./stim/MorphM10_03_orig.jpg,55,,,,,0,55,55,55,,,,,,,,,,,,,,,,,,,9.4921875,-2.4609375,1,0,0,2.0256960392,,,,,2015_Aug_27_1142,G,facesParametric,1,59.7161056645,
./stim/MorphF2_03_orig.jpg,56,,,,,0,56,56,56,,,,,,,,,,,,,,,,,,,9.462890625,-2.431640625,0,0,1,1.67419290543,,,,,2015_Aug_27_1142,G,facesParametric,1,59.7161056645,
./stim/MorphM7_10_orig.jpg,57,,,,,0,57,57,57,,,,,,,,,,,,,,,,,,,9.462890625,-2.431640625,0,0,1,0.819100141525,,,,,2015_Aug_27_1142,G,facesParametric,1,59.7161056645,
./stim/MorphF8_00_orig.jpg,58,,,,,0,58,58,58,,,,,,,,,,,,,,,,,,,9.345703125,-2.666015625,1,0,0,2.51238512993,,,,,2015_Aug_27_1142,G,facesParametric,1,59.7161056645,
./stim/MorphF7_07_orig.jpg,59,,,,,0,59,59,59,,,,,,,,,,,,,,,,,,,9.31640625,-2.6953125,0,0,1,1.47458410263,,,,,2015_Aug_27_1142,G,facesParametric,1,59.7161056645,
./stim/MorphM8_09_orig.jpg,60,,,,,0,60,60,60,,,,,,,,,,,,,,,,,,,9.31640625,-2.6953125,0,0,1,1.6066699028,,,,,2015_Aug_27_1142,G,facesParametric,1,59.7161056645,
./stim/MorphF5_08_orig.jpg,61,,,,,0,61,61,61,,,,,,,,,,,,,,,,,,,9.31640625,-2.6953125,0,0,1,1.64142894745,,,,,2015_Aug_27_1142,G,facesParametric,1,59.7161056645,
./stim/MorphM8_00_orig.jpg,62,,,,,0,62,62,62,,,,,,,,,,,,,,,,,,,9.31640625,-2.724609375,1,0,0,2.51270198822,,,,,2015_Aug_27_1142,G,facesParametric,1,59.7161056645,
./stim/MorphF4_04_orig.jpg,63,,,,,0,63,63,63,,,,,,,,,,,,,,,,,,,9.345703125,-2.75390625,1,0,0,1.52363395691,,,,,2015_Aug_27_1142,G,facesParametric,1,59.7161056645,
./stim/MorphM8_05_orig.jpg,64,,,,,0,64,64,64,,,,,,,,,,,,,,,,,,,9.462890625,-2.87109375,0,0,1,1.48899006844,,,,,2015_Aug_27_1142,G,facesParametric,1,59.7161056645,
./stim/MorphM1_09_orig.jpg,65,,,,,0,65,65,65,,,,,,,,,,,,,,,,,,,9.462890625,-2.87109375,0,0,1,1.13791108131,,,,,2015_Aug_27_1142,G,facesParametric,1,59.7161056645,
./stim/MorphF8_04_orig.jpg,66,,,,,0,66,66,66,,,,,,,,,,,,,,,,,,,9.462890625,-2.87109375,1,0,0,2.34401297569,,,,,2015_Aug_27_1142,G,facesParametric,1,59.7161056645,
./stim/MorphM10_07_orig.jpg,67,,,,,0,67,67,67,,,,,,,,,,,,,,,,,,,9.462890625,-2.841796875,0,0,1,0.752799034119,,,,,2015_Aug_27_1142,G,facesParametric,1,59.7161056645,
./stim/MorphM5_05_orig.jpg,68,,,,,0,68,68,68,,,,,,,,,,,,,,,,,,,9.462890625,-2.8125,1,0,0,3.71833109856,,,,,2015_Aug_27_1142,G,facesParametric,1,59.7161056645,
./stim/MorphM3_02_orig.jpg,69,,,,,0,69,69,69,,,,,,,,,,,,,,,,,,,9.462890625,-2.8125,1,0,0,2.02423191071,,,,,2015_Aug_27_1142,G,facesParametric,1,59.7161056645,
./stim/MorphF2_08_orig.jpg,70,,,,,0,70,70,70,,,,,,,,,,,,,,,,,,,9.462890625,-2.783203125,0,0,1,0.918802976608,,,,,2015_Aug_27_1142,G,facesParametric,1,59.7161056645,
./stim/MorphM5_00_orig.jpg,71,,,,,0,71,71,71,,,,,,,,,,,,,,,,,,,9.462890625,-2.783203125,1,0,0,2.7811999321,,,,,2015_Aug_27_1142,G,facesParametric,1,59.7161056645,
./stim/MorphF6_07_orig.jpg,72,,,,,0,72,72,72,,,,,,,,,,,,,,,,,,,9.462890625,-2.783203125,0,0,1,1.4545109272,,,,,2015_Aug_27_1142,G,facesParametric,1,59.7161056645,
./stim/MorphM7_07_orig.jpg,73,,,,,0,73,73,73,,,,,,,,,,,,,,,,,,,9.462890625,-2.783203125,0,0,1,1.59120202065,,,,,2015_Aug_27_1142,G,facesParametric,1,59.7161056645,
./stim/MorphM4_05_orig.jpg,74,,,,,0,74,74,74,,,,,,,,,,,,,,,,,,,9.404296875,-2.8125,0,0,1,1.08771204948,,,,,2015_Aug_27_1142,G,facesParametric,1,59.7161056645,
./stim/MorphF1_02_orig.jpg,75,,,,,0,75,75,75,,,,,,,,,,,,,,,,,,,9.404296875,-2.8125,1,0,0,1.68932294846,,,,,2015_Aug_27_1142,G,facesParametric,1,59.7161056645,
./stim/MorphM1_03_orig.jpg,76,,,,,0,76,76,76,,,,,,,,,,,,,,,,,,,9.404296875,-2.8125,1,0,0,1.44018888474,,,,,2015_Aug_27_1142,G,facesParametric,1,59.7161056645,
./stim/MorphM6_01_orig.jpg,77,,,,,0,77,77,77,,,,,,,,,,,,,,,,,,,9.404296875,-2.8125,1,0,0,2.07714295387,,,,,2015_Aug_27_1142,G,facesParametric,1,59.7161056645,
./stim/MorphF5_05_orig.jpg,78,,,,,0,78,78,78,,,,,,,,,,,,,,,,,,,9.404296875,-2.841796875,0,0,1,3.33202505112,,,,,2015_Aug_27_1142,G,facesParametric,1,59.7161056645,
./stim/MorphF4_10_orig.jpg,79,,,,,0,79,79,79,,,,,,,,,,,,,,,,,,,9.404296875,-2.841796875,0,0,1,0.869027137756,,,,,2015_Aug_27_1142,G,facesParametric,1,59.7161056645,
./stim/MorphF9_03_orig.jpg,80,,,,,0,80,80,80,,,,,,,,,,,,,,,,,,,9.404296875,-2.98828125,1,0,0,2.31184220314,,,,,2015_Aug_27_1142,G,facesParametric,1,59.7161056645,
./stim/MorphM8_04_orig.jpg,81,,,,,0,81,81,81,,,,,,,,,,,,,,,,,,,9.404296875,-2.98828125,0,0,1,1.8407459259,,,,,2015_Aug_27_1142,G,facesParametric,1,59.7161056645,
./stim/MorphF2_04_orig.jpg,82,,,,,0,82,82,82,,,,,,,,,,,,,,,,,,,9.404296875,-3.017578125,0,0,1,0.819264888763,,,,,2015_Aug_27_1142,G,facesParametric,1,59.7161056645,
./stim/MorphM10_01_orig.jpg,83,,,,,0,83,83,83,,,,,,,,,,,,,,,,,,,9.43359375,-3.046875,1,0,0,1.63910007477,,,,,2015_Aug_27_1142,G,facesParametric,1,59.7161056645,
./stim/MorphF6_10_orig.jpg,84,,,,,0,84,84,84,,,,,,,,,,,,,,,,,,,9.43359375,-3.046875,0,0,1,2.73011898994,,,,,2015_Aug_27_1142,G,facesParametric,1,59.7161056645,
./stim/MorphF10_00_orig.jpg,85,,,,,0,85,85,85,,,,,,,,,,,,,,,,,,,9.43359375,-3.046875,1,0,0,1.27192211151,,,,,2015_Aug_27_1142,G,facesParametric,1,59.7161056645,
./stim/MorphM10_04_orig.jpg,86,,,,,0,86,86,86,,,,,,,,,,,,,,,,,,,9.43359375,-3.046875,0,0,1,0.786276102066,,,,,2015_Aug_27_1142,G,facesParametric,1,59.7161056645,
./stim/MorphM4_07_orig.jpg,87,,,,,0,87,87,87,,,,,,,,,,,,,,,,,,,9.43359375,-3.046875,0,0,1,0.851911067963,,,,,2015_Aug_27_1142,G,facesParametric,1,59.7161056645,
./stim/MorphF10_07_orig.jpg,88,,,,,0,88,88,88,,,,,,,,,,,,,,,,,,,9.375,-3.10546875,0,0,1,0.937334060669,,,,,2015_Aug_27_1142,G,facesParametric,1,59.7161056645,
./stim/MorphF8_02_orig.jpg,89,,,,,0,89,89,89,,,,,,,,,,,,,,,,,,,9.345703125,-3.134765625,1,0,0,1.0878469944,,,,,2015_Aug_27_1142,G,facesParametric,1,59.7161056645,
./stim/MorphM10_06_orig.jpg,90,,,,,0,90,90,90,,,,,,,,,,,,,,,,,,,9.345703125,-3.134765625,0,0,1,0.753093957901,,,,,2015_Aug_27_1142,G,facesParametric,1,59.7161056645,
./stim/MorphF6_06_orig.jpg,91,,,,,0,91,91,91,,,,,,,,,,,,,,,,,,,9.31640625,-3.1640625,0,0,1,1.45676493645,,,,,2015_Aug_27_1142,G,facesParametric,1,59.7161056645,
./stim/MorphF2_07_orig.jpg,92,,,,,0,92,92,92,,,,,,,,,,,,,,,,,,,9.31640625,-3.1640625,0,0,1,1.18870687485,,,,,2015_Aug_27_1142,G,facesParametric,1,59.7161056645,
./stim/MorphF3_04_orig.jpg,93,,,,,0,93,93,93,,,,,,,,,,,,,,,,,,,9.31640625,-3.1640625,1,0,0,2.61326098442,,,,,2015_Aug_27_1142,G,facesParametric,1,59.7161056645,
./stim/MorphM10_10_orig.jpg,94,,,,,0,94,94,94,,,,,,,,,,,,,,,,,,,9.31640625,-3.1640625,0,0,1,1.53950595856,,,,,2015_Aug_27_1142,G,facesParametric,1,59.7161056645,
./stim/MorphF3_06_orig.jpg,95,,,,,0,95,95,95,,,,,,,,,,,,,,,,,,,9.31640625,-3.1640625,0,0,1,2.04352498055,,,,,2015_Aug_27_1142,G,facesParametric,1,59.7161056645,
./stim/MorphM8_06_orig.jpg,96,,,,,0,96,96,96,,,,,,,,,,,,,,,,,,,9.31640625,-3.1640625,0,0,1,2.79782390594,,,,,2015_Aug_27_1142,G,facesParametric,1,59.7161056645,
./stim/MorphM4_02_orig.jpg,97,,,,,0,97,97,97,,,,,,,,,,,,,,,,,,,9.31640625,-3.1640625,1,0,0,1.38965082169,,,,,2015_Aug_27_1142,G,facesParametric,1,59.7161056645,
./stim/MorphF9_08_orig.jpg,98,,,,,0,98,98,98,,,,,,,,,,,,,,,,,,,9.31640625,-3.1640625,0,0,1,1.53895688057,,,,,2015_Aug_27_1142,G,facesParametric,1,59.7161056645,
./stim/MorphF3_07_orig.jpg,99,,,,,0,99,99,99,,,,,,,,,,,,,,,,,,,9.31640625,-3.1640625,0,0,1,1.20520806313,,,,,2015_Aug_27_1142,G,facesParametric,1,59.7161056645,
./stim/MorphM10_09_orig.jpg,100,,,,,0,100,100,100,,,,,,,,,,,,,,,,,,,9.31640625,-3.1640625,0,0,1,0.954464912415,,,,,2015_Aug_27_1142,G,facesParametric,1,59.7161056645,
./stim/MorphM4_04_orig.jpg,101,,,,,0,101,101,101,,,,,,,,,,,,,,,,,,,9.31640625,-3.1640625,0,0,1,0.801933050156,,,,,2015_Aug_27_1142,G,facesParametric,1,59.7161056645,
./stim/MorphM6_07_orig.jpg,102,,,,,0,102,102,102,,,,,,,,,,,,,,,,,,,9.287109375,-3.193359375,1,0,0,1.59058189392,,,,,2015_Aug_27_1142,G,facesParametric,1,59.7161056645,
./stim/MorphF4_01_orig.jpg,103,,,,,0,103,103,103,,,,,,,,,,,,,,,,,,,9.287109375,-3.193359375,1,0,0,0.93754196167,,,,,2015_Aug_27_1142,G,facesParametric,1,59.7161056645,
./stim/MorphF10_06_orig.jpg,104,,,,,0,104,104,104,,,,,,,,,,,,,,,,,,,9.287109375,-3.193359375,0,0,1,0.819463968277,,,,,2015_Aug_27_1142,G,facesParametric,1,59.7161056645,
./stim/MorphM3_00_orig.jpg,105,,,,,0,105,105,105,,,,,,,,,,,,,,,,,,,9.287109375,-3.193359375,1,0,0,3.29822492599,,,,,2015_Aug_27_1142,G,facesParametric,1,59.7161056645,
./stim/MorphF7_08_orig.jpg,106,,,,,0,106,106,106,,,,,,,,,,,,,,,,,,,9.287109375,-3.193359375,0,0,1,1.25541615486,,,,,2015_Aug_27_1142,G,facesParametric,1,59.7161056645,
./stim/MorphF1_06_orig.jpg,107,,,,,0,107,107,107,,,,,,,,,,,,,,,,,,,9.287109375,-3.193359375,1,0,0,5.71417713165,,,,,2015_Aug_27_1142,G,facesParametric,1,59.7161056645,
./stim/MorphM7_02_orig.jpg,108,,,,,0,108,108,108,,,,,,,,,,,,,,,,,,,9.2578125,-3.193359375,0,0,1,0.652499198914,,,,,2015_Aug_27_1142,G,facesParametric,1,59.7161056645,
./stim/MorphM5_02_orig.jpg,109,,,,,0,109,109,109,,,,,,,,,,,,,,,,,,,8.203125,-3.662109375,1,0,0,6.58323192596,,,,,2015_Aug_27_1142,G,facesParametric,1,59.7161056645,
./stim/MorphM6_08_orig.jpg,110,,,,,0,110,110,110,,,,,,,,,,,,,,,,,,,8.232421875,-3.603515625,0,0,1,3.98761892319,,,,,2015_Aug_27_1142,G,facesParametric,1,59.7161056645,
./stim/MorphF6_01_orig.jpg,111,,,,,0,111,111,111,,,,,,,,,,,,,,,,,,,8.232421875,-3.603515625,1,0,0,1.05428910255,,,,,2015_Aug_27_1142,G,facesParametric,1,59.7161056645,
./stim/MorphM3_08_orig.jpg,112,,,,,0,112,112,112,,,,,,,,,,,,,,,,,,,8.232421875,-3.603515625,0,0,1,1.17187905312,,,,,2015_Aug_27_1142,G,facesParametric,1,59.7161056645,
./stim/MorphF2_06_orig.jpg,113,,,,,0,113,113,113,,,,,,,,,,,,,,,,,,,8.232421875,-3.603515625,0,0,1,1.72305607796,,,,,2015_Aug_27_1142,G,facesParametric,1,59.7161056645,
./stim/MorphM9_05_orig.jpg,114,,,,,0,114,114,114,,,,,,,,,,,,,,,,,,,8.232421875,-3.603515625,1,0,0,2.44563698769,,,,,2015_Aug_27_1142,G,facesParametric,1,59.7161056645,
./stim/MorphM7_06_orig.jpg,115,,,,,0,115,115,115,,,,,,,,,,,,,,,,,,,8.232421875,-3.603515625,0,0,1,1.08780503273,,,,,2015_Aug_27_1142,G,facesParametric,1,59.7161056645,
./stim/MorphF7_00_orig.jpg,116,,,,,0,116,116,116,,,,,,,,,,,,,,,,,,,8.232421875,-3.603515625,1,0,0,1.12143206596,,,,,2015_Aug_27_1142,G,facesParametric,1,59.7161056645,
./stim/MorphM7_00_orig.jpg,117,,,,,0,117,117,117,,,,,,,,,,,,,,,,,,,8.232421875,-3.603515625,1,0,0,2.1776740551,,,,,2015_Aug_27_1142,G,facesParametric,1,59.7161056645,
./stim/MorphM6_02_orig.jpg,118,,,,,0,118,118,118,,,,,,,,,,,,,,,,,,,8.232421875,-3.603515625,1,0,0,1.78967499733,,,,,2015_Aug_27_1142,G,facesParametric,1,59.7161056645,
./stim/MorphF7_04_orig.jpg,119,,,,,0,119,119,119,,,,,,,,,,,,,,,,,,,8.232421875,-3.603515625,1,0,0,3.08267402649,,,,,2015_Aug_27_1142,G,facesParametric,1,59.7161056645,
./stim/MorphF4_00_orig.jpg,120,,,,,0,120,120,120,,,,,,,,,,,,,,,,,,,8.232421875,-3.603515625,1,0,0,1.30684804916,,,,,2015_Aug_27_1142,G,facesParametric,1,59.7161056645,
./stim/MorphF9_07_orig.jpg,121,,,,,0,121,121,121,,,,,,,,,,,,,,,,,,,8.232421875,-3.603515625,0,0,1,2.19306588173,,,,,2015_Aug_27_1142,G,facesParametric,1,59.7161056645,
./stim/MorphF4_05_orig.jpg,122,,,,,0,122,122,122,,,,,,,,,,,,,,,,,,,8.232421875,-3.603515625,1,0,0,3.93545484543,,,,,2015_Aug_27_1142,G,facesParametric,1,59.7161056645,
./stim/MorphF5_10_orig.jpg,123,,,,,0,123,123,123,,,,,,,,,,,,,,,,,,,8.232421875,-3.603515625,0,0,1,1.37282419205,,,,,2015_Aug_27_1142,G,facesParametric,1,59.7161056645,
./stim/MorphM9_06_orig.jpg,124,,,,,0,124,124,124,,,,,,,,,,,,,,,,,,,8.232421875,-3.603515625,1,0,0,2.22787809372,,,,,2015_Aug_27_1142,G,facesParametric,1,59.7161056645,
./stim/MorphF1_00_orig.jpg,125,,,,,0,125,125,125,,,,,,,,,,,,,,,,,,,8.232421875,-3.603515625,1,0,0,1.69127702713,,,,,2015_Aug_27_1142,G,facesParametric,1,59.7161056645,
./stim/MorphF5_07_orig.jpg,126,,,,,0,126,126,126,,,,,,,,,,,,,,,,,,,8.203125,-3.57421875,0,0,1,0.987935066223,,,,,2015_Aug_27_1142,G,facesParametric,1,59.7161056645,
./stim/MorphM6_06_orig.jpg,127,,,,,0,127,127,127,,,,,,,,,,,,,,,,,,,8.203125,-3.57421875,1,0,0,3.85215497017,,,,,2015_Aug_27_1142,G,facesParametric,1,59.7161056645,
./stim/MorphF2_00_orig.jpg,128,,,,,0,128,128,128,,,,,,,,,,,,,,,,,,,8.232421875,-3.69140625,1,0,0,1.79181909561,,,,,2015_Aug_27_1142,G,facesParametric,1,59.7161056645,
./stim/MorphM6_03_orig.jpg,129,,,,,0,129,129,129,,,,,,,,,,,,,,,,,,,8.232421875,-3.720703125,1,0,0,2.46268486977,,,,,2015_Aug_27_1142,G,facesParametric,1,59.7161056645,
./stim/MorphM3_04_orig.jpg,130,,,,,0,130,130,130,,,,,,,,,,,,,,,,,,,8.232421875,-3.720703125,0,0,1,1.17037296295,,,,,2015_Aug_27_1142,G,facesParametric,1,59.7161056645,
./stim/MorphM8_01_orig.jpg,131,,,,,0,131,131,131,,,,,,,,,,,,,,,,,,,8.232421875,-3.720703125,1,0,0,2.46052408218,,,,,2015_Aug_27_1142,G,facesParametric,1,59.7161056645,
./stim/MorphM1_06_orig.jpg,132,,,,,0,132,132,132,,,,,,,,,,,,,,,,,,,8.232421875,-3.720703125,1,0,0,2.79558300972,,,,,2015_Aug_27_1142,G,facesParametric,1,59.7161056645,
./stim/MorphM2_09_orig.jpg,133,,,,,0,133,133,133,,,,,,,,,,,,,,,,,,,8.232421875,-3.720703125,0,0,1,1.12217593193,,,,,2015_Aug_27_1142,G,facesParametric,1,59.7161056645,
./stim/MorphF2_01_orig.jpg,134,,,,,0,134,134,134,,,,,,,,,,,,,,,,,,,8.232421875,-3.720703125,1,0,0,1.65775108337,,,,,2015_Aug_27_1142,G,facesParametric,1,59.7161056645,
./stim/MorphM5_01_orig.jpg,135,,,,,0,135,135,135,,,,,,,,,,,,,,,,,,,8.232421875,-3.720703125,1,0,0,3.3507540226,,,,,2015_Aug_27_1142,G,facesParametric,1,59.7161056645,
./stim/MorphF8_03_orig.jpg,136,,,,,0,136,136,136,,,,,,,,,,,,,,,,,,,8.232421875,-3.720703125,1,0,0,1.54076695442,,,,,2015_Aug_27_1142,G,facesParametric,1,59.7161056645,
./stim/MorphF10_03_orig.jpg,137,,,,,0,137,137,137,,,,,,,,,,,,,,,,,,,8.232421875,-3.720703125,1,0,0,3.48418998718,,,,,2015_Aug_27_1142,G,facesParametric,1,59.7161056645,
./stim/MorphM7_09_orig.jpg,138,,,,,0,138,138,138,,,,,,,,,,,,,,,,,,,8.232421875,-3.720703125,0,0,1,1.10501599312,,,,,2015_Aug_27_1142,G,facesParametric,1,59.7161056645,
./stim/MorphM9_00_orig.jpg,139,,,,,0,139,139,139,,,,,,,,,,,,,,,,,,,8.232421875,-3.720703125,1,0,0,1.7412519455,,,,,2015_Aug_27_1142,G,facesParametric,1,59.7161056645,
./stim/MorphM3_05_orig.jpg,140,,,,,0,140,140,140,,,,,,,,,,,,,,,,,,,8.203125,-3.69140625,0,0,1,1.03780293465,,,,,2015_Aug_27_1142,G,facesParametric,1,59.7161056645,
./stim/MorphM1_07_orig.jpg,141,,,,,0,141,141,141,,,,,,,,,,,,,,,,,,,8.203125,-3.69140625,0,0,1,1.1716940403,,,,,2015_Aug_27_1142,G,facesParametric,1,59.7161056645,
./stim/MorphM9_07_orig.jpg,142,,,,,0,142,142,142,,,,,,,,,,,,,,,,,,,8.203125,-3.69140625,1,0,0,1.32286906242,,,,,2015_Aug_27_1142,G,facesParametric,1,59.7161056645,
./stim/MorphF3_03_orig.jpg,143,,,,,0,143,143,143,,,,,,,,,,,,,,,,,,,8.203125,-3.69140625,1,0,0,1.44007015228,,,,,2015_Aug_27_1142,G,facesParametric,1,59.7161056645,
./stim/MorphF4_07_orig.jpg,144,,,,,0,144,144,144,,,,,,,,,,,,,,,,,,,8.203125,-3.69140625,0,0,1,1.27115416527,,,,,2015_Aug_27_1142,G,facesParametric,1,59.7161056645,
./stim/MorphM2_10_orig.jpg,145,,,,,0,145,145,145,,,,,,,,,,,,,,,,,,,8.203125,-3.69140625,0,0,1,1.27245211601,,,,,2015_Aug_27_1142,G,facesParametric,1,59.7161056645,
./stim/MorphF7_06_orig.jpg,146,,,,,0,146,146,146,,,,,,,,,,,,,,,,,,,8.203125,-3.69140625,0,0,1,2.02638602257,,,,,2015_Aug_27_1142,G,facesParametric,1,59.7161056645,
./stim/MorphM8_02_orig.jpg,147,,,,,0,147,147,147,,,,,,,,,,,,,,,,,,,8.203125,-3.69140625,1,0,0,1.23806905746,,,,,2015_Aug_27_1142,G,facesParametric,1,59.7161056645,
./stim/MorphF3_05_orig.jpg,148,,,,,0,148,148,148,,,,,,,,,,,,,,,,,,,8.203125,-3.69140625,1,0,0,1.7070338726,,,,,2015_Aug_27_1142,G,facesParametric,1,59.7161056645,
./stim/MorphF6_04_orig.jpg,149,,,,,0,149,149,149,,,,,,,,,,,,,,,,,,,8.203125,-3.69140625,1,0,0,1.45655703545,,,,,2015_Aug_27_1142,G,facesParametric,1,59.7161056645,
./stim/MorphM4_10_orig.jpg,150,,,,,0,150,150,150,,,,,,,,,,,,,,,,,,,8.203125,-3.69140625,0,0,1,1.15547204018,,,,,2015_Aug_27_1142,G,facesParametric,1,59.7161056645,
./stim/MorphF10_08_orig.jpg,151,,,,,0,151,151,151,,,,,,,,,,,,,,,,,,,8.203125,-3.69140625,0,0,1,0.885915994644,,,,,2015_Aug_27_1142,G,facesParametric,1,59.7161056645,
./stim/MorphF5_02_orig.jpg,152,,,,,0,152,152,152,,,,,,,,,,,,,,,,,,,8.203125,-3.69140625,1,0,0,0.953135967255,,,,,2015_Aug_27_1142,G,facesParametric,1,59.7161056645,
./stim/MorphF1_05_orig.jpg,153,,,,,0,153,153,153,,,,,,,,,,,,,,,,,,,8.173828125,-3.720703125,1,0,0,1.89257597923,,,,,2015_Aug_27_1142,G,facesParametric,1,59.7161056645,
./stim/MorphF9_09_orig.jpg,154,,,,,0,154,154,154,,,,,,,,,,,,,,,,,,,8.173828125,-3.720703125,0,0,1,0.886982917786,,,,,2015_Aug_27_1142,G,facesParametric,1,59.7161056645,
./stim/MorphF5_03_orig.jpg,155,,,,,0,155,155,155,,,,,,,,,,,,,,,,,,,8.173828125,-3.720703125,1,0,0,1.60768914223,,,,,2015_Aug_27_1142,G,facesParametric,1,59.7161056645,
./stim/MorphF4_03_orig.jpg,156,,,,,0,156,156,156,,,,,,,,,,,,,,,,,,,8.173828125,-3.720703125,1,0,0,1.28928613663,,,,,2015_Aug_27_1142,G,facesParametric,1,59.7161056645,
./stim/MorphF5_01_orig.jpg,157,,,,,0,157,157,157,,,,,,,,,,,,,,,,,,,8.173828125,-3.720703125,1,0,0,0.937261104584,,,,,2015_Aug_27_1142,G,facesParametric,1,59.7161056645,
./stim/MorphM1_01_orig.jpg,158,,,,,0,158,158,158,,,,,,,,,,,,,,,,,,,8.173828125,-3.720703125,1,0,0,0.886829137802,,,,,2015_Aug_27_1142,G,facesParametric,1,59.7161056645,
./stim/MorphF9_02_orig.jpg,159,,,,,0,159,159,159,,,,,,,,,,,,,,,,,,,5.21484375,-3.720703125,0,0,1,5.62997913361,,,,,2015_Aug_27_1142,G,facesParametric,1,59.7161056645,
./stim/MorphF2_02_orig.jpg,160,,,,,0,160,160,160,,,,,,,,,,,,,,,,,,,5.244140625,-3.57421875,1,0,0,0.937258958817,,,,,2015_Aug_27_1142,G,facesParametric,1,59.7161056645,
./stim/MorphM8_10_orig.jpg,161,,,,,0,161,161,161,,,,,,,,,,,,,,,,,,,5.361328125,-3.544921875,0,0,1,0.970551967621,,,,,2015_Aug_27_1142,G,facesParametric,1,59.7161056645,
./stim/MorphM1_10_orig.jpg,162,,,,,0,162,162,162,,,,,,,,,,,,,,,,,,,5.361328125,-3.544921875,0,0,1,1.05439400673,,,,,2015_Aug_27_1142,G,facesParametric,1,59.7161056645,
./stim/MorphF10_04_orig.jpg,163,,,,,0,163,163,163,,,,,,,,,,,,,,,,,,,5.91796875,-3.427734375,0,0,1,5.84780311584,,,,,2015_Aug_27_1142,G,facesParametric,1,59.7161056645,
./stim/MorphF3_00_orig.jpg,164,,,,,0,164,164,164,,,,,,,,,,,,,,,,,,,5.91796875,-3.427734375,1,0,0,3.04963588715,,,,,2015_Aug_27_1142,G,facesParametric,1,59.7161056645,
./stim/MorphM2_07_orig.jpg,165,,,,,0,165,165,165,,,,,,,,,,,,,,,,,,,6.005859375,-3.515625,0,0,1,0.802219152451,,,,,2015_Aug_27_1142,G,facesParametric,1,59.7161056645,
./stim/MorphF7_05_orig.jpg,166,,,,,0,166,166,166,,,,,,,,,,,,,,,,,,,6.005859375,-3.515625,0,0,1,1.08862614632,,,,,2015_Aug_27_1142,G,facesParametric,1,59.7161056645,
./stim/MorphF6_03_orig.jpg,167,,,,,0,167,167,167,,,,,,,,,,,,,,,,,,,6.03515625,-3.515625,1,0,0,1.15490698814,,,,,2015_Aug_27_1142,G,facesParametric,1,59.7161056645,
./stim/MorphF3_02_orig.jpg,168,,,,,0,168,168,168,,,,,,,,,,,,,,,,,,,6.15234375,-3.515625,1,0,0,1.23905992508,,,,,2015_Aug_27_1142,G,facesParametric,1,59.7161056645,
./stim/MorphF1_01_orig.jpg,169,,,,,0,169,169,169,,,,,,,,,,,,,,,,,,,6.240234375,-3.515625,1,0,0,2.10988903046,,,,,2015_Aug_27_1142,G,facesParametric,1,59.7161056645,
./stim/MorphM1_04_orig.jpg,170,,,,,0,170,170,170,,,,,,,,,,,,,,,,,,,6.240234375,-3.515625,1,0,0,1.5739300251,,,,,2015_Aug_27_1142,G,facesParametric,1,59.7161056645,
./stim/MorphF4_09_orig.jpg,171,,,,,0,171,171,171,,,,,,,,,,,,,,,,,,,7.060546875,-4.541015625,0,0,1,0.73663187027,,,,,2015_Aug_27_1142,G,facesParametric,1,59.7161056645,
./stim/MorphM6_00_orig.jpg,172,,,,,0,172,172,172,,,,,,,,,,,,,,,,,,,7.177734375,-4.423828125,1,0,0,1.74054002762,,,,,2015_Aug_27_1142,G,facesParametric,1,59.7161056645,
./stim/MorphM5_09_orig.jpg,173,,,,,0,173,173,173,,,,,,,,,,,,,,,,,,,7.20703125,-4.423828125,0,0,1,0.93695807457,,,,,2015_Aug_27_1142,G,facesParametric,1,59.7161056645,
./stim/MorphF5_06_orig.jpg,174,,,,,0,174,174,174,,,,,,,,,,,,,,,,,,,7.20703125,-4.423828125,0,0,1,0.887174844742,,,,,2015_Aug_27_1142,G,facesParametric,1,59.7161056645,
./stim/MorphF9_01_orig.jpg,175,,,,,0,175,175,175,,,,,,,,,,,,,,,,,,,7.20703125,-4.423828125,1,0,0,1.50706505775,,,,,2015_Aug_27_1142,G,facesParametric,1,59.7161056645,
./stim/MorphM5_07_orig.jpg,176,,,,,0,176,176,176,,,,,,,,,,,,,,,,,,,7.20703125,-4.453125,0,0,1,0.803240060806,,,,,2015_Aug_27_1142,G,facesParametric,1,59.7161056645,
./stim/MorphM2_01_orig.jpg,177,,,,,0,177,177,177,,,,,,,,,,,,,,,,,,,7.177734375,-4.482421875,1,0,0,1.35607194901,,,,,2015_Aug_27_1142,G,facesParametric,1,59.7161056645,
./stim/MorphM7_03_orig.jpg,178,,,,,0,178,178,178,,,,,,,,,,,,,,,,,,,7.177734375,-4.482421875,0,0,1,0.785660982132,,,,,2015_Aug_27_1142,G,facesParametric,1,59.7161056645,
./stim/MorphM9_09_orig.jpg,179,,,,,0,179,179,179,,,,,,,,,,,,,,,,,,,7.1484375,-4.51171875,0,0,1,1.15494704247,,,,,2015_Aug_27_1142,G,facesParametric,1,59.7161056645,
./stim/MorphF9_10_orig.jpg,180,,,,,0,180,180,180,,,,,,,,,,,,,,,,,,,7.1484375,-4.51171875,0,0,1,0.868464946747,,,,,2015_Aug_27_1142,G,facesParametric,1,59.7161056645,
./stim/MorphF8_10_orig.jpg,181,,,,,0,181,181,181,,,,,,,,,,,,,,,,,,,7.1484375,-4.51171875,0,0,1,0.93753194809,,,,,2015_Aug_27_1142,G,facesParametric,1,59.7161056645,
./stim/MorphF10_10_orig.jpg,182,,,,,0,182,182,182,,,,,,,,,,,,,,,,,,,7.1484375,-4.51171875,0,0,1,0.736022949219,,,,,2015_Aug_27_1142,G,facesParametric,1,59.7161056645,
./stim/MorphM3_09_orig.jpg,183,,,,,0,183,183,183,,,,,,,,,,,,,,,,,,,7.1484375,-4.51171875,0,0,1,1.27134203911,,,,,2015_Aug_27_1142,G,facesParametric,1,59.7161056645,
./stim/MorphF10_05_orig.jpg,184,,,,,0,184,184,184,,,,,,,,,,,,,,,,,,,7.1484375,-4.51171875,0,0,1,0.820338010788,,,,,2015_Aug_27_1142,G,facesParametric,1,59.7161056645,
./stim/MorphF6_00_orig.jpg,185,,,,,0,185,185,185,,,,,,,,,,,,,,,,,,,7.177734375,-4.482421875,1,0,0,1.48986005783,,,,,2015_Aug_27_1142,G,facesParametric,1,59.7161056645,
./stim/MorphF8_08_orig.jpg,186,,,,,0,186,186,186,,,,,,,,,,,,,,,,,,,7.20703125,-4.453125,0,0,1,0.93766283989,,,,,2015_Aug_27_1142,G,facesParametric,1,59.7161056645,
./stim/MorphF7_10_orig.jpg,187,,,,,0,187,187,187,,,,,,,,,,,,,,,,,,,7.20703125,-4.453125,0,0,1,1.00195097923,,,,,2015_Aug_27_1142,G,facesParametric,1,59.7161056645,
./stim/MorphM9_10_orig.jpg,188,,,,,0,188,188,188,,,,,,,,,,,,,,,,,,,7.20703125,-4.453125,0,0,1,1.84214997292,,,,,2015_Aug_27_1142,G,facesParametric,1,59.7161056645,
./stim/MorphM10_05_orig.jpg,189,,,,,0,189,189,189,,,,,,,,,,,,,,,,,,,7.20703125,-4.453125,0,0,1,0.970961093903,,,,,2015_Aug_27_1142,G,facesParametric,1,59.7161056645,
./stim/MorphM8_03_orig.jpg,190,,,,,0,190,190,190,,,,,,,,,,,,,,,,,,,7.20703125,-4.453125,1,0,0,0.954493045807,,,,,2015_Aug_27_1142,G,facesParametric,1,59.7161056645,
./stim/MorphF2_10_orig.jpg,191,,,,,0,191,191,191,,,,,,,,,,,,,,,,,,,7.20703125,-4.453125,0,0,1,0.98738694191,,,,,2015_Aug_27_1142,G,facesParametric,1,59.7161056645,
./stim/MorphM1_02_orig.jpg,192,,,,,0,192,192,192,,,,,,,,,,,,,,,,,,,7.20703125,-4.453125,1,0,0,0.820242166519,,,,,2015_Aug_27_1142,G,facesParametric,1,59.7161056645,
./stim/MorphM4_09_orig.jpg,193,,,,,0,193,193,193,,,,,,,,,,,,,,,,,,,7.20703125,-4.453125,0,0,1,0.684880018234,,,,,2015_Aug_27_1142,G,facesParametric,1,59.7161056645,
./stim/MorphM8_07_orig.jpg,194,,,,,0,194,194,194,,,,,,,,,,,,,,,,,,,7.20703125,-4.453125,1,0,0,1.15516209602,,,,,2015_Aug_27_1142,G,facesParametric,1,59.7161056645,
./stim/MorphM1_08_orig.jpg,195,,,,,0,195,195,195,,,,,,,,,,,,,,,,,,,7.236328125,-4.453125,1,0,0,1.80912780762,,,,,2015_Aug_27_1142,G,facesParametric,1,59.7161056645,
./stim/MorphF4_08_orig.jpg,196,,,,,0,196,196,196,,,,,,,,,,,,,,,,,,,7.236328125,-4.453125,0,0,1,1.16973590851,,,,,2015_Aug_27_1142,G,facesParametric,1,59.7161056645,
./stim/MorphM9_04_orig.jpg,197,,,,,0,197,197,197,,,,,,,,,,,,,,,,,,,7.236328125,-4.453125,1,0,0,0.803432941437,,,,,2015_Aug_27_1142,G,facesParametric,1,59.7161056645,
./stim/MorphF1_09_orig.jpg,198,,,,,0,198,198,198,,,,,,,,,,,,,,,,,,,7.236328125,-4.453125,1,0,0,0.870184898376,,,,,2015_Aug_27_1142,G,facesParametric,1,59.7161056645,
./stim/MorphM9_08_orig.jpg,199,,,,,0,199,199,199,,,,,,,,,,,,,,,,,,,7.236328125,-4.453125,1,0,0,0.853533983231,,,,,2015_Aug_27_1142,G,facesParametric,1,59.7161056645,
./stim/MorphF10_01_orig.jpg,200,,,,,0,200,200,200,,,,,,,,,,,,,,,,,,,7.236328125,-4.453125,0,0,1,0.867883205414,,,,,2015_Aug_27_1142,G,facesParametric,1,59.7161056645,
./stim/MorphM10_00_orig.jpg,201,,,,,0,201,201,201,,,,,,,,,,,,,,,,,,,7.236328125,-4.453125,1,0,0,2.0924551487,,,,,2015_Aug_27_1142,G,facesParametric,1,59.7161056645,
./stim/MorphM2_00_orig.jpg,202,,,,,0,202,202,202,,,,,,,,,,,,,,,,,,,7.236328125,-4.453125,1,0,0,1.17109513283,,,,,2015_Aug_27_1142,G,facesParametric,1,59.7161056645,
./stim/MorphM9_01_orig.jpg,203,,,,,0,203,203,203,,,,,,,,,,,,,,,,,,,7.236328125,-4.453125,1,0,0,2.32686400414,,,,,2015_Aug_27_1142,G,facesParametric,1,59.7161056645,
./stim/MorphF7_09_orig.jpg,204,,,,,0,204,204,204,,,,,,,,,,,,,,,,,,,7.236328125,-4.453125,0,0,1,0.635454893112,,,,,2015_Aug_27_1142,G,facesParametric,1,59.7161056645,
./stim/MorphF9_00_orig.jpg,205,,,,,0,205,205,205,,,,,,,,,,,,,,,,,,,7.265625,-4.482421875,1,0,0,1.6581120491,,,,,2015_Aug_27_1142,G,facesParametric,1,59.7161056645,
./stim/MorphM2_02_orig.jpg,206,,,,,0,206,206,206,,,,,,,,,,,,,,,,,,,7.265625,-4.482421875,1,0,0,2.04347801208,,,,,2015_Aug_27_1142,G,facesParametric,1,59.7161056645,
./stim/MorphF8_05_orig.jpg,207,,,,,0,207,207,207,,,,,,,,,,,,,,,,,,,7.265625,-4.482421875,0,0,1,1.37274909019,,,,,2015_Aug_27_1142,G,facesParametric,1,59.7161056645,
./stim/MorphF3_09_orig.jpg,208,,,,,0,208,208,208,,,,,,,,,,,,,,,,,,,7.265625,-4.482421875,0,0,1,1.57439017296,,,,,2015_Aug_27_1142,G,facesParametric,1,59.7161056645,
./stim/MorphM5_10_orig.jpg,209,,,,,0,209,209,209,,,,,,,,,,,,,,,,,,,7.265625,-4.482421875,0,0,1,1.55551481247,,,,,2015_Aug_27_1142,G,facesParametric,1,59.7161056645,
./stim/MorphM8_08_orig.jpg,210,,,,,0,210,210,210,,,,,,,,,,,,,,,,,,,7.265625,-4.482421875,0,0,1,3.55163693428,,,,,2015_Aug_27_1142,G,facesParametric,1,59.7161056645,
./stim/MorphM3_07_orig.jpg,211,,,,,0,211,211,211,,,,,,,,,,,,,,,,,,,7.265625,-4.482421875,0,0,1,0.919457197189,,,,,2015_Aug_27_1142,G,facesParametric,1,59.7161056645,
./stim/MorphM5_06_orig.jpg,212,,,,,0,212,212,212,,,,,,,,,,,,,,,,,,,7.265625,-4.482421875,1,0,0,1.07127809525,,,,,2015_Aug_27_1142,G,facesParametric,1,59.7161056645,
./stim/MorphF5_09_orig.jpg,213,,,,,0,213,213,213,,,,,,,,,,,,,,,,,,,7.265625,-4.482421875,0,0,1,0.836769104004,,,,,2015_Aug_27_1142,G,facesParametric,1,59.7161056645,
./stim/MorphF8_06_orig.jpg,214,,,,,0,214,214,214,,,,,,,,,,,,,,,,,,,7.265625,-4.482421875,0,0,1,2.12522006035,,,,,2015_Aug_27_1142,G,facesParametric,1,59.7161056645,
./stim/MorphF5_04_orig.jpg,215,,,,,0,215,215,215,,,,,,,,,,,,,,,,,,,7.265625,-4.482421875,1,0,0,0.786076068878,,,,,2015_Aug_27_1142,G,facesParametric,1,59.7161056645,
./stim/MorphM2_04_orig.jpg,216,,,,,0,216,216,216,,,,,,,,,,,,,,,,,,,7.265625,-4.482421875,1,0,0,1.03788399696,,,,,2015_Aug_27_1142,G,facesParametric,1,59.7161056645,
./stim/MorphF2_05_orig.jpg,217,,,,,0,217,217,217,,,,,,,,,,,,,,,,,,,7.265625,-4.482421875,0,0,1,1.01941204071,,,,,2015_Aug_27_1142,G,facesParametric,1,59.7161056645,
./stim/MorphM7_01_orig.jpg,218,,,,,0,218,218,218,,,,,,,,,,,,,,,,,,,7.265625,-4.482421875,0,0,1,1.10566496849,,,,,2015_Aug_27_1142,G,facesParametric,1,59.7161056645,
./stim/MorphF10_09_orig.jpg,219,,,,,0,219,219,219,,,,,,,,,,,,,,,,,,,7.265625,-4.482421875,0,0,1,2.93096899986,,,,,2015_Aug_27_1142,G,facesParametric,1,59.7161056645,
,,,,,,,,,,,,,,,,,,,,,,,,,,,,,,,,,,return,12.7205998898,,,2015_Aug_27_1142,G,facesParametric,1,59.7161056645,
./stim/MorphM6_10_orig.jpg,0,,,,,,,,,0,0,0,0,,,,,,,,,,,,,,,1.34765625,-3.076171875,1,0,0,10.5408399105,,,,,2015_Aug_27_1142,G,facesParametric,1,59.7161056645,
./stim/MorphF9_04_orig.jpg,1,,,,,,,,,0,1,1,1,,,,,,,,,,,,,,,1.259765625,-3.1640625,1,0,0,2.15769386292,,,,,2015_Aug_27_1142,G,facesParametric,1,59.7161056645,
./stim/MorphM3_03_orig.jpg,2,,,,,,,,,0,2,2,2,,,,,,,,,,,,,,,1.259765625,-3.1640625,1,0,0,2.02656984329,,,,,2015_Aug_27_1142,G,facesParametric,1,59.7161056645,
./stim/MorphM1_00_orig.jpg,3,,,,,,,,,0,3,3,3,,,,,,,,,,,,,,,1.171875,-3.193359375,1,0,0,0.736543178558,,,,,2015_Aug_27_1142,G,facesParametric,1,59.7161056645,
./stim/MorphM6_09_orig.jpg,4,,,,,,,,,0,4,4,4,,,,,,,,,,,,,,,1.171875,-3.193359375,1,0,0,2.26003408432,,,,,2015_Aug_27_1142,G,facesParametric,1,59.7161056645,
./stim/MorphM10_02_orig.jpg,5,,,,,,,,,0,5,5,5,,,,,,,,,,,,,,,1.142578125,-3.22265625,1,0,0,1.65814185143,,,,,2015_Aug_27_1142,G,facesParametric,1,59.7161056645,
./stim/MorphM3_06_orig.jpg,6,,,,,,,,,0,6,6,6,,,,,,,,,,,,,,,0.849609375,-3.369140625,0,0,1,0.92063999176,,,,,2015_Aug_27_1142,G,facesParametric,1,59.7161056645,
./stim/MorphM7_08_orig.jpg,7,,,,,,,,,0,7,7,7,,,,,,,,,,,,,,,-0.498046875,-4.39453125,0,0,1,0.953589916229,,,,,2015_Aug_27_1142,G,facesParametric,1,59.7161056645,
./stim/MorphM6_04_orig.jpg,8,,,,,,,,,0,8,8,8,,,,,,,,,,,,,,,-0.732421875,-4.5703125,0,0,1,2.89843201637,,,,,2015_Aug_27_1142,G,facesParametric,1,59.7161056645,
./stim/MorphM2_05_orig.jpg,9,,,,,,,,,0,9,9,9,,,,,,,,,,,,,,,-1.025390625,-4.86328125,1,0,0,1.17183804512,,,,,2015_Aug_27_1142,G,facesParametric,1,59.7161056645,
./stim/MorphM3_01_orig.jpg,10,,,,,,,,,0,10,10,10,,,,,,,,,,,,,,,-1.171875,-4.892578125,1,0,0,3.01502990723,,,,,2015_Aug_27_1142,G,facesParametric,1,59.7161056645,
./stim/MorphF1_03_orig.jpg,11,,,,,,,,,0,11,11,11,,,,,,,,,,,,,,,-9.140625,-6.826171875,1,0,0,3.83644795418,,,,,2015_Aug_27_1142,G,facesParametric,1,59.7161056645,
./stim/MorphF8_09_orig.jpg,12,,,,,,,,,0,12,12,12,,,,,,,,,,,,,,,-10.400390625,-7.1484375,0,0,1,1.52365493774,,,,,2015_Aug_27_1142,G,facesParametric,1,59.7161056645,
./stim/MorphF3_01_orig.jpg,13,,,,,,,,,0,13,13,13,,,,,,,,,,,,,,,-10.341796875,-7.1484375,1,0,0,1.02125906944,,,,,2015_Aug_27_1142,G,facesParametric,1,59.7161056645,
./stim/MorphF7_03_orig.jpg,14,,,,,,,,,0,14,14,14,,,,,,,,,,,,,,,0.76171875,-1.025390625,1,0,0,50.9146909714,,,,,2015_Aug_27_1142,G,facesParametric,1,59.7161056645,
./stim/MorphM1_05_orig.jpg,15,,,,,,,,,0,15,15,15,,,,,,,,,,,,,,,1.845703125,2.431640625,1,0,0,1.87593197823,,,,,2015_Aug_27_1142,G,facesParametric,1,59.7161056645,
./stim/MorphM5_08_orig.jpg,16,,,,,,,,,0,16,16,16,,,,,,,,,,,,,,,-6.09375,2.40234375,0,0,1,3.51843190193,,,,,2015_Aug_27_1142,G,facesParametric,1,59.7161056645,
./stim/MorphF7_01_orig.jpg,17,,,,,,,,,0,17,17,17,,,,,,,,,,,,,,,-6.26953125,1.904296875,1,0,0,0.903394937515,,,,,2015_Aug_27_1142,G,facesParametric,1,59.7161056645,
./stim/MorphF1_10_orig.jpg,18,,,,,,,,,0,18,18,18,,,,,,,,,,,,,,,-5.91796875,2.05078125,0,0,1,1.82589912415,,,,,2015_Aug_27_1142,G,facesParametric,1,59.7161056645,
./stim/MorphF9_06_orig.jpg,19,,,,,,,,,0,19,19,19,,,,,,,,,,,,,,,-5.91796875,2.05078125,0,0,1,2.62967514992,,,,,2015_Aug_27_1142,G,facesParametric,1,59.7161056645,
./stim/MorphM4_00_orig.jpg,20,,,,,,,,,0,20,20,20,,,,,,,,,,,,,,,-5.888671875,2.080078125,1,0,0,1.28949308395,,,,,2015_Aug_27_1142,G,facesParametric,1,59.7161056645,
./stim/MorphM10_08_orig.jpg,21,,,,,,,,,0,21,21,21,,,,,,,,,,,,,,,-5.888671875,2.080078125,0,0,1,0.903177976608,,,,,2015_Aug_27_1142,G,facesParametric,1,59.7161056645,
./stim/MorphF8_07_orig.jpg,22,,,,,,,,,0,22,22,22,,,,,,,,,,,,,,,-5.888671875,2.080078125,0,0,1,0.851555109024,,,,,2015_Aug_27_1142,G,facesParametric,1,59.7161056645,
./stim/MorphF6_02_orig.jpg,23,,,,,,,,,0,23,23,23,,,,,,,,,,,,,,,-5.888671875,2.080078125,1,0,0,1.23769783974,,,,,2015_Aug_27_1142,G,facesParametric,1,59.7161056645,
./stim/MorphM2_08_orig.jpg,24,,,,,,,,,0,24,24,24,,,,,,,,,,,,,,,-5.888671875,2.080078125,0,0,1,2.29393100739,,,,,2015_Aug_27_1142,G,facesParametric,1,59.7161056645,
./stim/MorphF9_05_orig.jpg,25,,,,,,,,,0,25,25,25,,,,,,,,,,,,,,,-4.482421875,-3.10546875,1,0,0,6.48487591743,,,,,2015_Aug_27_1142,G,facesParametric,1,59.7161056645,
./stim/MorphF1_08_orig.jpg,26,,,,,,,,,0,26,26,26,,,,,,,,,,,,,,,-4.51171875,-3.076171875,0,0,1,1.79225111008,,,,,2015_Aug_27_1142,G,facesParametric,1,59.7161056645,
./stim/MorphF6_09_orig.jpg,27,,,,,,,,,0,27,27,27,,,,,,,,,,,,,,,-4.51171875,-3.10546875,0,0,1,0.853583097458,,,,,2015_Aug_27_1142,G,facesParametric,1,59.7161056645,
./stim/MorphF2_09_orig.jpg,28,,,,,,,,,0,28,28,28,,,,,,,,,,,,,,,-4.51171875,-3.10546875,0,0,1,0.852885007858,,,,,2015_Aug_27_1142,G,facesParametric,1,59.7161056645,
./stim/MorphF1_04_orig.jpg,29,,,,,,,,,0,29,29,29,,,,,,,,,,,,,,,-4.51171875,-3.10546875,1,0,0,0.985960960388,,,,,2015_Aug_27_1142,G,facesParametric,1,59.7161056645,
./stim/MorphM4_06_orig.jpg,30,,,,,,,,,0,30,30,30,,,,,,,,,,,,,,,-4.51171875,-3.10546875,0,0,1,0.703194141388,,,,,2015_Aug_27_1142,G,facesParametric,1,59.7161056645,
./stim/MorphM5_04_orig.jpg,31,,,,,,,,,0,31,31,31,,,,,,,,,,,,,,,-4.51171875,-3.10546875,1,0,0,1.90905690193,,,,,2015_Aug_27_1142,G,facesParametric,1,59.7161056645,
./stim/MorphF10_02_orig.jpg,32,,,,,,,,,0,32,32,32,,,,,,,,,,,,,,,-4.51171875,-3.10546875,0,0,1,3.23312211037,,,,,2015_Aug_27_1142,G,facesParametric,1,59.7161056645,
./stim/MorphF6_05_orig.jpg,33,,,,,,,,,0,33,33,33,,,,,,,,,,,,,,,-4.51171875,-3.10546875,1,0,0,2.22780418396,,,,,2015_Aug_27_1142,G,facesParametric,1,59.7161056645,
./stim/MorphF8_01_orig.jpg,34,,,,,,,,,0,34,34,34,,,,,,,,,,,,,,,-4.658203125,-3.369140625,1,0,0,1.28949403763,,,,,2015_Aug_27_1142,G,facesParametric,1,59.7161056645,
./stim/MorphM2_06_orig.jpg,35,,,,,,,,,0,35,35,35,,,,,,,,,,,,,,,-4.658203125,-3.369140625,1,0,0,2.71363711357,,,,,2015_Aug_27_1142,G,facesParametric,1,59.7161056645,
./stim/MorphM9_02_orig.jpg,36,,,,,,,,,0,36,36,36,,,,,,,,,,,,,,,-0.05859375,-6.826171875,1,0,0,14.5630829334,,,,,2015_Aug_27_1142,G,facesParametric,1,59.7161056645,
./stim/MorphM5_03_orig.jpg,37,,,,,,,,,0,37,37,37,,,,,,,,,,,,,,,0.146484375,-6.796875,1,0,0,1.47362303734,,,,,2015_Aug_27_1142,G,facesParametric,1,59.7161056645,
./stim/MorphM4_01_orig.jpg,38,,,,,,,,,0,38,38,38,,,,,,,,,,,,,,,0.146484375,-6.796875,0,0,1,1.12041211128,,,,,2015_Aug_27_1142,G,facesParametric,1,59.7161056645,
./stim/MorphM6_05_orig.jpg,39,,,,,,,,,0,39,39,39,,,,,,,,,,,,,,,0.17578125,-6.826171875,0,0,1,1.94298410416,,,,,2015_Aug_27_1142,G,facesParametric,1,59.7161056645,
./stim/MorphF4_02_orig.jpg,40,,,,,,,,,0,40,40,40,,,,,,,,,,,,,,,0.146484375,-6.85546875,1,0,0,7.80879497528,,,,,2015_Aug_27_1142,G,facesParametric,1,59.7161056645,
./stim/MorphM9_03_orig.jpg,41,,,,,,,,,0,41,41,41,,,,,,,,,,,,,,,0.146484375,-6.85546875,1,0,0,1.64151287079,,,,,2015_Aug_27_1142,G,facesParametric,1,59.7161056645,
./stim/MorphF4_06_orig.jpg,42,,,,,,,,,0,42,42,42,,,,,,,,,,,,,,,0.0,-6.708984375,1,0,0,1.28780889511,,,,,2015_Aug_27_1142,G,facesParametric,1,59.7161056645,
./stim/MorphF5_00_orig.jpg,43,,,,,,,,,0,43,43,43,,,,,,,,,,,,,,,-0.05859375,-6.6796875,1,0,0,1.62465906143,,,,,2015_Aug_27_1142,G,facesParametric,1,59.7161056645,
./stim/MorphM7_04_orig.jpg,44,,,,,,,,,0,44,44,44,,,,,,,,,,,,,,,-0.05859375,-6.6796875,0,0,1,2.24280190468,,,,,2015_Aug_27_1142,G,facesParametric,1,59.7161056645,
./stim/MorphF1_07_orig.jpg,45,,,,,,,,,0,45,45,45,,,,,,,,,,,,,,,-0.087890625,-6.73828125,0,0,1,5.66393089294,,,,,2015_Aug_27_1142,G,facesParametric,1,59.7161056645,
./stim/MorphF7_02_orig.jpg,46,,,,,,,,,0,46,46,46,,,,,,,,,,,,,,,-0.087890625,-6.767578125,1,0,0,1.32256603241,,,,,2015_Aug_27_1142,G,facesParametric,1,59.7161056645,
./stim/MorphF3_08_orig.jpg,47,,,,,,,,,0,47,47,47,,,,,,,,,,,,,,,-0.087890625,-6.767578125,0,0,1,2.93208408356,,,,,2015_Aug_27_1142,G,facesParametric,1,59.7161056645,
./stim/MorphM4_03_orig.jpg,48,,,,,,,,,0,48,48,48,,,,,,,,,,,,,,,-0.087890625,-6.767578125,1,0,0,1.35546684265,,,,,2015_Aug_27_1142,G,facesParametric,1,59.7161056645,
./stim/MorphM7_05_orig.jpg,49,,,,,,,,,0,49,49,49,,,,,,,,,,,,,,,-0.087890625,-6.767578125,0,0,1,0.851370096207,,,,,2015_Aug_27_1142,G,facesParametric,1,59.7161056645,
./stim/MorphM4_08_orig.jpg,50,,,,,,,,,0,50,50,50,,,,,,,,,,,,,,,-0.087890625,-6.767578125,0,0,1,0.819747924805,,,,,2015_Aug_27_1142,G,facesParametric,1,59.7161056645,
./stim/MorphM2_03_orig.jpg,51,,,,,,,,,0,51,51,51,,,,,,,,,,,,,,,-0.087890625,-6.767578125,1,0,0,1.17039299011,,,,,2015_Aug_27_1142,G,facesParametric,1,59.7161056645,
./stim/MorphF3_10_orig.jpg,52,,,,,,,,,0,52,52,52,,,,,,,,,,,,,,,-0.087890625,-6.767578125,0,0,1,0.920459032059,,,,,2015_Aug_27_1142,G,facesParametric,1,59.7161056645,
./stim/MorphF6_08_orig.jpg,53,,,,,,,,,0,53,53,53,,,,,,,,,,,,,,,-0.087890625,-6.767578125,0,0,1,0.970132112503,,,,,2015_Aug_27_1142,G,facesParametric,1,59.7161056645,
./stim/MorphM3_10_orig.jpg,54,,,,,,,,,0,54,54,54,,,,,,,,,,,,,,,-0.087890625,-6.767578125,0,0,1,0.803316116333,,,,,2015_Aug_27_1142,G,facesParametric,1,59.7161056645,
./stim/MorphM10_03_orig.jpg,55,,,,,,,,,0,55,55,55,,,,,,,,,,,,,,,-0.087890625,-6.767578125,1,0,0,1.73973989487,,,,,2015_Aug_27_1142,G,facesParametric,1,59.7161056645,
./stim/MorphF2_03_orig.jpg,56,,,,,,,,,0,56,56,56,,,,,,,,,,,,,,,-0.087890625,-6.767578125,0,0,1,1.02087593079,,,,,2015_Aug_27_1142,G,facesParametric,1,59.7161056645,
./stim/MorphM7_10_orig.jpg,57,,,,,,,,,0,57,57,57,,,,,,,,,,,,,,,-0.087890625,-6.767578125,0,0,1,1.05449295044,,,,,2015_Aug_27_1142,G,facesParametric,1,59.7161056645,
./stim/MorphF8_00_orig.jpg,58,,,,,,,,,0,58,58,58,,,,,,,,,,,,,,,-0.087890625,-6.767578125,1,0,0,3.7194340229,,,,,2015_Aug_27_1142,G,facesParametric,1,59.7161056645,
./stim/MorphF7_07_orig.jpg,59,,,,,,,,,0,59,59,59,,,,,,,,,,,,,,,-0.029296875,-6.826171875,0,0,1,0.853988170624,,,,,2015_Aug_27_1142,G,facesParametric,1,59.7161056645,
./stim/MorphM8_09_orig.jpg,60,,,,,,,,,0,60,60,60,,,,,,,,,,,,,,,-0.029296875,-6.826171875,0,0,1,0.953377008438,,,,,2015_Aug_27_1142,G,facesParametric,1,59.7161056645,
./stim/MorphF5_08_orig.jpg,61,,,,,,,,,0,61,61,61,,,,,,,,,,,,,,,0.0,-6.85546875,0,0,1,1.07144093513,,,,,2015_Aug_27_1142,G,facesParametric,1,59.7161056645,
./stim/MorphM8_00_orig.jpg,62,,,,,,,,,0,62,62,62,,,,,,,,,,,,,,,0.0,-6.85546875,1,0,0,2.76379108429,,,,,2015_Aug_27_1142,G,facesParametric,1,59.7161056645,
./stim/MorphF4_04_orig.jpg,63,,,,,,,,,0,63,63,63,,,,,,,,,,,,,,,0.0,-6.85546875,1,0,0,3.16650915146,,,,,2015_Aug_27_1142,G,facesParametric,1,59.7161056645,
./stim/MorphM8_05_orig.jpg,64,,,,,,,,,0,64,64,64,,,,,,,,,,,,,,,0.0,-6.85546875,1,0,0,6.35031890869,,,,,2015_Aug_27_1142,G,facesParametric,1,59.7161056645,
./stim/MorphM1_09_orig.jpg,65,,,,,,,,,0,65,65,65,,,,,,,,,,,,,,,-0.029296875,-6.884765625,0,0,1,1.40661883354,,,,,2015_Aug_27_1142,G,facesParametric,1,59.7161056645,
./stim/MorphF8_04_orig.jpg,66,,,,,,,,,0,66,66,66,,,,,,,,,,,,,,,-0.029296875,-6.884765625,0,0,1,2.59618401527,,,,,2015_Aug_27_1142,G,facesParametric,1,59.7161056645,
./stim/MorphM10_07_orig.jpg,67,,,,,,,,,0,67,67,67,,,,,,,,,,,,,,,-0.029296875,-6.884765625,0,0,1,0.786511898041,,,,,2015_Aug_27_1142,G,facesParametric,1,59.7161056645,
./stim/MorphM5_05_orig.jpg,68,,,,,,,,,0,68,68,68,,,,,,,,,,,,,,,-0.029296875,-6.884765625,1,0,0,1.28970098495,,,,,2015_Aug_27_1142,G,facesParametric,1,59.7161056645,
./stim/MorphM3_02_orig.jpg,69,,,,,,,,,0,69,69,69,,,,,,,,,,,,,,,-0.05859375,-6.9140625,1,0,0,5.26098394394,,,,,2015_Aug_27_1142,G,facesParametric,1,59.7161056645,
./stim/MorphF2_08_orig.jpg,70,,,,,,,,,0,70,70,70,,,,,,,,,,,,,,,-0.05859375,-6.9140625,0,0,1,0.699688196182,,,,,2015_Aug_27_1142,G,facesParametric,1,59.7161056645,
./stim/MorphM5_00_orig.jpg,71,,,,,,,,,0,71,71,71,,,,,,,,,,,,,,,-0.05859375,-6.9140625,1,0,0,0.936785936356,,,,,2015_Aug_27_1142,G,facesParametric,1,59.7161056645,
./stim/MorphF6_07_orig.jpg,72,,,,,,,,,0,72,72,72,,,,,,,,,,,,,,,-0.05859375,-6.9140625,0,0,1,1.37194609642,,,,,2015_Aug_27_1142,G,facesParametric,1,59.7161056645,
./stim/MorphM7_07_orig.jpg,73,,,,,,,,,0,73,73,73,,,,,,,,,,,,,,,-0.087890625,-6.943359375,0,0,1,1.4700460434,,,,,2015_Aug_27_1142,G,facesParametric,1,59.7161056645,
./stim/MorphM4_05_orig.jpg,74,,,,,,,,,0,74,74,74,,,,,,,,,,,,,,,-0.380859375,-7.060546875,0,0,1,0.869796037674,,,,,2015_Aug_27_1142,G,facesParametric,1,59.7161056645,
./stim/MorphF1_02_orig.jpg,75,,,,,,,,,0,75,75,75,,,,,,,,,,,,,,,-0.439453125,-7.119140625,1,0,0,2.96406912804,,,,,2015_Aug_27_1142,G,facesParametric,1,59.7161056645,
./stim/MorphM1_03_orig.jpg,76,,,,,,,,,0,76,76,76,,,,,,,,,,,,,,,-0.498046875,-10.37109375,1,0,0,1.38981199265,,,,,2015_Aug_27_1142,G,facesParametric,1,59.7161056645,
./stim/MorphM6_01_orig.jpg,77,,,,,,,,,0,77,77,77,,,,,,,,,,,,,,,-0.498046875,-10.37109375,1,0,0,3.07928085327,,,,,2015_Aug_27_1142,G,facesParametric,1,59.7161056645,
./stim/MorphF5_05_orig.jpg,78,,,,,,,,,0,78,78,78,,,,,,,,,,,,,,,-0.498046875,-10.37109375,1,0,0,3.24764299393,,,,,2015_Aug_27_1142,G,facesParametric,1,59.7161056645,
./stim/MorphF4_10_orig.jpg,79,,,,,,,,,0,79,79,79,,,,,,,,,,,,,,,-0.498046875,-10.37109375,0,0,1,0.834839105606,,,,,2015_Aug_27_1142,G,facesParametric,1,59.7161056645,
./stim/MorphF9_03_orig.jpg,80,,,,,,,,,0,80,80,80,,,,,,,,,,,,,,,-0.498046875,-10.37109375,1,0,0,2.17618012428,,,,,2015_Aug_27_1142,G,facesParametric,1,59.7161056645,
./stim/MorphM8_04_orig.jpg,81,,,,,,,,,0,81,81,81,,,,,,,,,,,,,,,-0.52734375,-10.37109375,1,0,0,2.05931997299,,,,,2015_Aug_27_1142,G,facesParametric,1,59.7161056645,
./stim/MorphF2_04_orig.jpg,82,,,,,,,,,0,82,82,82,,,,,,,,,,,,,,,-0.556640625,-10.400390625,1,0,0,2.54624009132,,,,,2015_Aug_27_1142,G,facesParametric,1,59.7161056645,
./stim/MorphM10_01_orig.jpg,83,,,,,,,,,0,83,83,83,,,,,,,,,,,,,,,-0.556640625,-10.400390625,1,0,0,2.26090884209,,,,,2015_Aug_27_1142,G,facesParametric,1,59.7161056645,
./stim/MorphF6_10_orig.jpg,84,,,,,,,,,0,84,84,84,,,,,,,,,,,,,,,-0.556640625,-10.400390625,0,0,1,1.47248005867,,,,,2015_Aug_27_1142,G,facesParametric,1,59.7161056645,
./stim/MorphF10_00_orig.jpg,85,,,,,,,,,0,85,85,85,,,,,,,,,,,,,,,-0.615234375,-10.4296875,1,0,0,1.74175000191,,,,,2015_Aug_27_1142,G,facesParametric,1,59.7161056645,
./stim/MorphM10_04_orig.jpg,86,,,,,,,,,0,86,86,86,,,,,,,,,,,,,,,-0.615234375,-10.4296875,0,0,1,5.26106905937,,,,,2015_Aug_27_1142,G,facesParametric,1,59.7161056645,
./stim/MorphM4_07_orig.jpg,87,,,,,,,,,0,87,87,87,,,,,,,,,,,,,,,-0.673828125,-10.48828125,0,0,1,0.734876155853,,,,,2015_Aug_27_1142,G,facesParametric,1,59.7161056645,
./stim/MorphF10_07_orig.jpg,88,,,,,,,,,0,88,88,88,,,,,,,,,,,,,,,-0.673828125,-10.48828125,0,0,1,0.669031143188,,,,,2015_Aug_27_1142,G,facesParametric,1,59.7161056645,
./stim/MorphF8_02_orig.jpg,89,,,,,,,,,0,89,89,89,,,,,,,,,,,,,,,-0.673828125,-10.48828125,0,0,1,0.767932891846,,,,,2015_Aug_27_1142,G,facesParametric,1,59.7161056645,
./stim/MorphM10_06_orig.jpg,90,,,,,,,,,0,90,90,90,,,,,,,,,,,,,,,-0.673828125,-10.48828125,0,0,1,2.91514801979,,,,,2015_Aug_27_1142,G,facesParametric,1,59.7161056645,
./stim/MorphF6_06_orig.jpg,91,,,,,,,,,0,91,91,91,,,,,,,,,,,,,,,-0.673828125,-10.48828125,1,0,0,1.70790910721,,,,,2015_Aug_27_1142,G,facesParametric,1,59.7161056645,
./stim/MorphF2_07_orig.jpg,92,,,,,,,,,0,92,92,92,,,,,,,,,,,,,,,-0.673828125,-10.48828125,0,0,1,2.51269602776,,,,,2015_Aug_27_1142,G,facesParametric,1,59.7161056645,
./stim/MorphF3_04_orig.jpg,93,,,,,,,,,0,93,93,93,,,,,,,,,,,,,,,-0.673828125,-10.48828125,1,0,0,1.17200088501,,,,,2015_Aug_27_1142,G,facesParametric,1,59.7161056645,
./stim/MorphM10_10_orig.jpg,94,,,,,,,,,0,94,94,94,,,,,,,,,,,,,,,-0.673828125,-10.48828125,0,0,1,1.89164304733,,,,,2015_Aug_27_1142,G,facesParametric,1,59.7161056645,
./stim/MorphF3_06_orig.jpg,95,,,,,,,,,0,95,95,95,,,,,,,,,,,,,,,-0.673828125,-10.48828125,0,0,1,3.75287890434,,,,,2015_Aug_27_1142,G,facesParametric,1,59.7161056645,
./stim/MorphM8_06_orig.jpg,96,,,,,,,,,0,96,96,96,,,,,,,,,,,,,,,-0.673828125,-10.48828125,1,0,0,0.901818990707,,,,,2015_Aug_27_1142,G,facesParametric,1,59.7161056645,
./stim/MorphM4_02_orig.jpg,97,,,,,,,,,0,97,97,97,,,,,,,,,,,,,,,-0.703125,-10.458984375,0,0,1,0.702814102173,,,,,2015_Aug_27_1142,G,facesParametric,1,59.7161056645,
./stim/MorphF9_08_orig.jpg,98,,,,,,,,,0,98,98,98,,,,,,,,,,,,,,,-0.703125,-10.458984375,1,0,0,2.02670001984,,,,,2015_Aug_27_1142,G,facesParametric,1,59.7161056645,
./stim/MorphF3_07_orig.jpg,99,,,,,,,,,0,99,99,99,,,,,,,,,,,,,,,-0.703125,-10.458984375,0,0,1,1.00213599205,,,,,2015_Aug_27_1142,G,facesParametric,1,59.7161056645,
./stim/MorphM10_09_orig.jpg,100,,,,,,,,,0,100,100,100,,,,,,,,,,,,,,,-0.703125,-10.458984375,0,0,1,1.13916397095,,,,,2015_Aug_27_1142,G,facesParametric,1,59.7161056645,
./stim/MorphM4_04_orig.jpg,101,,,,,,,,,0,101,101,101,,,,,,,,,,,,,,,-0.703125,-10.458984375,1,0,0,0.969727993011,,,,,2015_Aug_27_1142,G,facesParametric,1,59.7161056645,
./stim/MorphM6_07_orig.jpg,102,,,,,,,,,0,102,102,102,,,,,,,,,,,,,,,-0.732421875,-10.4296875,1,0,0,2.3286459446,,,,,2015_Aug_27_1142,G,facesParametric,1,59.7161056645,
./stim/MorphF4_01_orig.jpg,103,,,,,,,,,0,103,103,103,,,,,,,,,,,,,,,-0.732421875,-10.4296875,1,0,0,2.47740983963,,,,,2015_Aug_27_1142,G,facesParametric,1,59.7161056645,
./stim/MorphF10_06_orig.jpg,104,,,,,,,,,0,104,104,104,,,,,,,,,,,,,,,-0.703125,-10.458984375,0,0,1,1.13759589195,,,,,2015_Aug_27_1142,G,facesParametric,1,59.7161056645,
./stim/MorphM3_00_orig.jpg,105,,,,,,,,,0,105,105,105,,,,,,,,,,,,,,,-0.703125,-10.458984375,1,0,0,2.49608707428,,,,,2015_Aug_27_1142,G,facesParametric,1,59.7161056645,
./stim/MorphF7_08_orig.jpg,106,,,,,,,,,0,106,106,106,,,,,,,,,,,,,,,-0.703125,-10.458984375,0,0,1,0.685919046402,,,,,2015_Aug_27_1142,G,facesParametric,1,59.7161056645,
./stim/MorphF1_06_orig.jpg,107,,,,,,,,,0,107,107,107,,,,,,,,,,,,,,,-0.732421875,-10.60546875,1,0,0,3.43260598183,,,,,2015_Aug_27_1142,G,facesParametric,1,59.7161056645,
./stim/MorphM7_02_orig.jpg,108,,,,,,,,,0,108,108,108,,,,,,,,,,,,,,,-0.732421875,-10.60546875,0,0,1,0.701434850693,,,,,2015_Aug_27_1142,G,facesParametric,1,59.7161056645,
./stim/MorphM5_02_orig.jpg,109,,,,,,,,,0,109,109,109,,,,,,,,,,,,,,,-0.76171875,-10.634765625,1,0,0,1.62295484543,,,,,2015_Aug_27_1142,G,facesParametric,1,59.7161056645,
./stim/MorphM6_08_orig.jpg,110,,,,,,,,,0,110,110,110,,,,,,,,,,,,,,,-0.76171875,-10.634765625,1,0,0,6.36801600456,,,,,2015_Aug_27_1142,G,facesParametric,1,59.7161056645,
./stim/MorphF6_01_orig.jpg,111,,,,,,,,,0,111,111,111,,,,,,,,,,,,,,,-0.76171875,-10.634765625,1,0,0,4.89192914963,,,,,2015_Aug_27_1142,G,facesParametric,1,59.7161056645,
./stim/MorphM3_08_orig.jpg,112,,,,,,,,,0,112,112,112,,,,,,,,,,,,,,,-0.76171875,-10.634765625,0,0,1,7.18695402145,,,,,2015_Aug_27_1142,G,facesParametric,1,59.7161056645,
./stim/MorphF2_06_orig.jpg,113,,,,,,,,,0,113,113,113,,,,,,,,,,,,,,,-4.3359375,-10.634765625,0,0,1,12.854186058,,,,,2015_Aug_27_1142,G,facesParametric,1,59.7161056645,
./stim/MorphM9_05_orig.jpg,114,,,,,,,,,0,114,114,114,,,,,,,,,,,,,,,-4.189453125,-10.546875,1,0,0,1.25316905975,,,,,2015_Aug_27_1142,G,facesParametric,1,59.7161056645,
./stim/MorphM7_06_orig.jpg,115,,,,,,,,,0,115,115,115,,,,,,,,,,,,,,,-4.16015625,-10.517578125,0,0,1,2.21196818352,,,,,2015_Aug_27_1142,G,facesParametric,1,59.7161056645,
./stim/MorphF7_00_orig.jpg,116,,,,,,,,,0,116,116,116,,,,,,,,,,,,,,,-4.189453125,-10.48828125,1,0,0,7.13757896423,,,,,2015_Aug_27_1142,G,facesParametric,1,59.7161056645,
./stim/MorphM7_00_orig.jpg,117,,,,,,,,,0,117,117,117,,,,,,,,,,,,,,,-5.302734375,-8.818359375,0,0,1,1.65810680389,,,,,2015_Aug_27_1142,G,facesParametric,1,59.7161056645,
./stim/MorphM6_02_orig.jpg,118,,,,,,,,,0,118,118,118,,,,,,,,,,,,,,,-5.537109375,-8.84765625,1,0,0,4.13808202744,,,,,2015_Aug_27_1142,G,facesParametric,1,59.7161056645,
./stim/MorphF7_04_orig.jpg,119,,,,,,,,,0,119,119,119,,,,,,,,,,,,,,,-5.56640625,-8.818359375,1,0,0,15.0473639965,,,,,2015_Aug_27_1142,G,facesParametric,1,59.7161056645,
./stim/MorphF4_00_orig.jpg,120,,,,,,,,,0,120,120,120,,,,,,,,,,,,,,,-5.56640625,-8.818359375,1,0,0,1.08779907227,,,,,2015_Aug_27_1142,G,facesParametric,1,59.7161056645,
./stim/MorphF9_07_orig.jpg,121,,,,,,,,,0,121,121,121,,,,,,,,,,,,,,,-5.595703125,-8.876953125,0,0,1,2.86429786682,,,,,2015_Aug_27_1142,G,facesParametric,1,59.7161056645,
./stim/MorphF4_05_orig.jpg,122,,,,,,,,,0,122,122,122,,,,,,,,,,,,,,,-4.16015625,-11.572265625,1,0,0,3.33408689499,,,,,2015_Aug_27_1142,G,facesParametric,1,59.7161056645,
./stim/MorphF5_10_orig.jpg,123,,,,,,,,,0,123,123,123,,,,,,,,,,,,,,,-4.16015625,-11.572265625,0,0,1,1.64137887955,,,,,2015_Aug_27_1142,G,facesParametric,1,59.7161056645,
./stim/MorphM9_06_orig.jpg,124,,,,,,,,,0,124,124,124,,,,,,,,,,,,,,,-4.16015625,-11.572265625,1,0,0,1.20516180992,,,,,2015_Aug_27_1142,G,facesParametric,1,59.7161056645,
./stim/MorphF1_00_orig.jpg,125,,,,,,,,,0,125,125,125,,,,,,,,,,,,,,,-11.015625,-1.552734375,1,0,0,4.59049582481,,,,,2015_Aug_27_1142,G,facesParametric,1,59.7161056645,
./stim/MorphF5_07_orig.jpg,126,,,,,,,,,0,126,126,126,,,,,,,,,,,,,,,-10.224609375,-1.171875,0,0,1,1.45695185661,,,,,2015_Aug_27_1142,G,facesParametric,1,59.7161056645,
./stim/MorphM6_06_orig.jpg,127,,,,,,,,,0,127,127,127,,,,,,,,,,,,,,,-13.0078125,-2.05078125,1,0,0,2.39456391335,,,,,2015_Aug_27_1142,G,facesParametric,1,59.7161056645,
./stim/MorphF2_00_orig.jpg,128,,,,,,,,,0,128,128,128,,,,,,,,,,,,,,,-12.685546875,-1.875,1,0,0,1.18786096573,,,,,2015_Aug_27_1142,G,facesParametric,1,59.7161056645,
./stim/MorphM6_03_orig.jpg,129,,,,,,,,,0,129,129,129,,,,,,,,,,,,,,,-12.451171875,-1.9921875,1,0,0,2.49589395523,,,,,2015_Aug_27_1142,G,facesParametric,1,59.7161056645,
./stim/MorphM3_04_orig.jpg,130,,,,,,,,,0,130,130,130,,,,,,,,,,,,,,,-12.451171875,-1.9921875,1,0,0,2.30979204178,,,,,2015_Aug_27_1142,G,facesParametric,1,59.7161056645,
./stim/MorphM8_01_orig.jpg,131,,,,,,,,,0,131,131,131,,,,,,,,,,,,,,,-12.451171875,-1.9921875,1,0,0,2.44594812393,,,,,2015_Aug_27_1142,G,facesParametric,1,59.7161056645,
./stim/MorphM1_06_orig.jpg,132,,,,,,,,,0,132,132,132,,,,,,,,,,,,,,,-12.451171875,-1.9921875,1,0,0,3.76833295822,,,,,2015_Aug_27_1142,G,facesParametric,1,59.7161056645,
./stim/MorphM2_09_orig.jpg,133,,,,,,,,,0,133,133,133,,,,,,,,,,,,,,,-12.451171875,-1.9921875,0,0,1,1.0717279911,,,,,2015_Aug_27_1142,G,facesParametric,1,59.7161056645,
./stim/MorphF2_01_orig.jpg,134,,,,,,,,,0,134,134,134,,,,,,,,,,,,,,,-12.451171875,-1.9921875,1,0,0,2.69557905197,,,,,2015_Aug_27_1142,G,facesParametric,1,59.7161056645,
./stim/MorphM5_01_orig.jpg,135,,,,,,,,,0,135,135,135,,,,,,,,,,,,,,,-12.451171875,-1.9921875,1,0,0,1.44006896019,,,,,2015_Aug_27_1142,G,facesParametric,1,59.7161056645,
./stim/MorphF8_03_orig.jpg,136,,,,,,,,,0,136,136,136,,,,,,,,,,,,,,,-12.392578125,-1.962890625,1,0,0,4.28941011429,,,,,2015_Aug_27_1142,G,facesParametric,1,59.7161056645,
./stim/MorphF10_03_orig.jpg,137,,,,,,,,,0,137,137,137,,,,,,,,,,,,,,,-12.392578125,-1.962890625,1,0,0,1.00405097008,,,,,2015_Aug_27_1142,G,facesParametric,1,59.7161056645,
./stim/MorphM7_09_orig.jpg,138,,,,,,,,,0,138,138,138,,,,,,,,,,,,,,,-12.392578125,-1.962890625,0,0,1,0.719128131866,,,,,2015_Aug_27_1142,G,facesParametric,1,59.7161056645,
./stim/MorphM9_00_orig.jpg,139,,,,,,,,,0,139,139,139,,,,,,,,,,,,,,,-12.421875,-1.962890625,1,0,0,2.04254508018,,,,,2015_Aug_27_1142,G,facesParametric,1,59.7161056645,
./stim/MorphM3_05_orig.jpg,140,,,,,,,,,0,140,140,140,,,,,,,,,,,,,,,-12.48046875,-1.9921875,0,0,1,0.767045974731,,,,,2015_Aug_27_1142,G,facesParametric,1,59.7161056645,
./stim/MorphM1_07_orig.jpg,141,,,,,,,,,0,141,141,141,,,,,,,,,,,,,,,-12.48046875,-1.9921875,0,0,1,0.954339981079,,,,,2015_Aug_27_1142,G,facesParametric,1,59.7161056645,
./stim/MorphM9_07_orig.jpg,142,,,,,,,,,0,142,142,142,,,,,,,,,,,,,,,-12.5390625,-2.05078125,0,0,1,0.786190032959,,,,,2015_Aug_27_1142,G,facesParametric,1,59.7161056645,
./stim/MorphF3_03_orig.jpg,143,,,,,,,,,0,143,143,143,,,,,,,,,,,,,,,-12.5390625,-2.05078125,1,0,0,1.80841088295,,,,,2015_Aug_27_1142,G,facesParametric,1,59.7161056645,
./stim/MorphF4_07_orig.jpg,144,,,,,,,,,0,144,144,144,,,,,,,,,,,,,,,-12.5390625,-2.05078125,0,0,1,0.73443198204,,,,,2015_Aug_27_1142,G,facesParametric,1,59.7161056645,
./stim/MorphM2_10_orig.jpg,145,,,,,,,,,0,145,145,145,,,,,,,,,,,,,,,-12.5390625,-2.05078125,0,0,1,0.73609995842,,,,,2015_Aug_27_1142,G,facesParametric,1,59.7161056645,
./stim/MorphF7_06_orig.jpg,146,,,,,,,,,0,146,146,146,,,,,,,,,,,,,,,-12.5390625,-2.05078125,0,0,1,1.38915109634,,,,,2015_Aug_27_1142,G,facesParametric,1,59.7161056645,
./stim/MorphM8_02_orig.jpg,147,,,,,,,,,0,147,147,147,,,,,,,,,,,,,,,-12.5390625,-2.05078125,0,0,1,0.787005186081,,,,,2015_Aug_27_1142,G,facesParametric,1,59.7161056645,
./stim/MorphF3_05_orig.jpg,148,,,,,,,,,0,148,148,148,,,,,,,,,,,,,,,-12.5390625,-2.05078125,1,0,0,1.03779602051,,,,,2015_Aug_27_1142,G,facesParametric,1,59.7161056645,
./stim/MorphF6_04_orig.jpg,149,,,,,,,,,0,149,149,149,,,,,,,,,,,,,,,-12.5390625,-2.05078125,1,0,0,1.02107286453,,,,,2015_Aug_27_1142,G,facesParametric,1,59.7161056645,
./stim/MorphM4_10_orig.jpg,150,,,,,,,,,0,150,150,150,,,,,,,,,,,,,,,-12.5390625,-2.05078125,0,0,1,0.601356983185,,,,,2015_Aug_27_1142,G,facesParametric,1,59.7161056645,
./stim/MorphF10_08_orig.jpg,151,,,,,,,,,0,151,151,151,,,,,,,,,,,,,,,-12.5390625,-2.05078125,0,0,1,0.769917011261,,,,,2015_Aug_27_1142,G,facesParametric,1,59.7161056645,
./stim/MorphF5_02_orig.jpg,152,,,,,,,,,0,152,152,152,,,,,,,,,,,,,,,-12.5390625,-2.05078125,1,0,0,1.33953094482,,,,,2015_Aug_27_1142,G,facesParametric,1,59.7161056645,
./stim/MorphF1_05_orig.jpg,153,,,,,,,,,0,153,153,153,,,,,,,,,,,,,,,-12.5390625,-2.05078125,1,0,0,1.10468196869,,,,,2015_Aug_27_1142,G,facesParametric,1,59.7161056645,
./stim/MorphF9_09_orig.jpg,154,,,,,,,,,0,154,154,154,,,,,,,,,,,,,,,-12.509765625,-2.021484375,0,0,1,0.652592182159,,,,,2015_Aug_27_1142,G,facesParametric,1,59.7161056645,
./stim/MorphF5_03_orig.jpg,155,,,,,,,,,0,155,155,155,,,,,,,,,,,,,,,-12.509765625,-2.021484375,1,0,0,0.803224086761,,,,,2015_Aug_27_1142,G,facesParametric,1,59.7161056645,
./stim/MorphF4_03_orig.jpg,156,,,,,,,,,0,156,156,156,,,,,,,,,,,,,,,-12.5390625,-3.486328125,1,0,0,0.80291390419,,,,,2015_Aug_27_1142,G,facesParametric,1,59.7161056645,
./stim/MorphF5_01_orig.jpg,157,,,,,,,,,0,157,157,157,,,,,,,,,,,,,,,-12.5390625,-3.486328125,1,0,0,0.870441913605,,,,,2015_Aug_27_1142,G,facesParametric,1,59.7161056645,
./stim/MorphM1_01_orig.jpg,158,,,,,,,,,0,158,158,158,,,,,,,,,,,,,,,-12.5390625,-3.486328125,1,0,0,0.803286790848,,,,,2015_Aug_27_1142,G,facesParametric,1,59.7161056645,
./stim/MorphF9_02_orig.jpg,159,,,,,,,,,0,159,159,159,,,,,,,,,,,,,,,-12.5390625,-3.486328125,1,0,0,0.853626012802,,,,,2015_Aug_27_1142,G,facesParametric,1,59.7161056645,
./stim/MorphF2_02_orig.jpg,160,,,,,,,,,0,160,160,160,,,,,,,,,,,,,,,-12.5390625,-3.486328125,1,0,0,1.03799200058,,,,,2015_Aug_27_1142,G,facesParametric,1,59.7161056645,
./stim/MorphM8_10_orig.jpg,161,,,,,,,,,0,161,161,161,,,,,,,,,,,,,,,-12.5390625,-3.486328125,0,0,1,0.56827878952,,,,,2015_Aug_27_1142,G,facesParametric,1,59.7161056645,
./stim/MorphM1_10_orig.jpg,162,,,,,,,,,0,162,162,162,,,,,,,,,,,,,,,-12.5390625,-3.486328125,0,0,1,0.786508798599,,,,,2015_Aug_27_1142,G,facesParametric,1,59.7161056645,
./stim/MorphF10_04_orig.jpg,163,,,,,,,,,0,163,163,163,,,,,,,,,,,,,,,-12.5390625,-3.486328125,0,0,1,1.25595903397,,,,,2015_Aug_27_1142,G,facesParametric,1,59.7161056645,
./stim/MorphF3_00_orig.jpg,164,,,,,,,,,0,164,164,164,,,,,,,,,,,,,,,-12.5390625,-3.486328125,1,0,0,0.936544895172,,,,,2015_Aug_27_1142,G,facesParametric,1,59.7161056645,
./stim/MorphM2_07_orig.jpg,165,,,,,,,,,0,165,165,165,,,,,,,,,,,,,,,-12.509765625,-3.486328125,0,0,1,1.8758430481,,,,,2015_Aug_27_1142,G,facesParametric,1,59.7161056645,
./stim/MorphF7_05_orig.jpg,166,,,,,,,,,0,166,166,166,,,,,,,,,,,,,,,-12.509765625,-3.486328125,0,0,1,1.37236881256,,,,,2015_Aug_27_1142,G,facesParametric,1,59.7161056645,
./stim/MorphF6_03_orig.jpg,167,,,,,,,,,0,167,167,167,,,,,,,,,,,,,,,-12.509765625,-3.486328125,1,0,0,1.12157487869,,,,,2015_Aug_27_1142,G,facesParametric,1,59.7161056645,
./stim/MorphF3_02_orig.jpg,168,,,,,,,,,0,168,168,168,,,,,,,,,,,,,,,-12.509765625,-3.486328125,1,0,0,0.918924808502,,,,,2015_Aug_27_1142,G,facesParametric,1,59.7161056645,
./stim/MorphF1_01_orig.jpg,169,,,,,,,,,0,169,169,169,,,,,,,,,,,,,,,-12.509765625,-3.486328125,1,0,0,1.00448989868,,,,,2015_Aug_27_1142,G,facesParametric,1,59.7161056645,
./stim/MorphM1_04_orig.jpg,170,,,,,,,,,0,170,170,170,,,,,,,,,,,,,,,-12.509765625,-3.486328125,1,0,0,1.08598589897,,,,,2015_Aug_27_1142,G,facesParametric,1,59.7161056645,
./stim/MorphF4_09_orig.jpg,171,,,,,,,,,0,171,171,171,,,,,,,,,,,,,,,-12.48046875,-3.486328125,0,0,1,0.719312906265,,,,,2015_Aug_27_1142,G,facesParametric,1,59.7161056645,
./stim/MorphM6_00_orig.jpg,172,,,,,,,,,0,172,172,172,,,,,,,,,,,,,,,-12.451171875,-3.515625,1,0,0,1.08806800842,,,,,2015_Aug_27_1142,G,facesParametric,1,59.7161056645,
./stim/MorphM5_09_orig.jpg,173,,,,,,,,,0,173,173,173,,,,,,,,,,,,,,,-12.421875,-3.515625,0,0,1,1.35761880875,,,,,2015_Aug_27_1142,G,facesParametric,1,59.7161056645,
./stim/MorphF5_06_orig.jpg,174,,,,,,,,,0,174,174,174,,,,,,,,,,,,,,,-12.36328125,-3.544921875,0,0,1,1.52271485329,,,,,2015_Aug_27_1142,G,facesParametric,1,59.7161056645,
./stim/MorphF9_01_orig.jpg,175,,,,,,,,,0,175,175,175,,,,,,,,,,,,,,,-12.36328125,-3.544921875,1,0,0,0.785974025726,,,,,2015_Aug_27_1142,G,facesParametric,1,59.7161056645,
./stim/MorphM5_07_orig.jpg,176,,,,,,,,,0,176,176,176,,,,,,,,,,,,,,,-12.48046875,-3.33984375,0,0,1,1.30625700951,,,,,2015_Aug_27_1142,G,facesParametric,1,59.7161056645,
./stim/MorphM2_01_orig.jpg,177,,,,,,,,,0,177,177,177,,,,,,,,,,,,,,,-12.48046875,-3.33984375,1,0,0,1.20541810989,,,,,2015_Aug_27_1142,G,facesParametric,1,59.7161056645,
./stim/MorphM7_03_orig.jpg,178,,,,,,,,,0,178,178,178,,,,,,,,,,,,,,,-12.59765625,-3.427734375,0,0,1,2.10896396637,,,,,2015_Aug_27_1142,G,facesParametric,1,59.7161056645,
./stim/MorphM9_09_orig.jpg,179,,,,,,,,,0,179,179,179,,,,,,,,,,,,,,,-12.59765625,-3.427734375,0,0,1,0.887328147888,,,,,2015_Aug_27_1142,G,facesParametric,1,59.7161056645,
./stim/MorphF9_10_orig.jpg,180,,,,,,,,,0,180,180,180,,,,,,,,,,,,,,,-12.59765625,-3.427734375,0,0,1,0.785043954849,,,,,2015_Aug_27_1142,G,facesParametric,1,59.7161056645,
./stim/MorphF8_10_orig.jpg,181,,,,,,,,,0,181,181,181,,,,,,,,,,,,,,,-12.626953125,-3.45703125,0,0,1,0.803600788116,,,,,2015_Aug_27_1142,G,facesParametric,1,59.7161056645,
./stim/MorphF10_10_orig.jpg,182,,,,,,,,,0,182,182,182,,,,,,,,,,,,,,,-12.626953125,-3.45703125,0,0,1,0.987174034119,,,,,2015_Aug_27_1142,G,facesParametric,1,59.7161056645,
./stim/MorphM3_09_orig.jpg,183,,,,,,,,,0,183,183,183,,,,,,,,,,,,,,,-12.568359375,-3.45703125,0,0,1,0.735376119614,,,,,2015_Aug_27_1142,G,facesParametric,1,59.7161056645,
./stim/MorphF10_05_orig.jpg,184,,,,,,,,,0,184,184,184,,,,,,,,,,,,,,,-12.568359375,-3.45703125,0,0,1,0.752724170685,,,,,2015_Aug_27_1142,G,facesParametric,1,59.7161056645,
./stim/MorphF6_00_orig.jpg,185,,,,,,,,,0,185,185,185,,,,,,,,,,,,,,,-12.5390625,-3.45703125,1,0,0,1.08680701256,,,,,2015_Aug_27_1142,G,facesParametric,1,59.7161056645,
./stim/MorphF8_08_orig.jpg,186,,,,,,,,,0,186,186,186,,,,,,,,,,,,,,,-12.509765625,-3.427734375,0,0,1,0.735910892487,,,,,2015_Aug_27_1142,G,facesParametric,1,59.7161056645,
./stim/MorphF7_10_orig.jpg,187,,,,,,,,,0,187,187,187,,,,,,,,,,,,,,,-12.509765625,-3.427734375,0,0,1,0.819828987122,,,,,2015_Aug_27_1142,G,facesParametric,1,59.7161056645,
./stim/MorphM9_10_orig.jpg,188,,,,,,,,,0,188,188,188,,,,,,,,,,,,,,,-12.509765625,-3.427734375,0,0,1,1.23748493195,,,,,2015_Aug_27_1142,G,facesParametric,1,59.7161056645,
./stim/MorphM10_05_orig.jpg,189,,,,,,,,,0,189,189,189,,,,,,,,,,,,,,,-12.509765625,-3.427734375,0,0,1,3.5331299305,,,,,2015_Aug_27_1142,G,facesParametric,1,59.7161056645,
./stim/MorphM8_03_orig.jpg,190,,,,,,,,,0,190,190,190,,,,,,,,,,,,,,,-12.509765625,-3.427734375,1,0,0,1.22207689285,,,,,2015_Aug_27_1142,G,facesParametric,1,59.7161056645,
./stim/MorphF2_10_orig.jpg,191,,,,,,,,,0,191,191,191,,,,,,,,,,,,,,,-12.509765625,-3.427734375,0,0,1,0.968717098236,,,,,2015_Aug_27_1142,G,facesParametric,1,59.7161056645,
./stim/MorphM1_02_orig.jpg,192,,,,,,,,,0,192,192,192,,,,,,,,,,,,,,,-12.509765625,-3.427734375,1,0,0,1.43774604797,,,,,2015_Aug_27_1142,G,facesParametric,1,59.7161056645,
./stim/MorphM4_09_orig.jpg,193,,,,,,,,,0,193,193,193,,,,,,,,,,,,,,,-12.509765625,-3.427734375,0,0,1,0.8032579422,,,,,2015_Aug_27_1142,G,facesParametric,1,59.7161056645,
./stim/MorphM8_07_orig.jpg,194,,,,,,,,,0,194,194,194,,,,,,,,,,,,,,,-12.509765625,-3.427734375,1,0,0,0.836256980896,,,,,2015_Aug_27_1142,G,facesParametric,1,59.7161056645,
./stim/MorphM1_08_orig.jpg,195,,,,,,,,,0,195,195,195,,,,,,,,,,,,,,,-12.509765625,-3.427734375,0,0,1,0.987054824829,,,,,2015_Aug_27_1142,G,facesParametric,1,59.7161056645,
./stim/MorphF4_08_orig.jpg,196,,,,,,,,,0,196,196,196,,,,,,,,,,,,,,,-12.626953125,-3.486328125,1,0,0,1.3889811039,,,,,2015_Aug_27_1142,G,facesParametric,1,59.7161056645,
./stim/MorphM9_04_orig.jpg,197,,,,,,,,,0,197,197,197,,,,,,,,,,,,,,,-12.65625,-3.515625,1,0,0,2.51152300835,,,,,2015_Aug_27_1142,G,facesParametric,1,59.7161056645,
./stim/MorphF1_09_orig.jpg,198,,,,,,,,,0,198,198,198,,,,,,,,,,,,,,,-12.65625,-3.515625,0,0,1,2.26101589203,,,,,2015_Aug_27_1142,G,facesParametric,1,59.7161056645,
./stim/MorphM9_08_orig.jpg,199,,,,,,,,,0,199,199,199,,,,,,,,,,,,,,,-12.626953125,-3.544921875,0,0,1,1.38801312447,,,,,2015_Aug_27_1142,G,facesParametric,1,59.7161056645,
./stim/MorphF10_01_orig.jpg,200,,,,,,,,,0,200,200,200,,,,,,,,,,,,,,,-12.626953125,-3.544921875,1,0,0,0.853241920471,,,,,2015_Aug_27_1142,G,facesParametric,1,59.7161056645,
./stim/MorphM10_00_orig.jpg,201,,,,,,,,,0,201,201,201,,,,,,,,,,,,,,,-12.59765625,-3.544921875,1,0,0,0.987240076065,,,,,2015_Aug_27_1142,G,facesParametric,1,59.7161056645,
./stim/MorphM2_00_orig.jpg,202,,,,,,,,,0,202,202,202,,,,,,,,,,,,,,,-12.59765625,-3.544921875,1,0,0,0.685956001282,,,,,2015_Aug_27_1142,G,facesParametric,1,59.7161056645,
./stim/MorphM9_01_orig.jpg,203,,,,,,,,,0,203,203,203,,,,,,,,,,,,,,,-12.568359375,-3.544921875,1,0,0,1.05468297005,,,,,2015_Aug_27_1142,G,facesParametric,1,59.7161056645,
./stim/MorphF7_09_orig.jpg,204,,,,,,,,,0,204,204,204,,,,,,,,,,,,,,,-12.568359375,-3.544921875,0,0,1,0.686498165131,,,,,2015_Aug_27_1142,G,facesParametric,1,59.7161056645,
./stim/MorphF9_00_orig.jpg,205,,,,,,,,,0,205,205,205,,,,,,,,,,,,,,,-12.568359375,-3.544921875,1,0,0,1.13771104813,,,,,2015_Aug_27_1142,G,facesParametric,1,59.7161056645,
./stim/MorphM2_02_orig.jpg,206,,,,,,,,,0,206,206,206,,,,,,,,,,,,,,,-12.568359375,-3.544921875,1,0,0,1.3895008564,,,,,2015_Aug_27_1142,G,facesParametric,1,59.7161056645,
./stim/MorphF8_05_orig.jpg,207,,,,,,,,,0,207,207,207,,,,,,,,,,,,,,,-12.568359375,-3.544921875,0,0,1,0.735301017761,,,,,2015_Aug_27_1142,G,facesParametric,1,59.7161056645,
./stim/MorphF3_09_orig.jpg,208,,,,,,,,,0,208,208,208,,,,,,,,,,,,,,,-12.568359375,-3.544921875,1,0,0,1.23902702332,,,,,2015_Aug_27_1142,G,facesParametric,1,59.7161056645,
./stim/MorphM5_10_orig.jpg,209,,,,,,,,,0,209,209,209,,,,,,,,,,,,,,,-12.568359375,-3.544921875,0,0,1,1.18837308884,,,,,2015_Aug_27_1142,G,facesParametric,1,59.7161056645,
./stim/MorphM8_08_orig.jpg,210,,,,,,,,,0,210,210,210,,,,,,,,,,,,,,,-12.568359375,-3.544921875,0,0,1,0.95419883728,,,,,2015_Aug_27_1142,G,facesParametric,1,59.7161056645,
./stim/MorphM3_07_orig.jpg,211,,,,,,,,,0,211,211,211,,,,,,,,,,,,,,,-12.5390625,-3.544921875,0,0,1,0.92130613327,,,,,2015_Aug_27_1142,G,facesParametric,1,59.7161056645,
./stim/MorphM5_06_orig.jpg,212,,,,,,,,,0,212,212,212,,,,,,,,,,,,,,,-12.5390625,-3.544921875,1,0,0,0.902683973312,,,,,2015_Aug_27_1142,G,facesParametric,1,59.7161056645,
./stim/MorphF5_09_orig.jpg,213,,,,,,,,,0,213,213,213,,,,,,,,,,,,,,,-12.5390625,-3.544921875,0,0,1,1.32285785675,,,,,2015_Aug_27_1142,G,facesParametric,1,59.7161056645,
./stim/MorphF8_06_orig.jpg,214,,,,,,,,,0,214,214,214,,,,,,,,,,,,,,,-12.509765625,-3.57421875,0,0,1,0.786572217941,,,,,2015_Aug_27_1142,G,facesParametric,1,59.7161056645,
./stim/MorphF5_04_orig.jpg,215,,,,,,,,,0,215,215,215,,,,,,,,,,,,,,,-12.509765625,-3.57421875,1,0,0,1.02101302147,,,,,2015_Aug_27_1142,G,facesParametric,1,59.7161056645,
./stim/MorphM2_04_orig.jpg,216,,,,,,,,,0,216,216,216,,,,,,,,,,,,,,,-12.509765625,-3.57421875,0,0,1,1.0362329483,,,,,2015_Aug_27_1142,G,facesParametric,1,59.7161056645,
./stim/MorphF2_05_orig.jpg,217,,,,,,,,,0,217,217,217,,,,,,,,,,,,,,,-12.509765625,-3.57421875,0,0,1,1.89300084114,,,,,2015_Aug_27_1142,G,facesParametric,1,59.7161056645,
./stim/MorphM7_01_orig.jpg,218,,,,,,,,,0,218,218,218,,,,,,,,,,,,,,,-12.509765625,-3.57421875,1,0,0,1.42305612564,,,,,2015_Aug_27_1142,G,facesParametric,1,59.7161056645,
./stim/MorphF10_09_orig.jpg,219,,,,,,,,,0,219,219,219,,,,,,,,,,,,,,,-12.509765625,-3.57421875,0,0,1,0.68602013588,,,,,2015_Aug_27_1142,G,facesParametric,1,59.7161056645,
,,,,,,,,,,,,,,,,,,,,,,,,,,,,,,,,,,,,return,42.8756210804,2015_Aug_27_1142,G,facesParametric,1,59.7161056645,
