img,num,basicLoop.thisRepN,basicLoop.thisTrialN,basicLoop.thisN,basicLoop.thisIndex,trials.thisRepN,trials.thisTrialN,trials.thisN,trials.thisIndex,trials2.thisRepN,trials2.thisTrialN,trials2.thisN,trials2.thisIndex,key_resp_2.keys,key_resp_2.rt,basicRating1.response,basicRating1.rt,basicRating2.response,basicRating2.rt,basicRating3.response,basicRating3.rt,basicRating4.response,basicRating4.rt,key_resp_3.keys,key_resp_3.rt,key_resp_4.keys,key_resp_4.rt,mouseResp.x,mouseResp.y,mouseResp.leftButton,mouseResp.midButton,mouseResp.rightButton,mouseResp.time,key_resp_5.keys,key_resp_5.rt,date,group,expName,participant,frameRate,
,,,,,,,,,,,,,,return,69.4383211136,,,,,,,,,,,,,,,,,,,,,2015_Oct_24_1213,G,facesParametric,20,59.7296269661,
./basicStim/09F_SP_O.jpg,,0,0,0,40,,,,,,,,,,,None,None,None,None,SUP,4.832,None,None,,,,,,,,,,,,,2015_Oct_24_1213,G,facesParametric,20,59.7296269661,
./basicStim/21M_HA_O.jpg,,0,1,1,45,,,,,,,,,,,HAP,3.555,None,None,None,None,None,None,,,,,,,,,,,,,2015_Oct_24_1213,G,facesParametric,20,59.7296269661,
./basicStim/09F_FE_O.jpg,,0,2,2,37,,,,,,,,,,,None,None,None,None,DIS,2.217,None,None,,,,,,,,,,,,,2015_Oct_24_1213,G,facesParametric,20,59.7296269661,
./basicStim/24M_DI_O.jpg,,0,3,3,57,,,,,,,,,,,None,None,None,None,DIS,6.021,None,None,,,,,,,,,,,,,2015_Oct_24_1213,G,facesParametric,20,59.7296269661,
./basicStim/03F_AN_O.jpg,,0,4,4,14,,,,,,,,,,,None,None,ANG,3.085,None,None,None,None,,,,,,,,,,,,,2015_Oct_24_1213,G,facesParametric,20,59.7296269661,
./basicStim/34M_DI_O.jpg,,0,5,5,71,,,,,,,,,,,None,None,ANG,3.912,None,None,None,None,,,,,,,,,,,,,2015_Oct_24_1213,G,facesParametric,20,59.7296269661,
./basicStim/34M_FE_O.jpg,,0,6,6,72,,,,,,,,,,,None,None,None,None,SUP,2.503,None,None,,,,,,,,,,,,,2015_Oct_24_1213,G,facesParametric,20,59.7296269661,
./basicStim/24M_NE_C.jpg,,0,7,7,62,,,,,,,,,,,None,None,None,None,None,None,NTR,2.28,,,,,,,,,,,,,2015_Oct_24_1213,G,facesParametric,20,59.7296269661,
./basicStim/01F_NE_C.jpg,,0,8,8,6,,,,,,,,,,,None,None,None,None,None,None,NTR,1.547,,,,,,,,,,,,,2015_Oct_24_1213,G,facesParametric,20,59.7296269661,
./basicStim/06F_DI_O.jpg,,0,9,9,22,,,,,,,,,,,None,None,None,None,DIS,2.666,None,None,,,,,,,,,,,,,2015_Oct_24_1213,G,facesParametric,20,59.7296269661,
./basicStim/28M_SA_C.jpg,,0,10,10,67,,,,,,,,,,,SAD,3.792,None,None,None,None,None,None,,,,,,,,,,,,,2015_Oct_24_1213,G,facesParametric,20,59.7296269661,
./basicStim/01F_HA_O.jpg,,0,11,11,3,,,,,,,,,,,HAP,3.275,None,None,None,None,None,None,,,,,,,,,,,,,2015_Oct_24_1213,G,facesParametric,20,59.7296269661,
./basicStim/06F_SP_O.jpg,,0,12,12,26,,,,,,,,,,,None,None,None,None,SUP,3.994,None,None,,,,,,,,,,,,,2015_Oct_24_1213,G,facesParametric,20,59.7296269661,
./basicStim/34M_SP_O.jpg,,0,13,13,75,,,,,,,,,,,None,None,None,None,SUP,1.968,None,None,,,,,,,,,,,,,2015_Oct_24_1213,G,facesParametric,20,59.7296269661,
./basicStim/07F_DI_O.jpg,,0,14,14,29,,,,,,,,,,,None,None,None,None,DIS,5.296,None,None,,,,,,,,,,,,,2015_Oct_24_1213,G,facesParametric,20,59.7296269661,
./basicStim/34M_SA_C.jpg,,0,15,15,74,,,,,,,,,,,SAD,1.332,None,None,None,None,None,None,,,,,,,,,,,,,2015_Oct_24_1213,G,facesParametric,20,59.7296269661,
./basicStim/21M_NE_C.jpg,,0,16,16,48,,,,,,,,,,,SAD,13.128,None,None,None,None,None,None,,,,,,,,,,,,,2015_Oct_24_1213,G,facesParametric,20,59.7296269661,
./basicStim/02F_DI_O.jpg,,0,17,17,8,,,,,,,,,,,None,None,None,None,DIS,6.669,None,None,,,,,,,,,,,,,2015_Oct_24_1213,G,facesParametric,20,59.7296269661,
./basicStim/07F_HA_O.jpg,,0,18,18,31,,,,,,,,,,,HAP,1.414,None,None,None,None,None,None,,,,,,,,,,,,,2015_Oct_24_1213,G,facesParametric,20,59.7296269661,
./basicStim/06F_SA_C.jpg,,0,19,19,25,,,,,,,,,,,None,None,ANG,5.055,None,None,None,None,,,,,,,,,,,,,2015_Oct_24_1213,G,facesParametric,20,59.7296269661,
./basicStim/09F_SA_C.jpg,,0,20,20,39,,,,,,,,,,,None,None,ANG,1.275,None,None,None,None,,,,,,,,,,,,,2015_Oct_24_1213,G,facesParametric,20,59.7296269661,
./basicStim/36M_AN_O.jpg,,0,21,21,77,,,,,,,,,,,None,None,ANG,2.283,None,None,None,None,,,,,,,,,,,,,2015_Oct_24_1213,G,facesParametric,20,59.7296269661,
./basicStim/03F_FE_O.jpg,,0,22,22,16,,,,,,,,,,,None,None,None,None,SUP,4.141,None,None,,,,,,,,,,,,,2015_Oct_24_1213,G,facesParametric,20,59.7296269661,
./basicStim/06F_HA_O.jpg,,0,23,23,24,,,,,,,,,,,HAP,2.017,None,None,None,None,None,None,,,,,,,,,,,,,2015_Oct_24_1213,G,facesParametric,20,59.7296269661,
./basicStim/09F_HA_O.jpg,,0,24,24,38,,,,,,,,,,,HAP,0.917,None,None,None,None,None,None,,,,,,,,,,,,,2015_Oct_24_1213,G,facesParametric,20,59.7296269661,
./basicStim/28M_HA_O.jpg,,0,25,25,66,,,,,,,,,,,HAP,1.361,None,None,None,None,None,None,,,,,,,,,,,,,2015_Oct_24_1213,G,facesParametric,20,59.7296269661,
./basicStim/36M_NE_C.jpg,,0,26,26,83,,,,,,,,,,,None,None,None,None,None,None,NTR,1.222,,,,,,,,,,,,,2015_Oct_24_1213,G,facesParametric,20,59.7296269661,
./basicStim/01F_SA_C.jpg,,0,27,27,4,,,,,,,,,,,SAD,2.853,None,None,None,None,None,None,,,,,,,,,,,,,2015_Oct_24_1213,G,facesParametric,20,59.7296269661,
./basicStim/36M_FE_O.jpg,,0,28,28,79,,,,,,,,,,,None,None,FEA,4.032,None,None,None,None,,,,,,,,,,,,,2015_Oct_24_1213,G,facesParametric,20,59.7296269661,
./basicStim/02F_NE_C.jpg,,0,29,29,13,,,,,,,,,,,None,None,None,None,None,None,NTR,2.869,,,,,,,,,,,,,2015_Oct_24_1213,G,facesParametric,20,59.7296269661,
./basicStim/03F_NE_C.jpg,,0,30,30,20,,,,,,,,,,,None,None,None,None,None,None,NTR,1.593,,,,,,,,,,,,,2015_Oct_24_1213,G,facesParametric,20,59.7296269661,
./basicStim/28M_FE_O.jpg,,0,31,31,65,,,,,,,,,,,None,None,None,None,DIS,3.836,None,None,,,,,,,,,,,,,2015_Oct_24_1213,G,facesParametric,20,59.7296269661,
./basicStim/21M_AN_O.jpg,,0,32,32,42,,,,,,,,,,,None,None,ANG,2.458,None,None,None,None,,,,,,,,,,,,,2015_Oct_24_1213,G,facesParametric,20,59.7296269661,
./basicStim/36M_DI_O.jpg,,0,33,33,78,,,,,,,,,,,None,None,None,None,DIS,4.727,None,None,,,,,,,,,,,,,2015_Oct_24_1213,G,facesParametric,20,59.7296269661,
./basicStim/07F_NE_C.jpg,,0,34,34,34,,,,,,,,,,,None,None,None,None,None,None,NTR,2.685,,,,,,,,,,,,,2015_Oct_24_1213,G,facesParametric,20,59.7296269661,
./basicStim/01F_SP_O.jpg,,0,35,35,5,,,,,,,,,,,None,None,None,None,SUP,1.965,None,None,,,,,,,,,,,,,2015_Oct_24_1213,G,facesParametric,20,59.7296269661,
./basicStim/03F_SA_C.jpg,,0,36,36,18,,,,,,,,,,,SAD,2.956,None,None,None,None,None,None,,,,,,,,,,,,,2015_Oct_24_1213,G,facesParametric,20,59.7296269661,
./basicStim/24M_SA_C.jpg,,0,37,37,60,,,,,,,,,,,SAD,3.415,None,None,None,None,None,None,,,,,,,,,,,,,2015_Oct_24_1213,G,facesParametric,20,59.7296269661,
./basicStim/03F_SP_O.jpg,,0,38,38,19,,,,,,,,,,,HAP,1.565,None,None,None,None,None,None,,,,,,,,,,,,,2015_Oct_24_1213,G,facesParametric,20,59.7296269661,
./basicStim/07F_SP_O.jpg,,0,39,39,33,,,,,,,,,,,None,None,None,None,SUP,4.679,None,None,,,,,,,,,,,,,2015_Oct_24_1213,G,facesParametric,20,59.7296269661,
./basicStim/21M_FE_O.jpg,,0,40,40,44,,,,,,,,,,,None,None,FEA,2.696,None,None,None,None,,,,,,,,,,,,,2015_Oct_24_1213,G,facesParametric,20,59.7296269661,
./basicStim/23M_DI_O.jpg,,0,41,41,50,,,,,,,,,,,None,None,None,None,DIS,3.564,None,None,,,,,,,,,,,,,2015_Oct_24_1213,G,facesParametric,20,59.7296269661,
./basicStim/24M_AN_O.jpg,,0,42,42,56,,,,,,,,,,,None,None,ANG,1.218,None,None,None,None,,,,,,,,,,,,,2015_Oct_24_1213,G,facesParametric,20,59.7296269661,
./basicStim/24M_HA_O.jpg,,0,43,43,59,,,,,,,,,,,HAP,1.83,None,None,None,None,None,None,,,,,,,,,,,,,2015_Oct_24_1213,G,facesParametric,20,59.7296269661,
./basicStim/21M_SA_C.jpg,,0,44,44,46,,,,,,,,,,,None,None,None,None,DIS,4.255,None,None,,,,,,,,,,,,,2015_Oct_24_1213,G,facesParametric,20,59.7296269661,
./basicStim/02F_FE_O.jpg,,0,45,45,9,,,,,,,,,,,None,None,None,None,DIS,1.095,None,None,,,,,,,,,,,,,2015_Oct_24_1213,G,facesParametric,20,59.7296269661,
./basicStim/21M_DI_O.jpg,,0,46,46,43,,,,,,,,,,,None,None,None,None,DIS,2.348,None,None,,,,,,,,,,,,,2015_Oct_24_1213,G,facesParametric,20,59.7296269661,
./basicStim/06F_FE_O.jpg,,0,47,47,23,,,,,,,,,,,None,None,FEA,1.681,None,None,None,None,,,,,,,,,,,,,2015_Oct_24_1213,G,facesParametric,20,59.7296269661,
./basicStim/06F_AN_O.jpg,,0,48,48,21,,,,,,,,,,,None,None,ANG,2.604,None,None,None,None,,,,,,,,,,,,,2015_Oct_24_1213,G,facesParametric,20,59.7296269661,
./basicStim/01F_FE_O.jpg,,0,49,49,2,,,,,,,,,,,None,None,FEA,7.796,None,None,None,None,,,,,,,,,,,,,2015_Oct_24_1213,G,facesParametric,20,59.7296269661,
./basicStim/09F_DI_O.jpg,,0,50,50,36,,,,,,,,,,,None,None,None,None,DIS,1.913,None,None,,,,,,,,,,,,,2015_Oct_24_1213,G,facesParametric,20,59.7296269661,
./basicStim/23M_SA_C.jpg,,0,51,51,53,,,,,,,,,,,None,None,None,None,DIS,2.667,None,None,,,,,,,,,,,,,2015_Oct_24_1213,G,facesParametric,20,59.7296269661,
./basicStim/28M_AN_O.jpg,,0,52,52,63,,,,,,,,,,,None,None,FEA,6.345,None,None,None,None,,,,,,,,,,,,,2015_Oct_24_1213,G,facesParametric,20,59.7296269661,
./basicStim/03F_HA_O.jpg,,0,53,53,17,,,,,,,,,,,HAP,2.537,None,None,None,None,None,None,,,,,,,,,,,,,2015_Oct_24_1213,G,facesParametric,20,59.7296269661,
./basicStim/09F_NE_C.jpg,,0,54,54,41,,,,,,,,,,,None,None,None,None,None,None,NTR,3.167,,,,,,,,,,,,,2015_Oct_24_1213,G,facesParametric,20,59.7296269661,
./basicStim/36M_SP_O.jpg,,0,55,55,82,,,,,,,,,,,None,None,None,None,SUP,1.676,None,None,,,,,,,,,,,,,2015_Oct_24_1213,G,facesParametric,20,59.7296269661,
./basicStim/24M_FE_O.jpg,,0,56,56,58,,,,,,,,,,,SAD,4.415,None,None,None,None,None,None,,,,,,,,,,,,,2015_Oct_24_1213,G,facesParametric,20,59.7296269661,
./basicStim/01F_AN_O.jpg,,0,57,57,0,,,,,,,,,,,None,None,ANG,1.378,None,None,None,None,,,,,,,,,,,,,2015_Oct_24_1213,G,facesParametric,20,59.7296269661,
./basicStim/28M_NE_C.jpg,,0,58,58,69,,,,,,,,,,,None,None,None,None,None,None,NTR,3.419,,,,,,,,,,,,,2015_Oct_24_1213,G,facesParametric,20,59.7296269661,
./basicStim/24M_SP_O.jpg,,0,59,59,61,,,,,,,,,,,None,None,None,None,SUP,2.459,None,None,,,,,,,,,,,,,2015_Oct_24_1213,G,facesParametric,20,59.7296269661,
./basicStim/36M_HA_O.jpg,,0,60,60,80,,,,,,,,,,,HAP,2.103,None,None,None,None,None,None,,,,,,,,,,,,,2015_Oct_24_1213,G,facesParametric,20,59.7296269661,
./basicStim/23M_HA_O.jpg,,0,61,61,52,,,,,,,,,,,HAP,0.859,None,None,None,None,None,None,,,,,,,,,,,,,2015_Oct_24_1213,G,facesParametric,20,59.7296269661,
./basicStim/34M_NE_C.jpg,,0,62,62,76,,,,,,,,,,,None,None,None,None,None,None,NTR,1.148,,,,,,,,,,,,,2015_Oct_24_1213,G,facesParametric,20,59.7296269661,
./basicStim/01F_DI_O.jpg,,0,63,63,1,,,,,,,,,,,None,None,None,None,DIS,2.231,None,None,,,,,,,,,,,,,2015_Oct_24_1213,G,facesParametric,20,59.7296269661,
./basicStim/07F_FE_O.jpg,,0,64,64,30,,,,,,,,,,,None,None,None,None,DIS,1.559,None,None,,,,,,,,,,,,,2015_Oct_24_1213,G,facesParametric,20,59.7296269661,
./basicStim/23M_NE_C.jpg,,0,65,65,55,,,,,,,,,,,None,None,None,None,None,None,NTR,2.048,,,,,,,,,,,,,2015_Oct_24_1213,G,facesParametric,20,59.7296269661,
./basicStim/23M_SP_O.jpg,,0,66,66,54,,,,,,,,,,,None,None,None,None,SUP,1.378,None,None,,,,,,,,,,,,,2015_Oct_24_1213,G,facesParametric,20,59.7296269661,
./basicStim/21M_SP_O.jpg,,0,67,67,47,,,,,,,,,,,None,None,None,None,SUP,4.307,None,None,,,,,,,,,,,,,2015_Oct_24_1213,G,facesParametric,20,59.7296269661,
./basicStim/02F_SP_O.jpg,,0,68,68,12,,,,,,,,,,,None,None,None,None,SUP,1.21,None,None,,,,,,,,,,,,,2015_Oct_24_1213,G,facesParametric,20,59.7296269661,
./basicStim/02F_AN_O.jpg,,0,69,69,7,,,,,,,,,,,None,None,ANG,1.396,None,None,None,None,,,,,,,,,,,,,2015_Oct_24_1213,G,facesParametric,20,59.7296269661,
./basicStim/34M_AN_O.jpg,,0,70,70,70,,,,,,,,,,,None,None,ANG,0.944,None,None,None,None,,,,,,,,,,,,,2015_Oct_24_1213,G,facesParametric,20,59.7296269661,
./basicStim/09F_AN_O.jpg,,0,71,71,35,,,,,,,,,,,None,None,ANG,0.71,None,None,None,None,,,,,,,,,,,,,2015_Oct_24_1213,G,facesParametric,20,59.7296269661,
./basicStim/36M_SA_C.jpg,,0,72,72,81,,,,,,,,,,,SAD,1.967,None,None,None,None,None,None,,,,,,,,,,,,,2015_Oct_24_1213,G,facesParametric,20,59.7296269661,
./basicStim/23M_AN_O.jpg,,0,73,73,49,,,,,,,,,,,None,None,ANG,5.748,None,None,None,None,,,,,,,,,,,,,2015_Oct_24_1213,G,facesParametric,20,59.7296269661,
./basicStim/28M_DI_O.jpg,,0,74,74,64,,,,,,,,,,,None,None,None,None,DIS,1.924,None,None,,,,,,,,,,,,,2015_Oct_24_1213,G,facesParametric,20,59.7296269661,
./basicStim/23M_FE_O.jpg,,0,75,75,51,,,,,,,,,,,SAD,4.546,None,None,None,None,None,None,,,,,,,,,,,,,2015_Oct_24_1213,G,facesParametric,20,59.7296269661,
./basicStim/06F_NE_C.jpg,,0,76,76,27,,,,,,,,,,,None,None,None,None,None,None,NTR,2.495,,,,,,,,,,,,,2015_Oct_24_1213,G,facesParametric,20,59.7296269661,
./basicStim/03F_DI_O.jpg,,0,77,77,15,,,,,,,,,,,None,None,None,None,DIS,2.215,None,None,,,,,,,,,,,,,2015_Oct_24_1213,G,facesParametric,20,59.7296269661,
./basicStim/34M_HA_O.jpg,,0,78,78,73,,,,,,,,,,,HAP,3.307,None,None,None,None,None,None,,,,,,,,,,,,,2015_Oct_24_1213,G,facesParametric,20,59.7296269661,
./basicStim/07F_SA_C.jpg,,0,79,79,32,,,,,,,,,,,SAD,1.277,None,None,None,None,None,None,,,,,,,,,,,,,2015_Oct_24_1213,G,facesParametric,20,59.7296269661,
./basicStim/28M_SP_O.jpg,,0,80,80,68,,,,,,,,,,,None,None,None,None,SUP,1.713,None,None,,,,,,,,,,,,,2015_Oct_24_1213,G,facesParametric,20,59.7296269661,
./basicStim/07F_AN_O.jpg,,0,81,81,28,,,,,,,,,,,None,None,ANG,2.214,None,None,None,None,,,,,,,,,,,,,2015_Oct_24_1213,G,facesParametric,20,59.7296269661,
./basicStim/02F_HA_O.jpg,,0,82,82,10,,,,,,,,,,,HAP,3.828,None,None,None,None,None,None,,,,,,,,,,,,,2015_Oct_24_1213,G,facesParametric,20,59.7296269661,
./basicStim/02F_SA_C.jpg,,0,83,83,11,,,,,,,,,,,SAD,0.93,None,None,None,None,None,None,,,,,,,,,,,,,2015_Oct_24_1213,G,facesParametric,20,59.7296269661,
,,,,,,,,,,,,,,,,,,,,,,,,return,5.63194298744,,,,,,,,,,,2015_Oct_24_1213,G,facesParametric,20,59.7296269661,
,,,,,,,,,,,,,,return,52.8934550285,,,,,,,,,,,,,,,,,,,,,2015_Oct_24_1213,G,facesParametric,20,59.7296269661,
,,,,,,,,,,,,,,,,,,,,,,,,return,49.8598411083,,,,,,,,,,,2015_Oct_24_1213,G,facesParametric,20,59.7296269661,
,,,,,,,,,,,,,,,,,,,,,,,,,,return,4.00517582893,,,,,,,,,2015_Oct_24_1213,G,facesParametric,20,59.7296269661,
./stim/MorphM10_06_orig.jpg,0,,,,,0,0,0,0,,,,,,,,,,,,,,,,,,,5.56640625,8.291015625,0,0,1,3.08272385597,,,2015_Oct_24_1213,G,facesParametric,20,59.7296269661,
./stim/MorphF8_10_orig.jpg,1,,,,,0,1,1,1,,,,,,,,,,,,,,,,,,,5.625,8.203125,0,0,1,1.63728308678,,,2015_Oct_24_1213,G,facesParametric,20,59.7296269661,
./stim/MorphF7_05_orig.jpg,2,,,,,0,2,2,2,,,,,,,,,,,,,,,,,,,5.654296875,8.203125,0,0,1,1.13845801353,,,2015_Oct_24_1213,G,facesParametric,20,59.7296269661,
./stim/MorphM5_10_orig.jpg,3,,,,,0,3,3,3,,,,,,,,,,,,,,,,,,,5.712890625,8.14453125,1,0,0,1.74140000343,,,2015_Oct_24_1213,G,facesParametric,20,59.7296269661,
./stim/MorphF4_07_orig.jpg,4,,,,,0,4,4,4,,,,,,,,,,,,,,,,,,,5.68359375,8.0859375,1,0,0,2.00844287872,,,2015_Oct_24_1213,G,facesParametric,20,59.7296269661,
./stim/MorphF6_05_orig.jpg,5,,,,,0,5,5,5,,,,,,,,,,,,,,,,,,,5.68359375,8.0859375,1,0,0,1.53851604462,,,2015_Oct_24_1213,G,facesParametric,20,59.7296269661,
./stim/MorphF8_09_orig.jpg,6,,,,,0,6,6,6,,,,,,,,,,,,,,,,,,,5.68359375,8.0859375,0,0,1,1.90935301781,,,2015_Oct_24_1213,G,facesParametric,20,59.7296269661,
./stim/MorphF7_08_orig.jpg,7,,,,,0,7,7,7,,,,,,,,,,,,,,,,,,,5.654296875,8.056640625,0,0,1,1.53832006454,,,2015_Oct_24_1213,G,facesParametric,20,59.7296269661,
./stim/MorphF8_06_orig.jpg,8,,,,,0,8,8,8,,,,,,,,,,,,,,,,,,,5.595703125,8.056640625,0,0,1,1.65811800957,,,2015_Oct_24_1213,G,facesParametric,20,59.7296269661,
./stim/MorphM7_04_orig.jpg,9,,,,,0,9,9,9,,,,,,,,,,,,,,,,,,,5.625,8.02734375,0,0,1,2.57986998558,,,2015_Oct_24_1213,G,facesParametric,20,59.7296269661,
./stim/MorphM9_05_orig.jpg,10,,,,,0,10,10,10,,,,,,,,,,,,,,,,,,,5.68359375,8.02734375,0,0,1,4.77531909943,,,2015_Oct_24_1213,G,facesParametric,20,59.7296269661,
./stim/MorphM2_06_orig.jpg,11,,,,,0,11,11,11,,,,,,,,,,,,,,,,,,,5.68359375,8.02734375,1,0,0,1.50794196129,,,2015_Oct_24_1213,G,facesParametric,20,59.7296269661,
./stim/MorphF5_07_orig.jpg,12,,,,,0,12,12,12,,,,,,,,,,,,,,,,,,,5.625,8.0859375,1,0,0,4.84056186676,,,2015_Oct_24_1213,G,facesParametric,20,59.7296269661,
./stim/MorphM9_01_orig.jpg,13,,,,,0,13,13,13,,,,,,,,,,,,,,,,,,,5.625,8.0859375,0,0,1,1.54063487053,,,2015_Oct_24_1213,G,facesParametric,20,59.7296269661,
./stim/MorphM6_03_orig.jpg,14,,,,,0,14,14,14,,,,,,,,,,,,,,,,,,,5.595703125,8.115234375,0,0,1,2.3618710041,,,2015_Oct_24_1213,G,facesParametric,20,59.7296269661,
./stim/MorphM3_10_orig.jpg,15,,,,,0,15,15,15,,,,,,,,,,,,,,,,,,,5.595703125,8.14453125,1,0,0,3.19865489006,,,2015_Oct_24_1213,G,facesParametric,20,59.7296269661,
./stim/MorphF6_09_orig.jpg,16,,,,,0,16,16,16,,,,,,,,,,,,,,,,,,,5.595703125,8.14453125,1,0,0,2.17769598961,,,2015_Oct_24_1213,G,facesParametric,20,59.7296269661,
./stim/MorphM4_09_orig.jpg,17,,,,,0,17,17,17,,,,,,,,,,,,,,,,,,,5.595703125,8.173828125,1,0,0,1.80760002136,,,2015_Oct_24_1213,G,facesParametric,20,59.7296269661,
./stim/MorphM7_07_orig.jpg,18,,,,,0,18,18,18,,,,,,,,,,,,,,,,,,,5.595703125,8.203125,1,0,0,1.94321489334,,,2015_Oct_24_1213,G,facesParametric,20,59.7296269661,
./stim/MorphF4_08_orig.jpg,19,,,,,0,19,19,19,,,,,,,,,,,,,,,,,,,5.595703125,8.232421875,1,0,0,1.55753087997,,,2015_Oct_24_1213,G,facesParametric,20,59.7296269661,
./stim/MorphF6_10_orig.jpg,20,,,,,0,20,20,20,,,,,,,,,,,,,,,,,,,5.595703125,8.232421875,1,0,0,2.0582010746,,,2015_Oct_24_1213,G,facesParametric,20,59.7296269661,
./stim/MorphF5_10_orig.jpg,21,,,,,0,21,21,21,,,,,,,,,,,,,,,,,,,5.625,8.26171875,1,0,0,6.28352022171,,,2015_Oct_24_1213,G,facesParametric,20,59.7296269661,
./stim/MorphF6_06_orig.jpg,22,,,,,0,22,22,22,,,,,,,,,,,,,,,,,,,5.625,8.26171875,0,0,1,4.28937196732,,,2015_Oct_24_1213,G,facesParametric,20,59.7296269661,
./stim/MorphF5_05_orig.jpg,23,,,,,0,23,23,23,,,,,,,,,,,,,,,,,,,5.654296875,8.232421875,0,0,1,4.2386469841,,,2015_Oct_24_1213,G,facesParametric,20,59.7296269661,
./stim/MorphM7_03_orig.jpg,24,,,,,0,24,24,24,,,,,,,,,,,,,,,,,,,5.68359375,8.203125,0,0,1,4.55738806725,,,2015_Oct_24_1213,G,facesParametric,20,59.7296269661,
./stim/MorphM6_06_orig.jpg,25,,,,,0,25,25,25,,,,,,,,,,,,,,,,,,,5.712890625,8.232421875,0,0,1,2.66179013252,,,2015_Oct_24_1213,G,facesParametric,20,59.7296269661,
./stim/MorphM9_09_orig.jpg,26,,,,,0,26,26,26,,,,,,,,,,,,,,,,,,,5.712890625,8.232421875,1,0,0,4.82587099075,,,2015_Oct_24_1213,G,facesParametric,20,59.7296269661,
./stim/MorphF1_01_orig.jpg,27,,,,,0,27,27,27,,,,,,,,,,,,,,,,,,,5.712890625,8.232421875,0,0,1,1.70676207542,,,2015_Oct_24_1213,G,facesParametric,20,59.7296269661,
./stim/MorphM5_03_orig.jpg,28,,,,,0,28,28,28,,,,,,,,,,,,,,,,,,,5.654296875,8.26171875,1,0,0,3.51822710037,,,2015_Oct_24_1213,G,facesParametric,20,59.7296269661,
./stim/MorphF9_04_orig.jpg,29,,,,,0,29,29,29,,,,,,,,,,,,,,,,,,,5.654296875,8.26171875,0,0,1,2.64724111557,,,2015_Oct_24_1213,G,facesParametric,20,59.7296269661,
./stim/MorphM10_05_orig.jpg,30,,,,,0,30,30,30,,,,,,,,,,,,,,,,,,,5.625,8.291015625,0,0,1,1.25541400909,,,2015_Oct_24_1213,G,facesParametric,20,59.7296269661,
./stim/MorphF8_02_orig.jpg,31,,,,,0,31,31,31,,,,,,,,,,,,,,,,,,,5.625,8.26171875,0,0,1,1.49031305313,,,2015_Oct_24_1213,G,facesParametric,20,59.7296269661,
./stim/MorphM3_07_orig.jpg,32,,,,,0,32,32,32,,,,,,,,,,,,,,,,,,,5.595703125,8.291015625,1,0,0,1.74156999588,,,2015_Oct_24_1213,G,facesParametric,20,59.7296269661,
./stim/MorphM7_06_orig.jpg,33,,,,,0,33,33,33,,,,,,,,,,,,,,,,,,,5.595703125,8.291015625,1,0,0,2.1592400074,,,2015_Oct_24_1213,G,facesParametric,20,59.7296269661,
./stim/MorphM9_08_orig.jpg,34,,,,,0,34,34,34,,,,,,,,,,,,,,,,,,,5.595703125,8.291015625,0,0,1,3.95383310318,,,2015_Oct_24_1213,G,facesParametric,20,59.7296269661,
./stim/MorphM7_08_orig.jpg,35,,,,,0,35,35,35,,,,,,,,,,,,,,,,,,,5.595703125,8.291015625,1,0,0,2.11051702499,,,2015_Oct_24_1213,G,facesParametric,20,59.7296269661,
./stim/MorphM9_10_orig.jpg,36,,,,,0,36,36,36,,,,,,,,,,,,,,,,,,,5.537109375,8.3203125,1,0,0,5.14369702339,,,2015_Oct_24_1213,G,facesParametric,20,59.7296269661,
./stim/MorphF7_01_orig.jpg,37,,,,,0,37,37,37,,,,,,,,,,,,,,,,,,,5.537109375,8.291015625,0,0,1,1.22249221802,,,2015_Oct_24_1213,G,facesParametric,20,59.7296269661,
./stim/MorphM2_10_orig.jpg,38,,,,,0,38,38,38,,,,,,,,,,,,,,,,,,,5.537109375,8.26171875,1,0,0,4.90958189964,,,2015_Oct_24_1213,G,facesParametric,20,59.7296269661,
./stim/MorphF6_08_orig.jpg,39,,,,,0,39,39,39,,,,,,,,,,,,,,,,,,,5.595703125,8.173828125,1,0,0,1.23901104927,,,2015_Oct_24_1213,G,facesParametric,20,59.7296269661,
./stim/MorphF3_01_orig.jpg,40,,,,,0,40,40,40,,,,,,,,,,,,,,,,,,,5.595703125,8.203125,0,0,1,1.59021496773,,,2015_Oct_24_1213,G,facesParametric,20,59.7296269661,
./stim/MorphF2_06_orig.jpg,41,,,,,0,41,41,41,,,,,,,,,,,,,,,,,,,5.595703125,8.203125,0,0,1,2.41226196289,,,2015_Oct_24_1213,G,facesParametric,20,59.7296269661,
./stim/MorphM2_05_orig.jpg,42,,,,,0,42,42,42,,,,,,,,,,,,,,,,,,,5.625,8.173828125,0,0,1,5.19389915466,,,2015_Oct_24_1213,G,facesParametric,20,59.7296269661,
./stim/MorphF1_02_orig.jpg,43,,,,,0,43,43,43,,,,,,,,,,,,,,,,,,,5.595703125,8.203125,0,0,1,4.9430770874,,,2015_Oct_24_1213,G,facesParametric,20,59.7296269661,
./stim/MorphM8_00_orig.jpg,44,,,,,0,44,44,44,,,,,,,,,,,,,,,,,,,5.595703125,8.203125,0,0,1,6.56844902039,,,2015_Oct_24_1213,G,facesParametric,20,59.7296269661,
./stim/MorphF5_00_orig.jpg,45,,,,,0,45,45,45,,,,,,,,,,,,,,,,,,,5.595703125,8.203125,0,0,1,1.9421479702,,,2015_Oct_24_1213,G,facesParametric,20,59.7296269661,
./stim/MorphF1_07_orig.jpg,46,,,,,0,46,46,46,,,,,,,,,,,,,,,,,,,5.595703125,8.203125,1,0,0,3.85292410851,,,2015_Oct_24_1213,G,facesParametric,20,59.7296269661,
./stim/MorphF5_08_orig.jpg,47,,,,,0,47,47,47,,,,,,,,,,,,,,,,,,,5.595703125,8.232421875,1,0,0,1.70816802979,,,2015_Oct_24_1213,G,facesParametric,20,59.7296269661,
./stim/MorphF8_04_orig.jpg,48,,,,,0,48,48,48,,,,,,,,,,,,,,,,,,,5.625,8.26171875,0,0,1,1.50575494766,,,2015_Oct_24_1213,G,facesParametric,20,59.7296269661,
./stim/MorphM9_03_orig.jpg,49,,,,,0,49,49,49,,,,,,,,,,,,,,,,,,,5.625,8.26171875,0,0,1,1.53889799118,,,2015_Oct_24_1213,G,facesParametric,20,59.7296269661,
./stim/MorphM4_06_orig.jpg,50,,,,,0,50,50,50,,,,,,,,,,,,,,,,,,,5.625,8.26171875,1,0,0,4.01980185509,,,2015_Oct_24_1213,G,facesParametric,20,59.7296269661,
./stim/MorphF2_05_orig.jpg,51,,,,,0,51,51,51,,,,,,,,,,,,,,,,,,,5.625,8.26171875,0,0,1,1.79285812378,,,2015_Oct_24_1213,G,facesParametric,20,59.7296269661,
./stim/MorphF8_03_orig.jpg,52,,,,,0,52,52,52,,,,,,,,,,,,,,,,,,,5.595703125,8.232421875,0,0,1,3.40005612373,,,2015_Oct_24_1213,G,facesParametric,20,59.7296269661,
./stim/MorphM10_00_orig.jpg,53,,,,,0,53,53,53,,,,,,,,,,,,,,,,,,,5.595703125,8.232421875,0,0,1,0.78443479538,,,2015_Oct_24_1213,G,facesParametric,20,59.7296269661,
./stim/MorphM5_01_orig.jpg,54,,,,,0,54,54,54,,,,,,,,,,,,,,,,,,,5.595703125,8.232421875,0,0,1,4.79089403152,,,2015_Oct_24_1213,G,facesParametric,20,59.7296269661,
./stim/MorphM1_03_orig.jpg,55,,,,,0,55,55,55,,,,,,,,,,,,,,,,,,,5.654296875,8.291015625,0,0,1,1.50694584846,,,2015_Oct_24_1213,G,facesParametric,20,59.7296269661,
./stim/MorphF1_04_orig.jpg,56,,,,,0,56,56,56,,,,,,,,,,,,,,,,,,,5.625,8.203125,0,0,1,2.98170685768,,,2015_Oct_24_1213,G,facesParametric,20,59.7296269661,
./stim/MorphF3_02_orig.jpg,57,,,,,0,57,57,57,,,,,,,,,,,,,,,,,,,5.625,8.203125,0,0,1,0.987629175186,,,2015_Oct_24_1213,G,facesParametric,20,59.7296269661,
./stim/MorphF7_04_orig.jpg,58,,,,,0,58,58,58,,,,,,,,,,,,,,,,,,,5.625,8.203125,0,0,1,1.99308991432,,,2015_Oct_24_1213,G,facesParametric,20,59.7296269661,
./stim/MorphF1_05_orig.jpg,59,,,,,0,59,59,59,,,,,,,,,,,,,,,,,,,5.625,8.203125,0,0,1,0.818807125092,,,2015_Oct_24_1213,G,facesParametric,20,59.7296269661,
./stim/MorphF3_10_orig.jpg,60,,,,,0,60,60,60,,,,,,,,,,,,,,,,,,,5.654296875,8.232421875,1,0,0,1.64094495773,,,2015_Oct_24_1213,G,facesParametric,20,59.7296269661,
./stim/MorphF4_00_orig.jpg,61,,,,,0,61,61,61,,,,,,,,,,,,,,,,,,,5.68359375,8.26171875,0,0,1,1.9757270813,,,2015_Oct_24_1213,G,facesParametric,20,59.7296269661,
./stim/MorphF9_10_orig.jpg,62,,,,,0,62,62,62,,,,,,,,,,,,,,,,,,,5.68359375,8.26171875,1,0,0,1.92653894424,,,2015_Oct_24_1213,G,facesParametric,20,59.7296269661,
./stim/MorphM8_04_orig.jpg,63,,,,,0,63,63,63,,,,,,,,,,,,,,,,,,,5.654296875,8.291015625,1,0,0,2.39312505722,,,2015_Oct_24_1213,G,facesParametric,20,59.7296269661,
./stim/MorphM4_07_orig.jpg,64,,,,,0,64,64,64,,,,,,,,,,,,,,,,,,,5.654296875,8.291015625,1,0,0,4.52410411835,,,2015_Oct_24_1213,G,facesParametric,20,59.7296269661,
./stim/MorphF10_00_orig.jpg,65,,,,,0,65,65,65,,,,,,,,,,,,,,,,,,,5.654296875,8.26171875,0,0,1,1.13885593414,,,2015_Oct_24_1213,G,facesParametric,20,59.7296269661,
./stim/MorphF5_06_orig.jpg,66,,,,,0,66,66,66,,,,,,,,,,,,,,,,,,,5.625,8.291015625,1,0,0,1.9588599205,,,2015_Oct_24_1213,G,facesParametric,20,59.7296269661,
./stim/MorphF3_05_orig.jpg,67,,,,,0,67,67,67,,,,,,,,,,,,,,,,,,,5.625,8.291015625,0,0,1,3.28373408318,,,2015_Oct_24_1213,G,facesParametric,20,59.7296269661,
./stim/MorphM6_08_orig.jpg,68,,,,,0,68,68,68,,,,,,,,,,,,,,,,,,,5.654296875,8.26171875,1,0,0,3.09823513031,,,2015_Oct_24_1213,G,facesParametric,20,59.7296269661,
./stim/MorphM9_02_orig.jpg,69,,,,,0,69,69,69,,,,,,,,,,,,,,,,,,,5.68359375,8.26171875,0,0,1,5.87926197052,,,2015_Oct_24_1213,G,facesParametric,20,59.7296269661,
./stim/MorphF9_09_orig.jpg,70,,,,,0,70,70,70,,,,,,,,,,,,,,,,,,,5.771484375,8.291015625,1,0,0,1.60796499252,,,2015_Oct_24_1213,G,facesParametric,20,59.7296269661,
./stim/MorphF1_09_orig.jpg,71,,,,,0,71,71,71,,,,,,,,,,,,,,,,,,,5.830078125,8.291015625,1,0,0,1.82420897484,,,2015_Oct_24_1213,G,facesParametric,20,59.7296269661,
./stim/MorphF8_07_orig.jpg,72,,,,,0,72,72,72,,,,,,,,,,,,,,,,,,,5.830078125,8.291015625,0,0,1,1.74201703072,,,2015_Oct_24_1213,G,facesParametric,20,59.7296269661,
./stim/MorphM3_05_orig.jpg,73,,,,,0,73,73,73,,,,,,,,,,,,,,,,,,,5.80078125,8.26171875,1,0,0,4.07112193108,,,2015_Oct_24_1213,G,facesParametric,20,59.7296269661,
./stim/MorphF10_01_orig.jpg,74,,,,,0,74,74,74,,,,,,,,,,,,,,,,,,,5.859375,8.232421875,0,0,1,3.13264107704,,,2015_Oct_24_1213,G,facesParametric,20,59.7296269661,
./stim/MorphM9_04_orig.jpg,75,,,,,0,75,75,75,,,,,,,,,,,,,,,,,,,5.859375,8.232421875,0,0,1,1.80719804764,,,2015_Oct_24_1213,G,facesParametric,20,59.7296269661,
./stim/MorphM10_01_orig.jpg,76,,,,,0,76,76,76,,,,,,,,,,,,,,,,,,,5.859375,8.232421875,0,0,1,3.08288002014,,,2015_Oct_24_1213,G,facesParametric,20,59.7296269661,
./stim/MorphF8_01_orig.jpg,77,,,,,0,77,77,77,,,,,,,,,,,,,,,,,,,5.859375,8.232421875,0,0,1,1.10482788086,,,2015_Oct_24_1213,G,facesParametric,20,59.7296269661,
./stim/MorphM1_07_orig.jpg,78,,,,,0,78,78,78,,,,,,,,,,,,,,,,,,,5.859375,8.232421875,0,0,1,3.51576399803,,,2015_Oct_24_1213,G,facesParametric,20,59.7296269661,
./stim/MorphF10_06_orig.jpg,79,,,,,0,79,79,79,,,,,,,,,,,,,,,,,,,5.859375,8.232421875,0,0,1,1.12033414841,,,2015_Oct_24_1213,G,facesParametric,20,59.7296269661,
./stim/MorphF7_00_orig.jpg,80,,,,,0,80,80,80,,,,,,,,,,,,,,,,,,,5.888671875,8.203125,0,0,1,1.03796601295,,,2015_Oct_24_1213,G,facesParametric,20,59.7296269661,
./stim/MorphM5_07_orig.jpg,81,,,,,0,81,81,81,,,,,,,,,,,,,,,,,,,5.888671875,8.203125,1,0,0,1.54018592834,,,2015_Oct_24_1213,G,facesParametric,20,59.7296269661,
./stim/MorphM4_03_orig.jpg,82,,,,,0,82,82,82,,,,,,,,,,,,,,,,,,,5.91796875,8.173828125,1,0,0,3.95375800133,,,2015_Oct_24_1213,G,facesParametric,20,59.7296269661,
./stim/MorphF6_02_orig.jpg,83,,,,,0,83,83,83,,,,,,,,,,,,,,,,,,,5.91796875,8.14453125,0,0,1,1.03738498688,,,2015_Oct_24_1213,G,facesParametric,20,59.7296269661,
./stim/MorphM10_07_orig.jpg,84,,,,,0,84,84,84,,,,,,,,,,,,,,,,,,,5.859375,8.0859375,1,0,0,1.5569961071,,,2015_Oct_24_1213,G,facesParametric,20,59.7296269661,
./stim/MorphF9_08_orig.jpg,85,,,,,0,85,85,85,,,,,,,,,,,,,,,,,,,5.859375,8.0859375,1,0,0,4.54098200798,,,2015_Oct_24_1213,G,facesParametric,20,59.7296269661,
./stim/MorphF7_06_orig.jpg,86,,,,,0,86,86,86,,,,,,,,,,,,,,,,,,,5.830078125,8.056640625,0,0,1,2.44573092461,,,2015_Oct_24_1213,G,facesParametric,20,59.7296269661,
./stim/MorphF10_02_orig.jpg,87,,,,,0,87,87,87,,,,,,,,,,,,,,,,,,,5.830078125,8.02734375,0,0,1,1.13822484016,,,2015_Oct_24_1213,G,facesParametric,20,59.7296269661,
./stim/MorphM10_09_orig.jpg,88,,,,,0,88,88,88,,,,,,,,,,,,,,,,,,,5.830078125,8.02734375,1,0,0,1.37335276604,,,2015_Oct_24_1213,G,facesParametric,20,59.7296269661,
./stim/MorphM2_01_orig.jpg,89,,,,,0,89,89,89,,,,,,,,,,,,,,,,,,,5.80078125,7.96875,0,0,1,1.62320590019,,,2015_Oct_24_1213,G,facesParametric,20,59.7296269661,
./stim/MorphF6_03_orig.jpg,90,,,,,0,90,90,90,,,,,,,,,,,,,,,,,,,5.80078125,7.96875,0,0,1,1.99322795868,,,2015_Oct_24_1213,G,facesParametric,20,59.7296269661,
./stim/MorphF4_09_orig.jpg,91,,,,,0,91,91,91,,,,,,,,,,,,,,,,,,,5.771484375,7.939453125,1,0,0,7.54023718834,,,2015_Oct_24_1213,G,facesParametric,20,59.7296269661,
./stim/MorphM6_01_orig.jpg,92,,,,,0,92,92,92,,,,,,,,,,,,,,,,,,,5.771484375,7.939453125,0,0,1,1.27219009399,,,2015_Oct_24_1213,G,facesParametric,20,59.7296269661,
./stim/MorphF10_04_orig.jpg,93,,,,,0,93,93,93,,,,,,,,,,,,,,,,,,,5.7421875,7.91015625,1,0,0,3.18200516701,,,2015_Oct_24_1213,G,facesParametric,20,59.7296269661,
./stim/MorphF4_06_orig.jpg,94,,,,,0,94,94,94,,,,,,,,,,,,,,,,,,,5.7421875,7.880859375,0,0,1,2.44521808624,,,2015_Oct_24_1213,G,facesParametric,20,59.7296269661,
./stim/MorphF9_02_orig.jpg,95,,,,,0,95,95,95,,,,,,,,,,,,,,,,,,,5.712890625,7.8515625,0,0,1,1.25563502312,,,2015_Oct_24_1213,G,facesParametric,20,59.7296269661,
./stim/MorphM3_08_orig.jpg,96,,,,,0,96,96,96,,,,,,,,,,,,,,,,,,,5.712890625,7.8515625,1,0,0,1.22131490707,,,2015_Oct_24_1213,G,facesParametric,20,59.7296269661,
./stim/MorphF5_04_orig.jpg,97,,,,,0,97,97,97,,,,,,,,,,,,,,,,,,,5.712890625,7.8515625,1,0,0,8.39550590515,,,2015_Oct_24_1213,G,facesParametric,20,59.7296269661,
./stim/MorphF7_09_orig.jpg,98,,,,,0,98,98,98,,,,,,,,,,,,,,,,,,,5.68359375,7.880859375,0,0,1,4.75734806061,,,2015_Oct_24_1213,G,facesParametric,20,59.7296269661,
./stim/MorphF4_05_orig.jpg,99,,,,,0,99,99,99,,,,,,,,,,,,,,,,,,,5.68359375,7.880859375,1,0,0,2.74698400497,,,2015_Oct_24_1213,G,facesParametric,20,59.7296269661,
./stim/MorphM10_04_orig.jpg,100,,,,,0,100,100,100,,,,,,,,,,,,,,,,,,,5.68359375,7.822265625,0,0,1,0.835378885269,,,2015_Oct_24_1213,G,facesParametric,20,59.7296269661,
./stim/MorphF6_04_orig.jpg,101,,,,,0,101,101,101,,,,,,,,,,,,,,,,,,,5.68359375,7.822265625,0,0,1,1.5403881073,,,2015_Oct_24_1213,G,facesParametric,20,59.7296269661,
./stim/MorphM10_10_orig.jpg,102,,,,,0,102,102,102,,,,,,,,,,,,,,,,,,,5.68359375,7.822265625,1,0,0,1.08834004402,,,2015_Oct_24_1213,G,facesParametric,20,59.7296269661,
./stim/MorphM1_10_orig.jpg,103,,,,,0,103,103,103,,,,,,,,,,,,,,,,,,,5.712890625,7.79296875,1,0,0,1.74189281464,,,2015_Oct_24_1213,G,facesParametric,20,59.7296269661,
./stim/MorphF3_09_orig.jpg,104,,,,,0,104,104,104,,,,,,,,,,,,,,,,,,,5.7421875,7.734375,1,0,0,1.03792405128,,,2015_Oct_24_1213,G,facesParametric,20,59.7296269661,
./stim/MorphM10_03_orig.jpg,105,,,,,0,105,105,105,,,,,,,,,,,,,,,,,,,5.7421875,7.734375,0,0,1,2.62852096558,,,2015_Oct_24_1213,G,facesParametric,20,59.7296269661,
./stim/MorphM1_01_orig.jpg,106,,,,,0,106,106,106,,,,,,,,,,,,,,,,,,,5.7421875,7.734375,0,0,1,2.00959706306,,,2015_Oct_24_1213,G,facesParametric,20,59.7296269661,
./stim/MorphM5_09_orig.jpg,107,,,,,0,107,107,107,,,,,,,,,,,,,,,,,,,5.7421875,7.734375,1,0,0,3.23338985443,,,2015_Oct_24_1213,G,facesParametric,20,59.7296269661,
./stim/MorphM8_05_orig.jpg,108,,,,,0,108,108,108,,,,,,,,,,,,,,,,,,,5.771484375,7.705078125,1,0,0,3.01357913017,,,2015_Oct_24_1213,G,facesParametric,20,59.7296269661,
./stim/MorphM7_01_orig.jpg,109,,,,,0,109,109,109,,,,,,,,,,,,,,,,,,,5.80078125,7.67578125,0,0,1,4.33943414688,,,2015_Oct_24_1213,G,facesParametric,20,59.7296269661,
./stim/MorphM8_07_orig.jpg,110,,,,,0,110,110,110,,,,,,,,,,,,,,,,,,,5.771484375,7.705078125,0,0,1,3.26636981964,,,2015_Oct_24_1213,G,facesParametric,20,59.7296269661,
./stim/MorphM2_03_orig.jpg,111,,,,,0,111,111,111,,,,,,,,,,,,,,,,,,,5.771484375,7.705078125,0,0,1,1.23914504051,,,2015_Oct_24_1213,G,facesParametric,20,59.7296269661,
./stim/MorphM5_00_orig.jpg,112,,,,,0,112,112,112,,,,,,,,,,,,,,,,,,,5.771484375,7.705078125,0,0,1,3.16595697403,,,2015_Oct_24_1213,G,facesParametric,20,59.7296269661,
./stim/MorphF4_03_orig.jpg,113,,,,,0,113,113,113,,,,,,,,,,,,,,,,,,,5.80078125,7.734375,0,0,1,4.07119703293,,,2015_Oct_24_1213,G,facesParametric,20,59.7296269661,
./stim/MorphF10_10_orig.jpg,114,,,,,0,114,114,114,,,,,,,,,,,,,,,,,,,5.80078125,7.734375,1,0,0,1.25589394569,,,2015_Oct_24_1213,G,facesParametric,20,59.7296269661,
./stim/MorphF2_10_orig.jpg,115,,,,,0,115,115,115,,,,,,,,,,,,,,,,,,,5.80078125,7.79296875,1,0,0,1.96018600464,,,2015_Oct_24_1213,G,facesParametric,20,59.7296269661,
./stim/MorphM8_06_orig.jpg,116,,,,,0,116,116,116,,,,,,,,,,,,,,,,,,,5.80078125,7.79296875,1,0,0,3.06293106079,,,2015_Oct_24_1213,G,facesParametric,20,59.7296269661,
./stim/MorphF9_05_orig.jpg,117,,,,,0,117,117,117,,,,,,,,,,,,,,,,,,,5.7421875,7.763671875,0,0,1,4.99322390556,,,2015_Oct_24_1213,G,facesParametric,20,59.7296269661,
./stim/MorphM8_02_orig.jpg,118,,,,,0,118,118,118,,,,,,,,,,,,,,,,,,,5.7421875,7.763671875,0,0,1,1.28880882263,,,2015_Oct_24_1213,G,facesParametric,20,59.7296269661,
./stim/MorphM3_01_orig.jpg,119,,,,,0,119,119,119,,,,,,,,,,,,,,,,,,,5.7421875,7.763671875,0,0,1,1.11970901489,,,2015_Oct_24_1213,G,facesParametric,20,59.7296269661,
./stim/MorphM4_01_orig.jpg,120,,,,,0,120,120,120,,,,,,,,,,,,,,,,,,,5.712890625,7.79296875,0,0,1,5.31114196777,,,2015_Oct_24_1213,G,facesParametric,20,59.7296269661,
./stim/MorphM6_02_orig.jpg,121,,,,,0,121,121,121,,,,,,,,,,,,,,,,,,,5.712890625,7.79296875,0,0,1,1.48965597153,,,2015_Oct_24_1213,G,facesParametric,20,59.7296269661,
./stim/MorphM7_02_orig.jpg,122,,,,,0,122,122,122,,,,,,,,,,,,,,,,,,,5.7421875,7.763671875,0,0,1,2.34396195412,,,2015_Oct_24_1213,G,facesParametric,20,59.7296269661,
./stim/MorphM3_04_orig.jpg,123,,,,,0,123,123,123,,,,,,,,,,,,,,,,,,,5.712890625,7.79296875,0,0,1,2.52944016457,,,2015_Oct_24_1213,G,facesParametric,20,59.7296269661,
./stim/MorphF7_10_orig.jpg,124,,,,,0,124,124,124,,,,,,,,,,,,,,,,,,,5.712890625,7.79296875,0,0,1,1.1538040638,,,2015_Oct_24_1213,G,facesParametric,20,59.7296269661,
./stim/MorphM10_02_orig.jpg,125,,,,,0,125,125,125,,,,,,,,,,,,,,,,,,,5.712890625,7.79296875,0,0,1,2.71303796768,,,2015_Oct_24_1213,G,facesParametric,20,59.7296269661,
./stim/MorphF2_08_orig.jpg,126,,,,,0,126,126,126,,,,,,,,,,,,,,,,,,,5.712890625,7.79296875,1,0,0,1.95806908607,,,2015_Oct_24_1213,G,facesParametric,20,59.7296269661,
./stim/MorphM4_10_orig.jpg,127,,,,,0,127,127,127,,,,,,,,,,,,,,,,,,,5.68359375,7.822265625,1,0,0,1.95938205719,,,2015_Oct_24_1213,G,facesParametric,20,59.7296269661,
./stim/MorphM7_05_orig.jpg,128,,,,,0,128,128,128,,,,,,,,,,,,,,,,,,,5.68359375,7.822265625,0,0,1,1.87584805489,,,2015_Oct_24_1213,G,facesParametric,20,59.7296269661,
./stim/MorphM8_10_orig.jpg,129,,,,,0,129,129,129,,,,,,,,,,,,,,,,,,,5.68359375,7.880859375,1,0,0,1.59039497375,,,2015_Oct_24_1213,G,facesParametric,20,59.7296269661,
./stim/MorphM1_09_orig.jpg,130,,,,,0,130,130,130,,,,,,,,,,,,,,,,,,,5.654296875,7.91015625,1,0,0,2.27814602852,,,2015_Oct_24_1213,G,facesParametric,20,59.7296269661,
./stim/MorphF1_08_orig.jpg,131,,,,,0,131,131,131,,,,,,,,,,,,,,,,,,,5.625,7.939453125,0,0,1,8.26168298721,,,2015_Oct_24_1213,G,facesParametric,20,59.7296269661,
./stim/MorphF6_01_orig.jpg,132,,,,,0,132,132,132,,,,,,,,,,,,,,,,,,,5.625,7.939453125,0,0,1,2.84753704071,,,2015_Oct_24_1213,G,facesParametric,20,59.7296269661,
./stim/MorphM7_10_orig.jpg,133,,,,,0,133,133,133,,,,,,,,,,,,,,,,,,,5.625,7.939453125,1,0,0,1.7416870594,,,2015_Oct_24_1213,G,facesParametric,20,59.7296269661,
./stim/MorphF10_07_orig.jpg,134,,,,,0,134,134,134,,,,,,,,,,,,,,,,,,,5.595703125,7.96875,1,0,0,1.00437307358,,,2015_Oct_24_1213,G,facesParametric,20,59.7296269661,
./stim/MorphF1_00_orig.jpg,135,,,,,0,135,135,135,,,,,,,,,,,,,,,,,,,5.625,7.939453125,0,0,1,2.54643392563,,,2015_Oct_24_1213,G,facesParametric,20,59.7296269661,
./stim/MorphF8_05_orig.jpg,136,,,,,0,136,136,136,,,,,,,,,,,,,,,,,,,5.654296875,7.91015625,0,0,1,4.25561308861,,,2015_Oct_24_1213,G,facesParametric,20,59.7296269661,
./stim/MorphF10_03_orig.jpg,137,,,,,0,137,137,137,,,,,,,,,,,,,,,,,,,5.654296875,7.91015625,0,0,1,0.80216217041,,,2015_Oct_24_1213,G,facesParametric,20,59.7296269661,
./stim/MorphF2_02_orig.jpg,138,,,,,0,138,138,138,,,,,,,,,,,,,,,,,,,5.654296875,7.880859375,0,0,1,2.712651968,,,2015_Oct_24_1213,G,facesParametric,20,59.7296269661,
./stim/MorphF7_07_orig.jpg,139,,,,,0,139,139,139,,,,,,,,,,,,,,,,,,,5.654296875,7.880859375,0,0,1,3.48539304733,,,2015_Oct_24_1213,G,facesParametric,20,59.7296269661,
./stim/MorphM2_00_orig.jpg,140,,,,,0,140,140,140,,,,,,,,,,,,,,,,,,,5.654296875,7.880859375,0,0,1,1.22267007828,,,2015_Oct_24_1213,G,facesParametric,20,59.7296269661,
./stim/MorphF10_09_orig.jpg,141,,,,,0,141,141,141,,,,,,,,,,,,,,,,,,,5.625,7.822265625,1,0,0,1.20414805412,,,2015_Oct_24_1213,G,facesParametric,20,59.7296269661,
./stim/MorphF7_03_orig.jpg,142,,,,,0,142,142,142,,,,,,,,,,,,,,,,,,,5.654296875,7.79296875,0,0,1,1.22201895714,,,2015_Oct_24_1213,G,facesParametric,20,59.7296269661,
./stim/MorphM5_04_orig.jpg,143,,,,,0,143,143,143,,,,,,,,,,,,,,,,,,,5.654296875,7.79296875,1,0,0,2.04360508919,,,2015_Oct_24_1213,G,facesParametric,20,59.7296269661,
./stim/MorphM6_05_orig.jpg,144,,,,,0,144,144,144,,,,,,,,,,,,,,,,,,,5.68359375,7.763671875,0,0,1,1.82522392273,,,2015_Oct_24_1213,G,facesParametric,20,59.7296269661,
./stim/MorphM8_09_orig.jpg,145,,,,,0,145,145,145,,,,,,,,,,,,,,,,,,,5.712890625,7.734375,1,0,0,3.35070490837,,,2015_Oct_24_1213,G,facesParametric,20,59.7296269661,
./stim/MorphM2_07_orig.jpg,146,,,,,0,146,146,146,,,,,,,,,,,,,,,,,,,5.771484375,7.67578125,1,0,0,3.55200600624,,,2015_Oct_24_1213,G,facesParametric,20,59.7296269661,
./stim/MorphM4_00_orig.jpg,147,,,,,0,147,147,147,,,,,,,,,,,,,,,,,,,5.771484375,7.67578125,0,0,1,1.69179487228,,,2015_Oct_24_1213,G,facesParametric,20,59.7296269661,
./stim/MorphF4_02_orig.jpg,148,,,,,0,148,148,148,,,,,,,,,,,,,,,,,,,5.771484375,7.67578125,0,0,1,4.01981401443,,,2015_Oct_24_1213,G,facesParametric,20,59.7296269661,
./stim/MorphF1_10_orig.jpg,149,,,,,0,149,149,149,,,,,,,,,,,,,,,,,,,5.771484375,7.67578125,1,0,0,1.33921384811,,,2015_Oct_24_1213,G,facesParametric,20,59.7296269661,
./stim/MorphF4_04_orig.jpg,150,,,,,0,150,150,150,,,,,,,,,,,,,,,,,,,5.830078125,7.67578125,0,0,1,4.77503085136,,,2015_Oct_24_1213,G,facesParametric,20,59.7296269661,
./stim/MorphF6_00_orig.jpg,151,,,,,0,151,151,151,,,,,,,,,,,,,,,,,,,5.830078125,7.67578125,0,0,1,0.786223888397,,,2015_Oct_24_1213,G,facesParametric,20,59.7296269661,
./stim/MorphF3_08_orig.jpg,152,,,,,0,152,152,152,,,,,,,,,,,,,,,,,,,5.830078125,7.67578125,1,0,0,1.62438607216,,,2015_Oct_24_1213,G,facesParametric,20,59.7296269661,
./stim/MorphM9_00_orig.jpg,153,,,,,0,153,153,153,,,,,,,,,,,,,,,,,,,5.830078125,7.67578125,0,0,1,2.74562215805,,,2015_Oct_24_1213,G,facesParametric,20,59.7296269661,
./stim/MorphF10_05_orig.jpg,154,,,,,0,154,154,154,,,,,,,,,,,,,,,,,,,5.830078125,7.67578125,0,0,1,3.56883001328,,,2015_Oct_24_1213,G,facesParametric,20,59.7296269661,
./stim/MorphF9_03_orig.jpg,155,,,,,0,155,155,155,,,,,,,,,,,,,,,,,,,5.830078125,7.67578125,0,0,1,3.06542301178,,,2015_Oct_24_1213,G,facesParametric,20,59.7296269661,
./stim/MorphM6_09_orig.jpg,156,,,,,0,156,156,156,,,,,,,,,,,,,,,,,,,5.830078125,7.67578125,1,0,0,2.39545607567,,,2015_Oct_24_1213,G,facesParametric,20,59.7296269661,
./stim/MorphM8_03_orig.jpg,157,,,,,0,157,157,157,,,,,,,,,,,,,,,,,,,5.830078125,7.67578125,1,0,0,3.35094213486,,,2015_Oct_24_1213,G,facesParametric,20,59.7296269661,
./stim/MorphM2_08_orig.jpg,158,,,,,0,158,158,158,,,,,,,,,,,,,,,,,,,5.859375,7.646484375,1,0,0,4.64130806923,,,2015_Oct_24_1213,G,facesParametric,20,59.7296269661,
./stim/MorphM5_08_orig.jpg,159,,,,,0,159,159,159,,,,,,,,,,,,,,,,,,,5.859375,7.646484375,1,0,0,1.15515089035,,,2015_Oct_24_1213,G,facesParametric,20,59.7296269661,
./stim/MorphM1_04_orig.jpg,160,,,,,0,160,160,160,,,,,,,,,,,,,,,,,,,5.859375,7.646484375,0,0,1,1.8247718811,,,2015_Oct_24_1213,G,facesParametric,20,59.7296269661,
./stim/MorphM10_08_orig.jpg,161,,,,,0,161,161,161,,,,,,,,,,,,,,,,,,,5.859375,7.646484375,1,0,0,1.49078512192,,,2015_Oct_24_1213,G,facesParametric,20,59.7296269661,
./stim/MorphM2_04_orig.jpg,162,,,,,0,162,162,162,,,,,,,,,,,,,,,,,,,5.859375,7.646484375,0,0,1,2.4109890461,,,2015_Oct_24_1213,G,facesParametric,20,59.7296269661,
./stim/MorphM5_06_orig.jpg,163,,,,,0,163,163,163,,,,,,,,,,,,,,,,,,,5.859375,7.646484375,1,0,0,4.54053688049,,,2015_Oct_24_1213,G,facesParametric,20,59.7296269661,
./stim/MorphM8_01_orig.jpg,164,,,,,0,164,164,164,,,,,,,,,,,,,,,,,,,5.859375,7.646484375,0,0,1,1.87647604942,,,2015_Oct_24_1213,G,facesParametric,20,59.7296269661,
./stim/MorphM4_02_orig.jpg,165,,,,,0,165,165,165,,,,,,,,,,,,,,,,,,,5.888671875,7.67578125,0,0,1,6.58391690254,,,2015_Oct_24_1213,G,facesParametric,20,59.7296269661,
./stim/MorphM7_00_orig.jpg,166,,,,,0,166,166,166,,,,,,,,,,,,,,,,,,,5.888671875,7.67578125,0,0,1,1.07206606865,,,2015_Oct_24_1213,G,facesParametric,20,59.7296269661,
./stim/MorphF1_06_orig.jpg,167,,,,,0,167,167,167,,,,,,,,,,,,,,,,,,,5.888671875,7.67578125,0,0,1,7.54026699066,,,2015_Oct_24_1213,G,facesParametric,20,59.7296269661,
./stim/MorphM1_02_orig.jpg,168,,,,,0,168,168,168,,,,,,,,,,,,,,,,,,,5.888671875,7.67578125,0,0,1,4.92634320259,,,2015_Oct_24_1213,G,facesParametric,20,59.7296269661,
./stim/MorphM6_00_orig.jpg,169,,,,,0,169,169,169,,,,,,,,,,,,,,,,,,,5.91796875,7.646484375,0,0,1,1.20328307152,,,2015_Oct_24_1213,G,facesParametric,20,59.7296269661,
./stim/MorphM4_05_orig.jpg,170,,,,,0,170,170,170,,,,,,,,,,,,,,,,,,,5.91796875,7.646484375,1,0,0,2.31058597565,,,2015_Oct_24_1213,G,facesParametric,20,59.7296269661,
./stim/MorphF2_07_orig.jpg,171,,,,,0,171,171,171,,,,,,,,,,,,,,,,,,,5.91796875,7.646484375,1,0,0,3.06548786163,,,2015_Oct_24_1213,G,facesParametric,20,59.7296269661,
./stim/MorphF5_02_orig.jpg,172,,,,,0,172,172,172,,,,,,,,,,,,,,,,,,,5.947265625,7.6171875,0,0,1,7.90892505646,,,2015_Oct_24_1213,G,facesParametric,20,59.7296269661,
./stim/MorphM6_04_orig.jpg,173,,,,,0,173,173,173,,,,,,,,,,,,,,,,,,,5.947265625,7.529296875,0,0,1,14.4451780319,,,2015_Oct_24_1213,G,facesParametric,20,59.7296269661,
./stim/MorphF3_04_orig.jpg,174,,,,,0,174,174,174,,,,,,,,,,,,,,,,,,,5.947265625,7.529296875,0,0,1,1.20333600044,,,2015_Oct_24_1213,G,facesParametric,20,59.7296269661,
./stim/MorphF9_06_orig.jpg,175,,,,,0,175,175,175,,,,,,,,,,,,,,,,,,,5.91796875,7.55859375,0,0,1,2.22786283493,,,2015_Oct_24_1213,G,facesParametric,20,59.7296269661,
./stim/MorphF2_00_orig.jpg,176,,,,,0,176,176,176,,,,,,,,,,,,,,,,,,,5.91796875,7.55859375,0,0,1,5.52745985985,,,2015_Oct_24_1213,G,facesParametric,20,59.7296269661,
./stim/MorphM5_02_orig.jpg,177,,,,,0,177,177,177,,,,,,,,,,,,,,,,,,,-0.791015625,2.4609375,1,0,0,39.3669481277,,,2015_Oct_24_1213,G,facesParametric,20,59.7296269661,
./stim/MorphM3_06_orig.jpg,178,,,,,0,178,178,178,,,,,,,,,,,,,,,,,,,-0.791015625,2.314453125,1,0,0,2.31114411354,,,2015_Oct_24_1213,G,facesParametric,20,59.7296269661,
./stim/MorphM6_10_orig.jpg,179,,,,,0,179,179,179,,,,,,,,,,,,,,,,,,,0.380859375,0.439453125,1,0,0,9.11390686035,,,2015_Oct_24_1213,G,facesParametric,20,59.7296269661,
./stim/MorphM3_03_orig.jpg,180,,,,,0,180,180,180,,,,,,,,,,,,,,,,,,,0.52734375,0.322265625,0,0,1,1.79239916801,,,2015_Oct_24_1213,G,facesParametric,20,59.7296269661,
./stim/MorphM8_08_orig.jpg,181,,,,,0,181,181,181,,,,,,,,,,,,,,,,,,,0.556640625,0.29296875,0,0,1,1.79146814346,,,2015_Oct_24_1213,G,facesParametric,20,59.7296269661,
./stim/MorphM3_09_orig.jpg,182,,,,,0,182,182,182,,,,,,,,,,,,,,,,,,,0.556640625,0.29296875,1,0,0,3.97006201744,,,2015_Oct_24_1213,G,facesParametric,20,59.7296269661,
./stim/MorphM4_08_orig.jpg,183,,,,,0,183,183,183,,,,,,,,,,,,,,,,,,,0.5859375,0.263671875,1,0,0,4.1376349926,,,2015_Oct_24_1213,G,facesParametric,20,59.7296269661,
./stim/MorphF3_03_orig.jpg,184,,,,,0,184,184,184,,,,,,,,,,,,,,,,,,,0.5859375,0.263671875,0,0,1,1.23750710487,,,2015_Oct_24_1213,G,facesParametric,20,59.7296269661,
./stim/MorphF2_09_orig.jpg,185,,,,,0,185,185,185,,,,,,,,,,,,,,,,,,,0.5859375,0.234375,1,0,0,4.69040799141,,,2015_Oct_24_1213,G,facesParametric,20,59.7296269661,
./stim/MorphF9_00_orig.jpg,186,,,,,0,186,186,186,,,,,,,,,,,,,,,,,,,0.5859375,0.234375,0,0,1,3.13267993927,,,2015_Oct_24_1213,G,facesParametric,20,59.7296269661,
./stim/MorphF10_08_orig.jpg,187,,,,,0,187,187,187,,,,,,,,,,,,,,,,,,,0.5859375,0.234375,1,0,0,1.1051940918,,,2015_Oct_24_1213,G,facesParametric,20,59.7296269661,
./stim/MorphM4_04_orig.jpg,188,,,,,0,188,188,188,,,,,,,,,,,,,,,,,,,0.5859375,0.205078125,1,0,0,5.11060500145,,,2015_Oct_24_1213,G,facesParametric,20,59.7296269661,
./stim/MorphM3_00_orig.jpg,189,,,,,0,189,189,189,,,,,,,,,,,,,,,,,,,0.615234375,0.17578125,0,0,1,1.49027109146,,,2015_Oct_24_1213,G,facesParametric,20,59.7296269661,
./stim/MorphF6_07_orig.jpg,190,,,,,0,190,190,190,,,,,,,,,,,,,,,,,,,0.64453125,0.146484375,0,0,1,2.66161489487,,,2015_Oct_24_1213,G,facesParametric,20,59.7296269661,
./stim/MorphM1_06_orig.jpg,191,,,,,0,191,191,191,,,,,,,,,,,,,,,,,,,0.64453125,0.146484375,0,0,1,3.09932303429,,,2015_Oct_24_1213,G,facesParametric,20,59.7296269661,
./stim/MorphF7_02_orig.jpg,192,,,,,0,192,192,192,,,,,,,,,,,,,,,,,,,0.64453125,0.146484375,0,0,1,1.05450582504,,,2015_Oct_24_1213,G,facesParametric,20,59.7296269661,
./stim/MorphF8_08_orig.jpg,193,,,,,0,193,193,193,,,,,,,,,,,,,,,,,,,0.64453125,0.146484375,1,0,0,1.32289099693,,,2015_Oct_24_1213,G,facesParametric,20,59.7296269661,
./stim/MorphM1_08_orig.jpg,194,,,,,0,194,194,194,,,,,,,,,,,,,,,,,,,0.673828125,0.1171875,1,0,0,2.41216301918,,,2015_Oct_24_1213,G,facesParametric,20,59.7296269661,
./stim/MorphF9_01_orig.jpg,195,,,,,0,195,195,195,,,,,,,,,,,,,,,,,,,0.673828125,0.17578125,0,0,1,2.17714309692,,,2015_Oct_24_1213,G,facesParametric,20,59.7296269661,
./stim/MorphF5_01_orig.jpg,196,,,,,0,196,196,196,,,,,,,,,,,,,,,,,,,0.673828125,0.17578125,0,0,1,11.2287039757,,,2015_Oct_24_1213,G,facesParametric,20,59.7296269661,
./stim/MorphF4_10_orig.jpg,197,,,,,0,197,197,197,,,,,,,,,,,,,,,,,,,0.849609375,0.3515625,1,0,0,6.91859793663,,,2015_Oct_24_1213,G,facesParametric,20,59.7296269661,
./stim/MorphF3_00_orig.jpg,198,,,,,0,198,198,198,,,,,,,,,,,,,,,,,,,0.849609375,0.3515625,0,0,1,5.94634914398,,,2015_Oct_24_1213,G,facesParametric,20,59.7296269661,
./stim/MorphF4_01_orig.jpg,199,,,,,0,199,199,199,,,,,,,,,,,,,,,,,,,0.849609375,0.3515625,0,0,1,1.00447511673,,,2015_Oct_24_1213,G,facesParametric,20,59.7296269661,
./stim/MorphM7_09_orig.jpg,200,,,,,0,200,200,200,,,,,,,,,,,,,,,,,,,0.849609375,0.3515625,0,0,1,1.15332508087,,,2015_Oct_24_1213,G,facesParametric,20,59.7296269661,
./stim/MorphF2_03_orig.jpg,201,,,,,0,201,201,201,,,,,,,,,,,,,,,,,,,0.849609375,0.3515625,0,0,1,3.01397299767,,,2015_Oct_24_1213,G,facesParametric,20,59.7296269661,
./stim/MorphM2_09_orig.jpg,202,,,,,0,202,202,202,,,,,,,,,,,,,,,,,,,0.849609375,0.3515625,1,0,0,1.52400183678,,,2015_Oct_24_1213,G,facesParametric,20,59.7296269661,
./stim/MorphF8_00_orig.jpg,203,,,,,0,203,203,203,,,,,,,,,,,,,,,,,,,0.8203125,0.322265625,0,0,1,7.5739440918,,,2015_Oct_24_1213,G,facesParametric,20,59.7296269661,
./stim/MorphF5_09_orig.jpg,204,,,,,0,204,204,204,,,,,,,,,,,,,,,,,,,0.849609375,0.3515625,1,0,0,1.64108204842,,,2015_Oct_24_1213,G,facesParametric,20,59.7296269661,
./stim/MorphM6_07_orig.jpg,205,,,,,0,205,205,205,,,,,,,,,,,,,,,,,,,0.732421875,0.29296875,0,0,1,2.96559095383,,,2015_Oct_24_1213,G,facesParametric,20,59.7296269661,
./stim/MorphM9_07_orig.jpg,206,,,,,0,206,206,206,,,,,,,,,,,,,,,,,,,0.673828125,0.3515625,1,0,0,6.98527598381,,,2015_Oct_24_1213,G,facesParametric,20,59.7296269661,
./stim/MorphF3_06_orig.jpg,207,,,,,0,207,207,207,,,,,,,,,,,,,,,,,,,0.673828125,0.3515625,1,0,0,2.6636929512,,,2015_Oct_24_1213,G,facesParametric,20,59.7296269661,
./stim/MorphF2_04_orig.jpg,208,,,,,0,208,208,208,,,,,,,,,,,,,,,,,,,0.732421875,0.29296875,1,0,0,10.036303997,,,2015_Oct_24_1213,G,facesParametric,20,59.7296269661,
./stim/MorphM1_00_orig.jpg,209,,,,,0,209,209,209,,,,,,,,,,,,,,,,,,,0.732421875,0.29296875,0,0,1,1.52374196053,,,2015_Oct_24_1213,G,facesParametric,20,59.7296269661,
./stim/MorphM9_06_orig.jpg,210,,,,,0,210,210,210,,,,,,,,,,,,,,,,,,,0.732421875,0.29296875,1,0,0,4.75657701492,,,2015_Oct_24_1213,G,facesParametric,20,59.7296269661,
./stim/MorphM2_02_orig.jpg,211,,,,,0,211,211,211,,,,,,,,,,,,,,,,,,,0.703125,0.263671875,0,0,1,3.2817568779,,,2015_Oct_24_1213,G,facesParametric,20,59.7296269661,
./stim/MorphM5_05_orig.jpg,212,,,,,0,212,212,212,,,,,,,,,,,,,,,,,,,0.703125,0.263671875,1,0,0,1.44032382965,,,2015_Oct_24_1213,G,facesParametric,20,59.7296269661,
./stim/MorphF3_07_orig.jpg,213,,,,,0,213,213,213,,,,,,,,,,,,,,,,,,,0.703125,0.263671875,1,0,0,2.78052401543,,,2015_Oct_24_1213,G,facesParametric,20,59.7296269661,
./stim/MorphM1_05_orig.jpg,214,,,,,0,214,214,214,,,,,,,,,,,,,,,,,,,0.703125,0.263671875,0,0,1,4.57309103012,,,2015_Oct_24_1213,G,facesParametric,20,59.7296269661,
./stim/MorphF9_07_orig.jpg,215,,,,,0,215,215,215,,,,,,,,,,,,,,,,,,,0.703125,0.263671875,1,0,0,1.77404499054,,,2015_Oct_24_1213,G,facesParametric,20,59.7296269661,
./stim/MorphM3_02_orig.jpg,216,,,,,0,216,216,216,,,,,,,,,,,,,,,,,,,0.703125,0.29296875,1,0,0,1.5395450592,,,2015_Oct_24_1213,G,facesParametric,20,59.7296269661,
./stim/MorphF2_01_orig.jpg,217,,,,,0,217,217,217,,,,,,,,,,,,,,,,,,,0.703125,0.29296875,0,0,1,2.02669501305,,,2015_Oct_24_1213,G,facesParametric,20,59.7296269661,
./stim/MorphF1_03_orig.jpg,218,,,,,0,218,218,218,,,,,,,,,,,,,,,,,,,0.732421875,0.322265625,0,0,1,3.98773789406,,,2015_Oct_24_1213,G,facesParametric,20,59.7296269661,
./stim/MorphF5_03_orig.jpg,219,,,,,0,219,219,219,,,,,,,,,,,,,,,,,,,0.732421875,0.322265625,0,0,1,5.78076696396,,,2015_Oct_24_1213,G,facesParametric,20,59.7296269661,
,,,,,,,,,,,,,,,,,,,,,,,,,,,,,,,,,,return,14.7482850552,2015_Oct_24_1213,G,facesParametric,20,59.7296269661,
./stim/MorphM9_04_orig.jpg,0,,,,,,,,,0,0,0,0,,,,,,,,,,,,,,,0.5859375,-0.498046875,0,0,1,1.37754893303,,,2015_Oct_24_1213,G,facesParametric,20,59.7296269661,
./stim/MorphF2_00_orig.jpg,1,,,,,,,,,0,1,1,1,,,,,,,,,,,,,,,0.615234375,-0.5859375,0,0,1,1.42287111282,,,2015_Oct_24_1213,G,facesParametric,20,59.7296269661,
./stim/MorphM3_00_orig.jpg,2,,,,,,,,,0,2,2,2,,,,,,,,,,,,,,,0.64453125,-0.615234375,0,0,1,2.12692308426,,,2015_Oct_24_1213,G,facesParametric,20,59.7296269661,
./stim/MorphM6_08_orig.jpg,3,,,,,,,,,0,3,3,3,,,,,,,,,,,,,,,0.673828125,-0.615234375,1,0,0,1.20566391945,,,2015_Oct_24_1213,G,facesParametric,20,59.7296269661,
./stim/MorphF2_06_orig.jpg,4,,,,,,,,,0,4,4,4,,,,,,,,,,,,,,,0.732421875,-0.64453125,1,0,0,1.23694801331,,,2015_Oct_24_1213,G,facesParametric,20,59.7296269661,
./stim/MorphM6_03_orig.jpg,5,,,,,,,,,0,5,5,5,,,,,,,,,,,,,,,0.849609375,-0.673828125,0,0,1,1.84019708633,,,2015_Oct_24_1213,G,facesParametric,20,59.7296269661,
./stim/MorphF2_01_orig.jpg,6,,,,,,,,,0,6,6,6,,,,,,,,,,,,,,,0.849609375,-0.673828125,0,0,1,1.60597205162,,,2015_Oct_24_1213,G,facesParametric,20,59.7296269661,
./stim/MorphM4_06_orig.jpg,7,,,,,,,,,0,7,7,7,,,,,,,,,,,,,,,1.171875,-0.732421875,1,0,0,2.47921705246,,,2015_Oct_24_1213,G,facesParametric,20,59.7296269661,
./stim/MorphF5_00_orig.jpg,8,,,,,,,,,0,8,8,8,,,,,,,,,,,,,,,1.318359375,-0.703125,0,0,1,5.83089399338,,,2015_Oct_24_1213,G,facesParametric,20,59.7296269661,
./stim/MorphM8_00_orig.jpg,9,,,,,,,,,0,9,9,9,,,,,,,,,,,,,,,1.5234375,-0.3515625,0,0,1,1.33893609047,,,2015_Oct_24_1213,G,facesParametric,20,59.7296269661,
./stim/MorphF2_09_orig.jpg,10,,,,,,,,,0,10,10,10,,,,,,,,,,,,,,,1.5234375,-0.3515625,1,0,0,1.22363305092,,,2015_Oct_24_1213,G,facesParametric,20,59.7296269661,
./stim/MorphF5_01_orig.jpg,11,,,,,,,,,0,11,11,11,,,,,,,,,,,,,,,1.552734375,-0.380859375,0,0,1,2.86365389824,,,2015_Oct_24_1213,G,facesParametric,20,59.7296269661,
./stim/MorphF1_07_orig.jpg,12,,,,,,,,,0,12,12,12,,,,,,,,,,,,,,,1.58203125,-0.41015625,1,0,0,1.52242398262,,,2015_Oct_24_1213,G,facesParametric,20,59.7296269661,
./stim/MorphM8_02_orig.jpg,13,,,,,,,,,0,13,13,13,,,,,,,,,,,,,,,1.58203125,-0.41015625,0,0,1,1.8926179409,,,2015_Oct_24_1213,G,facesParametric,20,59.7296269661,
./stim/MorphF6_08_orig.jpg,14,,,,,,,,,0,14,14,14,,,,,,,,,,,,,,,1.58203125,-0.41015625,1,0,0,1.17160892487,,,2015_Oct_24_1213,G,facesParametric,20,59.7296269661,
./stim/MorphF5_06_orig.jpg,15,,,,,,,,,0,15,15,15,,,,,,,,,,,,,,,1.58203125,-0.41015625,0,0,1,6.75236606598,,,2015_Oct_24_1213,G,facesParametric,20,59.7296269661,
./stim/MorphF4_08_orig.jpg,16,,,,,,,,,0,16,16,16,,,,,,,,,,,,,,,1.58203125,-0.41015625,1,0,0,4.55731010437,,,2015_Oct_24_1213,G,facesParametric,20,59.7296269661,
./stim/MorphM5_04_orig.jpg,17,,,,,,,,,0,17,17,17,,,,,,,,,,,,,,,1.58203125,-0.41015625,1,0,0,1.47362303734,,,2015_Oct_24_1213,G,facesParametric,20,59.7296269661,
./stim/MorphM10_02_orig.jpg,18,,,,,,,,,0,18,18,18,,,,,,,,,,,,,,,1.611328125,-0.439453125,0,0,1,1.32121896744,,,2015_Oct_24_1213,G,facesParametric,20,59.7296269661,
./stim/MorphM5_00_orig.jpg,19,,,,,,,,,0,19,19,19,,,,,,,,,,,,,,,1.611328125,-0.439453125,0,0,1,1.62414312363,,,2015_Oct_24_1213,G,facesParametric,20,59.7296269661,
./stim/MorphF6_05_orig.jpg,20,,,,,,,,,0,20,20,20,,,,,,,,,,,,,,,1.58203125,-0.498046875,0,0,1,2.99830508232,,,2015_Oct_24_1213,G,facesParametric,20,59.7296269661,
./stim/MorphF9_09_orig.jpg,21,,,,,,,,,0,21,21,21,,,,,,,,,,,,,,,1.58203125,-0.498046875,1,0,0,1.47351193428,,,2015_Oct_24_1213,G,facesParametric,20,59.7296269661,
./stim/MorphF4_02_orig.jpg,22,,,,,,,,,0,22,22,22,,,,,,,,,,,,,,,1.58203125,-0.498046875,0,0,1,2.99875998497,,,2015_Oct_24_1213,G,facesParametric,20,59.7296269661,
./stim/MorphF2_02_orig.jpg,23,,,,,,,,,0,23,23,23,,,,,,,,,,,,,,,1.58203125,-0.498046875,0,0,1,3.26469898224,,,2015_Oct_24_1213,G,facesParametric,20,59.7296269661,
./stim/MorphM2_02_orig.jpg,24,,,,,,,,,0,24,24,24,,,,,,,,,,,,,,,1.58203125,-0.498046875,0,0,1,5.20904588699,,,2015_Oct_24_1213,G,facesParametric,20,59.7296269661,
./stim/MorphF4_06_orig.jpg,25,,,,,,,,,0,25,25,25,,,,,,,,,,,,,,,1.611328125,-0.46875,1,0,0,1.82341313362,,,2015_Oct_24_1213,G,facesParametric,20,59.7296269661,
./stim/MorphF2_07_orig.jpg,26,,,,,,,,,0,26,26,26,,,,,,,,,,,,,,,1.611328125,-0.46875,1,0,0,1.50623202324,,,2015_Oct_24_1213,G,facesParametric,20,59.7296269661,
./stim/MorphF6_10_orig.jpg,27,,,,,,,,,0,27,27,27,,,,,,,,,,,,,,,1.611328125,-0.46875,1,0,0,1.05480885506,,,2015_Oct_24_1213,G,facesParametric,20,59.7296269661,
./stim/MorphM7_10_orig.jpg,28,,,,,,,,,0,28,28,28,,,,,,,,,,,,,,,1.611328125,-0.46875,1,0,0,2.04302215576,,,2015_Oct_24_1213,G,facesParametric,20,59.7296269661,
./stim/MorphF2_05_orig.jpg,29,,,,,,,,,0,29,29,29,,,,,,,,,,,,,,,1.640625,-0.439453125,0,0,1,3.18155407906,,,2015_Oct_24_1213,G,facesParametric,20,59.7296269661,
./stim/MorphF7_04_orig.jpg,30,,,,,,,,,0,30,30,30,,,,,,,,,,,,,,,1.640625,-0.439453125,0,0,1,1.02091503143,,,2015_Oct_24_1213,G,facesParametric,20,59.7296269661,
./stim/MorphM2_08_orig.jpg,31,,,,,,,,,0,31,31,31,,,,,,,,,,,,,,,1.640625,-0.439453125,1,0,0,2.3787779808,,,2015_Oct_24_1213,G,facesParametric,20,59.7296269661,
./stim/MorphF2_04_orig.jpg,32,,,,,,,,,0,32,32,32,,,,,,,,,,,,,,,1.669921875,-0.380859375,0,0,1,1.50695514679,,,2015_Oct_24_1213,G,facesParametric,20,59.7296269661,
./stim/MorphM2_09_orig.jpg,33,,,,,,,,,0,33,33,33,,,,,,,,,,,,,,,1.669921875,-0.380859375,1,0,0,4.08764910698,,,2015_Oct_24_1213,G,facesParametric,20,59.7296269661,
./stim/MorphF1_05_orig.jpg,34,,,,,,,,,0,34,34,34,,,,,,,,,,,,,,,1.640625,-0.3515625,0,0,1,1.28765296936,,,2015_Oct_24_1213,G,facesParametric,20,59.7296269661,
./stim/MorphF5_10_orig.jpg,35,,,,,,,,,0,35,35,35,,,,,,,,,,,,,,,1.640625,-0.3515625,1,0,0,2.2778711319,,,2015_Oct_24_1213,G,facesParametric,20,59.7296269661,
./stim/MorphM6_02_orig.jpg,36,,,,,,,,,0,36,36,36,,,,,,,,,,,,,,,1.640625,-0.3515625,0,0,1,3.61899185181,,,2015_Oct_24_1213,G,facesParametric,20,59.7296269661,
./stim/MorphF8_07_orig.jpg,37,,,,,,,,,0,37,37,37,,,,,,,,,,,,,,,1.640625,-0.3515625,0,0,1,1.30597710609,,,2015_Oct_24_1213,G,facesParametric,20,59.7296269661,
./stim/MorphM8_03_orig.jpg,38,,,,,,,,,0,38,38,38,,,,,,,,,,,,,,,1.669921875,-0.380859375,0,0,1,3.60222411156,,,2015_Oct_24_1213,G,facesParametric,20,59.7296269661,
./stim/MorphM4_07_orig.jpg,39,,,,,,,,,0,39,39,39,,,,,,,,,,,,,,,1.669921875,-0.380859375,1,0,0,3.80310106277,,,2015_Oct_24_1213,G,facesParametric,20,59.7296269661,
./stim/MorphF10_03_orig.jpg,40,,,,,,,,,0,40,40,40,,,,,,,,,,,,,,,1.669921875,-0.380859375,0,0,1,3.26652503014,,,2015_Oct_24_1213,G,facesParametric,20,59.7296269661,
./stim/MorphF2_08_orig.jpg,41,,,,,,,,,0,41,41,41,,,,,,,,,,,,,,,1.69921875,-0.3515625,1,0,0,1.74207115173,,,2015_Oct_24_1213,G,facesParametric,20,59.7296269661,
./stim/MorphM3_08_orig.jpg,42,,,,,,,,,0,42,42,42,,,,,,,,,,,,,,,1.69921875,-0.3515625,1,0,0,4.97430181503,,,2015_Oct_24_1213,G,facesParametric,20,59.7296269661,
./stim/MorphF3_02_orig.jpg,43,,,,,,,,,0,43,43,43,,,,,,,,,,,,,,,1.69921875,-0.3515625,0,0,1,1.55735206604,,,2015_Oct_24_1213,G,facesParametric,20,59.7296269661,
./stim/MorphM9_06_orig.jpg,44,,,,,,,,,0,44,44,44,,,,,,,,,,,,,,,1.69921875,-0.3515625,1,0,0,1.82575106621,,,2015_Oct_24_1213,G,facesParametric,20,59.7296269661,
./stim/MorphF5_03_orig.jpg,45,,,,,,,,,0,45,45,45,,,,,,,,,,,,,,,1.669921875,-0.322265625,0,0,1,2.62821793556,,,2015_Oct_24_1213,G,facesParametric,20,59.7296269661,
./stim/MorphF1_02_orig.jpg,46,,,,,,,,,0,46,46,46,,,,,,,,,,,,,,,1.611328125,-0.380859375,0,0,1,10.4396178722,,,2015_Oct_24_1213,G,facesParametric,20,59.7296269661,
./stim/MorphF8_06_orig.jpg,47,,,,,,,,,0,47,47,47,,,,,,,,,,,,,,,1.669921875,-0.3515625,1,0,0,3.86883497238,,,2015_Oct_24_1213,G,facesParametric,20,59.7296269661,
./stim/MorphM3_01_orig.jpg,48,,,,,,,,,0,48,48,48,,,,,,,,,,,,,,,1.69921875,-0.322265625,1,0,0,0.885335922241,,,2015_Oct_24_1213,G,facesParametric,20,59.7296269661,
./stim/MorphF10_00_orig.jpg,49,,,,,,,,,0,49,49,49,,,,,,,,,,,,,,,1.640625,-0.439453125,0,0,1,1.67493200302,,,2015_Oct_24_1213,G,facesParametric,20,59.7296269661,
./stim/MorphM6_01_orig.jpg,50,,,,,,,,,0,50,50,50,,,,,,,,,,,,,,,1.611328125,-0.439453125,0,0,1,1.18715190887,,,2015_Oct_24_1213,G,facesParametric,20,59.7296269661,
./stim/MorphM8_04_orig.jpg,51,,,,,,,,,0,51,51,51,,,,,,,,,,,,,,,1.58203125,-0.41015625,0,0,1,2.31154298782,,,2015_Oct_24_1213,G,facesParametric,20,59.7296269661,
./stim/MorphM9_07_orig.jpg,52,,,,,,,,,0,52,52,52,,,,,,,,,,,,,,,1.552734375,-0.439453125,1,0,0,5.4794421196,,,2015_Oct_24_1213,G,facesParametric,20,59.7296269661,
./stim/MorphF8_05_orig.jpg,53,,,,,,,,,0,53,53,53,,,,,,,,,,,,,,,1.552734375,-0.46875,0,0,1,1.30516505241,,,2015_Oct_24_1213,G,facesParametric,20,59.7296269661,
./stim/MorphM4_08_orig.jpg,54,,,,,,,,,0,54,54,54,,,,,,,,,,,,,,,1.552734375,-0.46875,1,0,0,1.42325401306,,,2015_Oct_24_1213,G,facesParametric,20,59.7296269661,
./stim/MorphF7_09_orig.jpg,55,,,,,,,,,0,55,55,55,,,,,,,,,,,,,,,1.5234375,-0.498046875,1,0,0,1.53988909721,,,2015_Oct_24_1213,G,facesParametric,20,59.7296269661,
./stim/MorphM3_02_orig.jpg,56,,,,,,,,,0,56,56,56,,,,,,,,,,,,,,,1.494140625,-0.52734375,0,0,1,2.66419100761,,,2015_Oct_24_1213,G,facesParametric,20,59.7296269661,
./stim/MorphM4_10_orig.jpg,57,,,,,,,,,0,57,57,57,,,,,,,,,,,,,,,1.494140625,-0.52734375,1,0,0,2.32804203033,,,2015_Oct_24_1213,G,facesParametric,20,59.7296269661,
./stim/MorphF6_07_orig.jpg,58,,,,,,,,,0,58,58,58,,,,,,,,,,,,,,,1.494140625,-0.52734375,1,0,0,1.12099289894,,,2015_Oct_24_1213,G,facesParametric,20,59.7296269661,
./stim/MorphM10_00_orig.jpg,59,,,,,,,,,0,59,59,59,,,,,,,,,,,,,,,1.494140625,-0.52734375,0,0,1,1.28901600838,,,2015_Oct_24_1213,G,facesParametric,20,59.7296269661,
./stim/MorphF6_06_orig.jpg,60,,,,,,,,,0,60,60,60,,,,,,,,,,,,,,,1.552734375,-0.5859375,0,0,1,5.24232792854,,,2015_Oct_24_1213,G,facesParametric,20,59.7296269661,
./stim/MorphM9_03_orig.jpg,61,,,,,,,,,0,61,61,61,,,,,,,,,,,,,,,1.552734375,-0.5859375,0,0,1,1.38973093033,,,2015_Oct_24_1213,G,facesParametric,20,59.7296269661,
./stim/MorphM1_05_orig.jpg,62,,,,,,,,,0,62,62,62,,,,,,,,,,,,,,,1.552734375,-0.5859375,0,0,1,1.27218699455,,,2015_Oct_24_1213,G,facesParametric,20,59.7296269661,
./stim/MorphF4_01_orig.jpg,63,,,,,,,,,0,63,63,63,,,,,,,,,,,,,,,1.5234375,-0.556640625,0,0,1,1.23924589157,,,2015_Oct_24_1213,G,facesParametric,20,59.7296269661,
./stim/MorphF2_10_orig.jpg,64,,,,,,,,,0,64,64,64,,,,,,,,,,,,,,,1.494140625,-0.52734375,1,0,0,1.57346892357,,,2015_Oct_24_1213,G,facesParametric,20,59.7296269661,
./stim/MorphF1_09_orig.jpg,65,,,,,,,,,0,65,65,65,,,,,,,,,,,,,,,1.46484375,-0.556640625,1,0,0,4.35636901855,,,2015_Oct_24_1213,G,facesParametric,20,59.7296269661,
./stim/MorphF9_07_orig.jpg,66,,,,,,,,,0,66,66,66,,,,,,,,,,,,,,,1.435546875,-0.556640625,1,0,0,1.4718708992,,,2015_Oct_24_1213,G,facesParametric,20,59.7296269661,
./stim/MorphM1_00_orig.jpg,67,,,,,,,,,0,67,67,67,,,,,,,,,,,,,,,1.435546875,-0.556640625,0,0,1,2.59581208229,,,2015_Oct_24_1213,G,facesParametric,20,59.7296269661,
./stim/MorphF3_01_orig.jpg,68,,,,,,,,,0,68,68,68,,,,,,,,,,,,,,,1.40625,-0.5859375,0,0,1,2.178180933,,,2015_Oct_24_1213,G,facesParametric,20,59.7296269661,
./stim/MorphF1_03_orig.jpg,69,,,,,,,,,0,69,69,69,,,,,,,,,,,,,,,1.376953125,-0.556640625,1,0,0,2.02517104149,,,2015_Oct_24_1213,G,facesParametric,20,59.7296269661,
./stim/MorphM2_03_orig.jpg,70,,,,,,,,,0,70,70,70,,,,,,,,,,,,,,,1.376953125,-0.556640625,0,0,1,2.46152305603,,,2015_Oct_24_1213,G,facesParametric,20,59.7296269661,
./stim/MorphM10_09_orig.jpg,71,,,,,,,,,0,71,71,71,,,,,,,,,,,,,,,1.40625,-0.52734375,1,0,0,4.35515904427,,,2015_Oct_24_1213,G,facesParametric,20,59.7296269661,
./stim/MorphM9_08_orig.jpg,72,,,,,,,,,0,72,72,72,,,,,,,,,,,,,,,1.40625,-0.52734375,1,0,0,1.23953485489,,,2015_Oct_24_1213,G,facesParametric,20,59.7296269661,
./stim/MorphM6_04_orig.jpg,73,,,,,,,,,0,73,73,73,,,,,,,,,,,,,,,1.40625,-0.52734375,0,0,1,1.47323989868,,,2015_Oct_24_1213,G,facesParametric,20,59.7296269661,
./stim/MorphF5_04_orig.jpg,74,,,,,,,,,0,74,74,74,,,,,,,,,,,,,,,1.40625,-0.52734375,0,0,1,2.32691407204,,,2015_Oct_24_1213,G,facesParametric,20,59.7296269661,
./stim/MorphM7_06_orig.jpg,75,,,,,,,,,0,75,75,75,,,,,,,,,,,,,,,1.40625,-0.52734375,0,0,1,5.69668912888,,,2015_Oct_24_1213,G,facesParametric,20,59.7296269661,
./stim/MorphM1_07_orig.jpg,76,,,,,,,,,0,76,76,76,,,,,,,,,,,,,,,1.40625,-0.52734375,0,0,1,4.00289607048,,,2015_Oct_24_1213,G,facesParametric,20,59.7296269661,
./stim/MorphM4_03_orig.jpg,77,,,,,,,,,0,77,77,77,,,,,,,,,,,,,,,1.40625,-0.52734375,1,0,0,2.73077917099,,,2015_Oct_24_1213,G,facesParametric,20,59.7296269661,
./stim/MorphF10_10_orig.jpg,78,,,,,,,,,0,78,78,78,,,,,,,,,,,,,,,1.40625,-0.556640625,1,0,0,1.67553901672,,,2015_Oct_24_1213,G,facesParametric,20,59.7296269661,
./stim/MorphM10_07_orig.jpg,79,,,,,,,,,0,79,79,79,,,,,,,,,,,,,,,1.40625,-0.556640625,1,0,0,1.07058000565,,,2015_Oct_24_1213,G,facesParametric,20,59.7296269661,
./stim/MorphM2_04_orig.jpg,80,,,,,,,,,0,80,80,80,,,,,,,,,,,,,,,1.40625,-0.556640625,0,0,1,1.20514798164,,,2015_Oct_24_1213,G,facesParametric,20,59.7296269661,
./stim/MorphF5_08_orig.jpg,81,,,,,,,,,0,81,81,81,,,,,,,,,,,,,,,1.376953125,-0.52734375,1,0,0,2.02424788475,,,2015_Oct_24_1213,G,facesParametric,20,59.7296269661,
./stim/MorphM4_05_orig.jpg,82,,,,,,,,,0,82,82,82,,,,,,,,,,,,,,,1.318359375,-0.5859375,1,0,0,10.1202199459,,,2015_Oct_24_1213,G,facesParametric,20,59.7296269661,
./stim/MorphF9_05_orig.jpg,83,,,,,,,,,0,83,83,83,,,,,,,,,,,,,,,1.2890625,-0.615234375,0,0,1,1.0867831707,,,2015_Oct_24_1213,G,facesParametric,20,59.7296269661,
./stim/MorphF10_02_orig.jpg,84,,,,,,,,,0,84,84,84,,,,,,,,,,,,,,,1.2890625,-0.615234375,0,0,1,1.02144217491,,,2015_Oct_24_1213,G,facesParametric,20,59.7296269661,
./stim/MorphF3_05_orig.jpg,85,,,,,,,,,0,85,85,85,,,,,,,,,,,,,,,1.23046875,-0.5859375,0,0,1,2.34459996223,,,2015_Oct_24_1213,G,facesParametric,20,59.7296269661,
./stim/MorphF10_04_orig.jpg,86,,,,,,,,,0,86,86,86,,,,,,,,,,,,,,,1.201171875,-0.556640625,0,0,1,2.19428014755,,,2015_Oct_24_1213,G,facesParametric,20,59.7296269661,
./stim/MorphM5_09_orig.jpg,87,,,,,,,,,0,87,87,87,,,,,,,,,,,,,,,1.201171875,-0.556640625,1,0,0,1.43979096413,,,2015_Oct_24_1213,G,facesParametric,20,59.7296269661,
./stim/MorphM7_05_orig.jpg,88,,,,,,,,,0,88,88,88,,,,,,,,,,,,,,,1.23046875,-0.52734375,0,0,1,1.6918721199,,,2015_Oct_24_1213,G,facesParametric,20,59.7296269661,
./stim/MorphF8_09_orig.jpg,89,,,,,,,,,0,89,89,89,,,,,,,,,,,,,,,1.23046875,-0.556640625,1,0,0,4.50716996193,,,2015_Oct_24_1213,G,facesParametric,20,59.7296269661,
./stim/MorphM6_07_orig.jpg,90,,,,,,,,,0,90,90,90,,,,,,,,,,,,,,,1.259765625,-0.52734375,1,0,0,1.4391310215,,,2015_Oct_24_1213,G,facesParametric,20,59.7296269661,
./stim/MorphM1_02_orig.jpg,91,,,,,,,,,0,91,91,91,,,,,,,,,,,,,,,1.2890625,-0.556640625,0,0,1,2.02679610252,,,2015_Oct_24_1213,G,facesParametric,20,59.7296269661,
./stim/MorphM6_09_orig.jpg,92,,,,,,,,,0,92,92,92,,,,,,,,,,,,,,,1.259765625,-0.5859375,1,0,0,1.49017500877,,,2015_Oct_24_1213,G,facesParametric,20,59.7296269661,
./stim/MorphF9_04_orig.jpg,93,,,,,,,,,0,93,93,93,,,,,,,,,,,,,,,1.2890625,-0.615234375,0,0,1,3.76840281487,,,2015_Oct_24_1213,G,facesParametric,20,59.7296269661,
./stim/MorphF3_09_orig.jpg,94,,,,,,,,,0,94,94,94,,,,,,,,,,,,,,,1.259765625,-0.703125,1,0,0,1.55715703964,,,2015_Oct_24_1213,G,facesParametric,20,59.7296269661,
./stim/MorphF7_03_orig.jpg,95,,,,,,,,,0,95,95,95,,,,,,,,,,,,,,,1.23046875,-0.732421875,0,0,1,1.47391414642,,,2015_Oct_24_1213,G,facesParametric,20,59.7296269661,
./stim/MorphM8_08_orig.jpg,96,,,,,,,,,0,96,96,96,,,,,,,,,,,,,,,1.23046875,-0.732421875,1,0,0,1.47373390198,,,2015_Oct_24_1213,G,facesParametric,20,59.7296269661,
./stim/MorphM9_00_orig.jpg,97,,,,,,,,,0,97,97,97,,,,,,,,,,,,,,,1.201171875,-0.703125,0,0,1,3.06480097771,,,2015_Oct_24_1213,G,facesParametric,20,59.7296269661,
./stim/MorphF4_05_orig.jpg,98,,,,,,,,,0,98,98,98,,,,,,,,,,,,,,,1.201171875,-0.703125,0,0,1,4.05435490608,,,2015_Oct_24_1213,G,facesParametric,20,59.7296269661,
./stim/MorphM6_00_orig.jpg,99,,,,,,,,,0,99,99,99,,,,,,,,,,,,,,,1.201171875,-0.703125,0,0,1,5.1105389595,,,2015_Oct_24_1213,G,facesParametric,20,59.7296269661,
./stim/MorphM9_05_orig.jpg,100,,,,,,,,,0,100,100,100,,,,,,,,,,,,,,,1.201171875,-0.703125,1,0,0,1.57451701164,,,2015_Oct_24_1213,G,facesParametric,20,59.7296269661,
./stim/MorphM10_03_orig.jpg,101,,,,,,,,,0,101,101,101,,,,,,,,,,,,,,,1.201171875,-0.703125,0,0,1,3.19986987114,,,2015_Oct_24_1213,G,facesParametric,20,59.7296269661,
./stim/MorphM9_02_orig.jpg,102,,,,,,,,,0,102,102,102,,,,,,,,,,,,,,,1.201171875,-0.703125,0,0,1,2.51287579536,,,2015_Oct_24_1213,G,facesParametric,20,59.7296269661,
./stim/MorphF3_10_orig.jpg,103,,,,,,,,,0,103,103,103,,,,,,,,,,,,,,,1.201171875,-0.703125,1,0,0,1.57343411446,,,2015_Oct_24_1213,G,facesParametric,20,59.7296269661,
./stim/MorphF7_06_orig.jpg,104,,,,,,,,,0,104,104,104,,,,,,,,,,,,,,,1.201171875,-0.703125,0,0,1,6.14823293686,,,2015_Oct_24_1213,G,facesParametric,20,59.7296269661,
./stim/MorphM10_08_orig.jpg,105,,,,,,,,,0,105,105,105,,,,,,,,,,,,,,,1.142578125,-0.849609375,1,0,0,3.68654918671,,,2015_Oct_24_1213,G,facesParametric,20,59.7296269661,
./stim/MorphM5_02_orig.jpg,106,,,,,,,,,0,106,106,106,,,,,,,,,,,,,,,1.142578125,-0.8203125,1,0,0,1.47328996658,,,2015_Oct_24_1213,G,facesParametric,20,59.7296269661,
./stim/MorphF8_01_orig.jpg,107,,,,,,,,,0,107,107,107,,,,,,,,,,,,,,,1.142578125,-0.8203125,0,0,1,1.72500896454,,,2015_Oct_24_1213,G,facesParametric,20,59.7296269661,
./stim/MorphM10_01_orig.jpg,108,,,,,,,,,0,108,108,108,,,,,,,,,,,,,,,1.142578125,-0.791015625,0,0,1,2.34445691109,,,2015_Oct_24_1213,G,facesParametric,20,59.7296269661,
./stim/MorphF1_00_orig.jpg,109,,,,,,,,,0,109,109,109,,,,,,,,,,,,,,,1.142578125,-0.76171875,0,0,1,1.69229412079,,,2015_Oct_24_1213,G,facesParametric,20,59.7296269661,
./stim/MorphF4_00_orig.jpg,110,,,,,,,,,0,110,110,110,,,,,,,,,,,,,,,1.142578125,-0.76171875,0,0,1,3.21708607674,,,2015_Oct_24_1213,G,facesParametric,20,59.7296269661,
./stim/MorphF9_06_orig.jpg,111,,,,,,,,,0,111,111,111,,,,,,,,,,,,,,,1.142578125,-0.732421875,1,0,0,1.23813009262,,,2015_Oct_24_1213,G,facesParametric,20,59.7296269661,
./stim/MorphM2_07_orig.jpg,112,,,,,,,,,0,112,112,112,,,,,,,,,,,,,,,1.171875,-0.673828125,1,0,0,4.37179899216,,,2015_Oct_24_1213,G,facesParametric,20,59.7296269661,
./stim/MorphF1_10_orig.jpg,113,,,,,,,,,0,113,113,113,,,,,,,,,,,,,,,1.171875,-0.673828125,1,0,0,2.89821887016,,,2015_Oct_24_1213,G,facesParametric,20,59.7296269661,
./stim/MorphM6_05_orig.jpg,114,,,,,,,,,0,114,114,114,,,,,,,,,,,,,,,1.171875,-0.673828125,1,0,0,2.36185598373,,,2015_Oct_24_1213,G,facesParametric,20,59.7296269661,
./stim/MorphF1_04_orig.jpg,115,,,,,,,,,0,115,115,115,,,,,,,,,,,,,,,1.171875,-0.673828125,0,0,1,4.18871593475,,,2015_Oct_24_1213,G,facesParametric,20,59.7296269661,
./stim/MorphF5_02_orig.jpg,116,,,,,,,,,0,116,116,116,,,,,,,,,,,,,,,1.171875,-0.673828125,0,0,1,1.69137215614,,,2015_Oct_24_1213,G,facesParametric,20,59.7296269661,
./stim/MorphM8_09_orig.jpg,117,,,,,,,,,0,117,117,117,,,,,,,,,,,,,,,1.142578125,-0.76171875,1,0,0,2.81339406967,,,2015_Oct_24_1213,G,facesParametric,20,59.7296269661,
./stim/MorphF3_07_orig.jpg,118,,,,,,,,,0,118,118,118,,,,,,,,,,,,,,,1.142578125,-0.76171875,1,0,0,1.00317502022,,,2015_Oct_24_1213,G,facesParametric,20,59.7296269661,
./stim/MorphM5_01_orig.jpg,119,,,,,,,,,0,119,119,119,,,,,,,,,,,,,,,1.171875,-0.8203125,0,0,1,2.31119179726,,,2015_Oct_24_1213,G,facesParametric,20,59.7296269661,
./stim/MorphF9_02_orig.jpg,120,,,,,,,,,0,120,120,120,,,,,,,,,,,,,,,1.23046875,-0.87890625,0,0,1,4.65778207779,,,2015_Oct_24_1213,G,facesParametric,20,59.7296269661,
./stim/MorphM1_01_orig.jpg,121,,,,,,,,,0,121,121,121,,,,,,,,,,,,,,,1.259765625,-0.849609375,0,0,1,1.37353396416,,,2015_Oct_24_1213,G,facesParametric,20,59.7296269661,
./stim/MorphF5_09_orig.jpg,122,,,,,,,,,0,122,122,122,,,,,,,,,,,,,,,1.2890625,-0.8203125,1,0,0,1.22156500816,,,2015_Oct_24_1213,G,facesParametric,20,59.7296269661,
./stim/MorphF3_03_orig.jpg,123,,,,,,,,,0,123,123,123,,,,,,,,,,,,,,,1.318359375,-0.849609375,0,0,1,2.89829397202,,,2015_Oct_24_1213,G,facesParametric,20,59.7296269661,
./stim/MorphF4_04_orig.jpg,124,,,,,,,,,0,124,124,124,,,,,,,,,,,,,,,1.34765625,-0.8203125,1,0,0,1.32223701477,,,2015_Oct_24_1213,G,facesParametric,20,59.7296269661,
./stim/MorphF7_05_orig.jpg,125,,,,,,,,,0,125,125,125,,,,,,,,,,,,,,,1.318359375,-0.849609375,0,0,1,1.85873889923,,,2015_Oct_24_1213,G,facesParametric,20,59.7296269661,
./stim/MorphM1_06_orig.jpg,126,,,,,,,,,0,126,126,126,,,,,,,,,,,,,,,1.318359375,-0.849609375,0,0,1,11.0267930031,,,2015_Oct_24_1213,G,facesParametric,20,59.7296269661,
./stim/MorphM2_06_orig.jpg,127,,,,,,,,,0,127,127,127,,,,,,,,,,,,,,,1.2890625,-0.8203125,1,0,0,1.2055850029,,,2015_Oct_24_1213,G,facesParametric,20,59.7296269661,
./stim/MorphM4_01_orig.jpg,128,,,,,,,,,0,128,128,128,,,,,,,,,,,,,,,1.2890625,-0.791015625,0,0,1,1.74202895164,,,2015_Oct_24_1213,G,facesParametric,20,59.7296269661,
./stim/MorphM1_03_orig.jpg,129,,,,,,,,,0,129,129,129,,,,,,,,,,,,,,,1.259765625,-0.76171875,0,0,1,1.62234091759,,,2015_Oct_24_1213,G,facesParametric,20,59.7296269661,
./stim/MorphF7_00_orig.jpg,130,,,,,,,,,0,130,130,130,,,,,,,,,,,,,,,1.259765625,-0.76171875,0,0,1,1.12191700935,,,2015_Oct_24_1213,G,facesParametric,20,59.7296269661,
./stim/MorphF4_07_orig.jpg,131,,,,,,,,,0,131,131,131,,,,,,,,,,,,,,,1.259765625,-0.791015625,1,0,0,1.50705289841,,,2015_Oct_24_1213,G,facesParametric,20,59.7296269661,
./stim/MorphM5_06_orig.jpg,132,,,,,,,,,0,132,132,132,,,,,,,,,,,,,,,1.201171875,-0.849609375,1,0,0,1.62461996078,,,2015_Oct_24_1213,G,facesParametric,20,59.7296269661,
./stim/MorphF3_06_orig.jpg,133,,,,,,,,,0,133,133,133,,,,,,,,,,,,,,,1.171875,-0.76171875,0,0,1,4.54007411003,,,2015_Oct_24_1213,G,facesParametric,20,59.7296269661,
./stim/MorphF8_08_orig.jpg,134,,,,,,,,,0,134,134,134,,,,,,,,,,,,,,,1.142578125,-0.732421875,1,0,0,3.71730589867,,,2015_Oct_24_1213,G,facesParametric,20,59.7296269661,
./stim/MorphM2_00_orig.jpg,135,,,,,,,,,0,135,135,135,,,,,,,,,,,,,,,1.201171875,-0.703125,0,0,1,1.22245192528,,,2015_Oct_24_1213,G,facesParametric,20,59.7296269661,
./stim/MorphM6_10_orig.jpg,136,,,,,,,,,0,136,136,136,,,,,,,,,,,,,,,1.201171875,-0.703125,1,0,0,1.03596997261,,,2015_Oct_24_1213,G,facesParametric,20,59.7296269661,
./stim/MorphF10_05_orig.jpg,137,,,,,,,,,0,137,137,137,,,,,,,,,,,,,,,1.201171875,-0.703125,1,0,0,1.60677194595,,,2015_Oct_24_1213,G,facesParametric,20,59.7296269661,
./stim/MorphM5_07_orig.jpg,138,,,,,,,,,0,138,138,138,,,,,,,,,,,,,,,1.201171875,-0.703125,1,0,0,4.80872917175,,,2015_Oct_24_1213,G,facesParametric,20,59.7296269661,
./stim/MorphF10_09_orig.jpg,139,,,,,,,,,0,139,139,139,,,,,,,,,,,,,,,1.171875,-0.732421875,1,0,0,1.47389006615,,,2015_Oct_24_1213,G,facesParametric,20,59.7296269661,
./stim/MorphM3_10_orig.jpg,140,,,,,,,,,0,140,140,140,,,,,,,,,,,,,,,1.171875,-0.732421875,1,0,0,1.6578540802,,,2015_Oct_24_1213,G,facesParametric,20,59.7296269661,
./stim/MorphF6_03_orig.jpg,141,,,,,,,,,0,141,141,141,,,,,,,,,,,,,,,1.171875,-0.732421875,0,0,1,1.37294697762,,,2015_Oct_24_1213,G,facesParametric,20,59.7296269661,
./stim/MorphF3_04_orig.jpg,142,,,,,,,,,0,142,142,142,,,,,,,,,,,,,,,1.142578125,-0.76171875,0,0,1,1.89231300354,,,2015_Oct_24_1213,G,facesParametric,20,59.7296269661,
./stim/MorphM2_01_orig.jpg,143,,,,,,,,,0,143,143,143,,,,,,,,,,,,,,,1.142578125,-0.8203125,0,0,1,2.96493697166,,,2015_Oct_24_1213,G,facesParametric,20,59.7296269661,
./stim/MorphF4_09_orig.jpg,144,,,,,,,,,0,144,144,144,,,,,,,,,,,,,,,1.142578125,-0.8203125,1,0,0,1.08772301674,,,2015_Oct_24_1213,G,facesParametric,20,59.7296269661,
./stim/MorphM7_08_orig.jpg,145,,,,,,,,,0,145,145,145,,,,,,,,,,,,,,,1.142578125,-0.791015625,1,0,0,1.94305515289,,,2015_Oct_24_1213,G,facesParametric,20,59.7296269661,
./stim/MorphF7_08_orig.jpg,146,,,,,,,,,0,146,146,146,,,,,,,,,,,,,,,1.142578125,-0.791015625,1,0,0,1.55828905106,,,2015_Oct_24_1213,G,facesParametric,20,59.7296269661,
./stim/MorphF3_08_orig.jpg,147,,,,,,,,,0,147,147,147,,,,,,,,,,,,,,,1.201171875,-0.791015625,1,0,0,1.62164592743,,,2015_Oct_24_1213,G,facesParametric,20,59.7296269661,
./stim/MorphM9_10_orig.jpg,148,,,,,,,,,0,148,148,148,,,,,,,,,,,,,,,1.201171875,-0.791015625,1,0,0,2.91479992867,,,2015_Oct_24_1213,G,facesParametric,20,59.7296269661,
./stim/MorphF10_06_orig.jpg,149,,,,,,,,,0,149,149,149,,,,,,,,,,,,,,,1.201171875,-0.791015625,1,0,0,1.47404289246,,,2015_Oct_24_1213,G,facesParametric,20,59.7296269661,
./stim/MorphF9_08_orig.jpg,150,,,,,,,,,0,150,150,150,,,,,,,,,,,,,,,1.201171875,-0.791015625,1,0,0,2.98039507866,,,2015_Oct_24_1213,G,facesParametric,20,59.7296269661,
./stim/MorphM3_06_orig.jpg,151,,,,,,,,,0,151,151,151,,,,,,,,,,,,,,,1.171875,-0.76171875,0,0,1,2.84595799446,,,2015_Oct_24_1213,G,facesParametric,20,59.7296269661,
./stim/MorphM1_04_orig.jpg,152,,,,,,,,,0,152,152,152,,,,,,,,,,,,,,,1.171875,-0.76171875,0,0,1,2.40991091728,,,2015_Oct_24_1213,G,facesParametric,20,59.7296269661,
./stim/MorphF6_00_orig.jpg,153,,,,,,,,,0,153,153,153,,,,,,,,,,,,,,,1.171875,-0.76171875,0,0,1,0.920778036118,,,2015_Oct_24_1213,G,facesParametric,20,59.7296269661,
./stim/MorphM3_07_orig.jpg,154,,,,,,,,,0,154,154,154,,,,,,,,,,,,,,,1.171875,-0.76171875,1,0,0,3.31544709206,,,2015_Oct_24_1213,G,facesParametric,20,59.7296269661,
./stim/MorphM8_10_orig.jpg,155,,,,,,,,,0,155,155,155,,,,,,,,,,,,,,,1.201171875,-0.732421875,1,0,0,5.16000103951,,,2015_Oct_24_1213,G,facesParametric,20,59.7296269661,
./stim/MorphM10_05_orig.jpg,156,,,,,,,,,0,156,156,156,,,,,,,,,,,,,,,1.259765625,-0.76171875,0,0,1,2.00912499428,,,2015_Oct_24_1213,G,facesParametric,20,59.7296269661,
./stim/MorphM7_09_orig.jpg,157,,,,,,,,,0,157,157,157,,,,,,,,,,,,,,,1.259765625,-0.76171875,1,0,0,2.24455499649,,,2015_Oct_24_1213,G,facesParametric,20,59.7296269661,
./stim/MorphF10_08_orig.jpg,158,,,,,,,,,0,158,158,158,,,,,,,,,,,,,,,1.2890625,-0.732421875,1,0,0,1.30544996262,,,2015_Oct_24_1213,G,facesParametric,20,59.7296269661,
./stim/MorphM5_03_orig.jpg,159,,,,,,,,,0,159,159,159,,,,,,,,,,,,,,,1.318359375,-0.76171875,1,0,0,4.72354888916,,,2015_Oct_24_1213,G,facesParametric,20,59.7296269661,
./stim/MorphM4_04_orig.jpg,160,,,,,,,,,0,160,160,160,,,,,,,,,,,,,,,1.2890625,-0.732421875,0,0,1,3.93703103065,,,2015_Oct_24_1213,G,facesParametric,20,59.7296269661,
./stim/MorphM2_10_orig.jpg,161,,,,,,,,,0,161,161,161,,,,,,,,,,,,,,,1.2890625,-0.732421875,1,0,0,1.65785598755,,,2015_Oct_24_1213,G,facesParametric,20,59.7296269661,
./stim/MorphF5_07_orig.jpg,162,,,,,,,,,0,162,162,162,,,,,,,,,,,,,,,1.2890625,-0.732421875,1,0,0,1.50572991371,,,2015_Oct_24_1213,G,facesParametric,20,59.7296269661,
./stim/MorphM7_02_orig.jpg,163,,,,,,,,,0,163,163,163,,,,,,,,,,,,,,,1.2890625,-0.732421875,0,0,1,1.74144101143,,,2015_Oct_24_1213,G,facesParametric,20,59.7296269661,
./stim/MorphF3_00_orig.jpg,164,,,,,,,,,0,164,164,164,,,,,,,,,,,,,,,1.2890625,-0.732421875,0,0,1,1.0545899868,,,2015_Oct_24_1213,G,facesParametric,20,59.7296269661,
./stim/MorphM7_00_orig.jpg,165,,,,,,,,,0,165,165,165,,,,,,,,,,,,,,,1.2890625,-0.732421875,0,0,1,1.35505199432,,,2015_Oct_24_1213,G,facesParametric,20,59.7296269661,
./stim/MorphM1_09_orig.jpg,166,,,,,,,,,0,166,166,166,,,,,,,,,,,,,,,1.259765625,-0.76171875,1,0,0,2.49576306343,,,2015_Oct_24_1213,G,facesParametric,20,59.7296269661,
./stim/MorphF8_10_orig.jpg,167,,,,,,,,,0,167,167,167,,,,,,,,,,,,,,,1.201171875,-0.703125,1,0,0,1.75844812393,,,2015_Oct_24_1213,G,facesParametric,20,59.7296269661,
./stim/MorphM3_04_orig.jpg,168,,,,,,,,,0,168,168,168,,,,,,,,,,,,,,,1.2890625,-0.791015625,0,0,1,2.96504688263,,,2015_Oct_24_1213,G,facesParametric,20,59.7296269661,
./stim/MorphM8_01_orig.jpg,169,,,,,,,,,0,169,169,169,,,,,,,,,,,,,,,1.435546875,-0.791015625,0,0,1,4.94109392166,,,2015_Oct_24_1213,G,facesParametric,20,59.7296269661,
./stim/MorphF8_00_orig.jpg,170,,,,,,,,,0,170,170,170,,,,,,,,,,,,,,,1.435546875,-0.791015625,0,0,1,1.00451898575,,,2015_Oct_24_1213,G,facesParametric,20,59.7296269661,
./stim/MorphF1_08_orig.jpg,171,,,,,,,,,0,171,171,171,,,,,,,,,,,,,,,1.46484375,-0.76171875,1,0,0,1.74158501625,,,2015_Oct_24_1213,G,facesParametric,20,59.7296269661,
./stim/MorphF7_01_orig.jpg,172,,,,,,,,,0,172,172,172,,,,,,,,,,,,,,,1.552734375,-0.732421875,0,0,1,1.70809412003,,,2015_Oct_24_1213,G,facesParametric,20,59.7296269661,
./stim/MorphM7_04_orig.jpg,173,,,,,,,,,0,173,173,173,,,,,,,,,,,,,,,1.611328125,-0.673828125,0,0,1,4.43931102753,,,2015_Oct_24_1213,G,facesParametric,20,59.7296269661,
./stim/MorphF4_10_orig.jpg,174,,,,,,,,,0,174,174,174,,,,,,,,,,,,,,,1.640625,-0.64453125,1,0,0,1.3386259079,,,2015_Oct_24_1213,G,facesParametric,20,59.7296269661,
./stim/MorphF7_07_orig.jpg,175,,,,,,,,,0,175,175,175,,,,,,,,,,,,,,,1.611328125,-0.673828125,0,0,1,2.58007192612,,,2015_Oct_24_1213,G,facesParametric,20,59.7296269661,
./stim/MorphF10_01_orig.jpg,176,,,,,,,,,0,176,176,176,,,,,,,,,,,,,,,1.58203125,-0.732421875,0,0,1,1.08845019341,,,2015_Oct_24_1213,G,facesParametric,20,59.7296269661,
./stim/MorphF6_09_orig.jpg,177,,,,,,,,,0,177,177,177,,,,,,,,,,,,,,,1.552734375,-0.703125,1,0,0,1.00225996971,,,2015_Oct_24_1213,G,facesParametric,20,59.7296269661,
./stim/MorphM3_05_orig.jpg,178,,,,,,,,,0,178,178,178,,,,,,,,,,,,,,,1.376953125,-0.556640625,1,0,0,2.12693691254,,,2015_Oct_24_1213,G,facesParametric,20,59.7296269661,
./stim/MorphM4_02_orig.jpg,179,,,,,,,,,0,179,179,179,,,,,,,,,,,,,,,1.435546875,-0.615234375,0,0,1,3.31740498543,,,2015_Oct_24_1213,G,facesParametric,20,59.7296269661,
./stim/MorphM8_07_orig.jpg,180,,,,,,,,,0,180,180,180,,,,,,,,,,,,,,,1.46484375,-0.64453125,0,0,1,4.59010720253,,,2015_Oct_24_1213,G,facesParametric,20,59.7296269661,
./stim/MorphM9_09_orig.jpg,181,,,,,,,,,0,181,181,181,,,,,,,,,,,,,,,1.69921875,-0.41015625,1,0,0,7.10403585434,,,2015_Oct_24_1213,G,facesParametric,20,59.7296269661,
./stim/MorphM7_01_orig.jpg,182,,,,,,,,,0,182,182,182,,,,,,,,,,,,,,,1.7578125,-0.439453125,0,0,1,1.30596113205,,,2015_Oct_24_1213,G,facesParametric,20,59.7296269661,
./stim/MorphF1_01_orig.jpg,183,,,,,,,,,0,183,183,183,,,,,,,,,,,,,,,1.7578125,-0.41015625,0,0,1,1.17164206505,,,2015_Oct_24_1213,G,facesParametric,20,59.7296269661,
./stim/MorphM8_06_orig.jpg,184,,,,,,,,,0,184,184,184,,,,,,,,,,,,,,,1.669921875,-0.380859375,1,0,0,2.29531097412,,,2015_Oct_24_1213,G,facesParametric,20,59.7296269661,
./stim/MorphF9_01_orig.jpg,185,,,,,,,,,0,185,185,185,,,,,,,,,,,,,,,1.728515625,-0.703125,0,0,1,3.66899299622,,,2015_Oct_24_1213,G,facesParametric,20,59.7296269661,
./stim/MorphF2_03_orig.jpg,186,,,,,,,,,0,186,186,186,,,,,,,,,,,,,,,1.7578125,-0.703125,1,0,0,5.56291007996,,,2015_Oct_24_1213,G,facesParametric,20,59.7296269661,
./stim/MorphM7_07_orig.jpg,187,,,,,,,,,0,187,187,187,,,,,,,,,,,,,,,1.787109375,-0.615234375,1,0,0,1.67474889755,,,2015_Oct_24_1213,G,facesParametric,20,59.7296269661,
./stim/MorphF8_03_orig.jpg,188,,,,,,,,,0,188,188,188,,,,,,,,,,,,,,,1.7578125,-0.64453125,0,0,1,1.62415003777,,,2015_Oct_24_1213,G,facesParametric,20,59.7296269661,
./stim/MorphF6_01_orig.jpg,189,,,,,,,,,0,189,189,189,,,,,,,,,,,,,,,1.728515625,-0.76171875,0,0,1,0.954349994659,,,2015_Oct_24_1213,G,facesParametric,20,59.7296269661,
./stim/MorphF9_00_orig.jpg,190,,,,,,,,,0,190,190,190,,,,,,,,,,,,,,,1.787109375,-0.849609375,0,0,1,1.07127118111,,,2015_Oct_24_1213,G,facesParametric,20,59.7296269661,
./stim/MorphM5_05_orig.jpg,191,,,,,,,,,0,191,191,191,,,,,,,,,,,,,,,1.845703125,-1.025390625,1,0,0,2.71357393265,,,2015_Oct_24_1213,G,facesParametric,20,59.7296269661,
./stim/MorphM4_09_orig.jpg,192,,,,,,,,,0,192,192,192,,,,,,,,,,,,,,,1.81640625,-1.083984375,1,0,0,2.78104090691,,,2015_Oct_24_1213,G,facesParametric,20,59.7296269661,
./stim/MorphM5_08_orig.jpg,193,,,,,,,,,0,193,193,193,,,,,,,,,,,,,,,1.81640625,-1.11328125,1,0,0,1.30519294739,,,2015_Oct_24_1213,G,facesParametric,20,59.7296269661,
./stim/MorphM10_10_orig.jpg,194,,,,,,,,,0,194,194,194,,,,,,,,,,,,,,,1.93359375,-1.0546875,1,0,0,2.16100001335,,,2015_Oct_24_1213,G,facesParametric,20,59.7296269661,
./stim/MorphF7_02_orig.jpg,195,,,,,,,,,0,195,195,195,,,,,,,,,,,,,,,1.93359375,-1.0546875,0,0,1,1.08763003349,,,2015_Oct_24_1213,G,facesParametric,20,59.7296269661,
./stim/MorphF9_10_orig.jpg,196,,,,,,,,,0,196,196,196,,,,,,,,,,,,,,,1.962890625,-1.083984375,1,0,0,1.79190611839,,,2015_Oct_24_1213,G,facesParametric,20,59.7296269661,
./stim/MorphF5_05_orig.jpg,197,,,,,,,,,0,197,197,197,,,,,,,,,,,,,,,1.93359375,-1.083984375,0,0,1,1.30556488037,,,2015_Oct_24_1213,G,facesParametric,20,59.7296269661,
./stim/MorphF7_10_orig.jpg,198,,,,,,,,,0,198,198,198,,,,,,,,,,,,,,,1.9921875,-1.142578125,1,0,0,1.85924196243,,,2015_Oct_24_1213,G,facesParametric,20,59.7296269661,
./stim/MorphF6_04_orig.jpg,199,,,,,,,,,0,199,199,199,,,,,,,,,,,,,,,2.05078125,-1.142578125,0,0,1,2.5283331871,,,2015_Oct_24_1213,G,facesParametric,20,59.7296269661,
./stim/MorphM4_00_orig.jpg,200,,,,,,,,,0,200,200,200,,,,,,,,,,,,,,,2.05078125,-1.0546875,0,0,1,3.48491692543,,,2015_Oct_24_1213,G,facesParametric,20,59.7296269661,
./stim/MorphF9_03_orig.jpg,201,,,,,,,,,0,201,201,201,,,,,,,,,,,,,,,2.021484375,-1.083984375,0,0,1,1.13692092896,,,2015_Oct_24_1213,G,facesParametric,20,59.7296269661,
./stim/MorphF4_03_orig.jpg,202,,,,,,,,,0,202,202,202,,,,,,,,,,,,,,,1.9921875,-1.0546875,0,0,1,1.50534200668,,,2015_Oct_24_1213,G,facesParametric,20,59.7296269661,
./stim/MorphM8_05_orig.jpg,203,,,,,,,,,0,203,203,203,,,,,,,,,,,,,,,2.05078125,-1.025390625,0,0,1,2.26031208038,,,2015_Oct_24_1213,G,facesParametric,20,59.7296269661,
./stim/MorphM9_01_orig.jpg,204,,,,,,,,,0,204,204,204,,,,,,,,,,,,,,,2.109375,-0.99609375,0,0,1,6.11610794067,,,2015_Oct_24_1213,G,facesParametric,20,59.7296269661,
./stim/MorphF8_04_orig.jpg,205,,,,,,,,,0,205,205,205,,,,,,,,,,,,,,,2.080078125,-0.99609375,0,0,1,1.27081489563,,,2015_Oct_24_1213,G,facesParametric,20,59.7296269661,
./stim/MorphM10_04_orig.jpg,206,,,,,,,,,0,206,206,206,,,,,,,,,,,,,,,2.05078125,-0.966796875,0,0,1,0.819967031479,,,2015_Oct_24_1213,G,facesParametric,20,59.7296269661,
./stim/MorphM1_10_orig.jpg,207,,,,,,,,,0,207,207,207,,,,,,,,,,,,,,,1.962890625,-0.9375,1,0,0,1.54069399834,,,2015_Oct_24_1213,G,facesParametric,20,59.7296269661,
./stim/MorphF1_06_orig.jpg,208,,,,,,,,,0,208,208,208,,,,,,,,,,,,,,,1.962890625,-0.9375,0,0,1,4.89261198044,,,2015_Oct_24_1213,G,facesParametric,20,59.7296269661,
./stim/MorphM5_10_orig.jpg,209,,,,,,,,,0,209,209,209,,,,,,,,,,,,,,,1.9921875,-1.0546875,1,0,0,1.47380709648,,,2015_Oct_24_1213,G,facesParametric,20,59.7296269661,
./stim/MorphM7_03_orig.jpg,210,,,,,,,,,0,210,210,210,,,,,,,,,,,,,,,1.962890625,-0.99609375,0,0,1,1.48989295959,,,2015_Oct_24_1213,G,facesParametric,20,59.7296269661,
./stim/MorphF10_07_orig.jpg,211,,,,,,,,,0,211,211,211,,,,,,,,,,,,,,,2.021484375,-1.11328125,1,0,0,1.07131290436,,,2015_Oct_24_1213,G,facesParametric,20,59.7296269661,
./stim/MorphF8_02_orig.jpg,212,,,,,,,,,0,212,212,212,,,,,,,,,,,,,,,2.05078125,-1.376953125,0,0,1,3.75305986404,,,2015_Oct_24_1213,G,facesParametric,20,59.7296269661,
./stim/MorphM3_03_orig.jpg,213,,,,,,,,,0,213,213,213,,,,,,,,,,,,,,,2.080078125,-1.40625,0,0,1,1.62286114693,,,2015_Oct_24_1213,G,facesParametric,20,59.7296269661,
./stim/MorphF6_02_orig.jpg,214,,,,,,,,,0,214,214,214,,,,,,,,,,,,,,,2.16796875,-1.34765625,0,0,1,0.936853885651,,,2015_Oct_24_1213,G,facesParametric,20,59.7296269661,
./stim/MorphM6_06_orig.jpg,215,,,,,,,,,0,215,215,215,,,,,,,,,,,,,,,2.28515625,-1.2890625,1,0,0,3.68370890617,,,2015_Oct_24_1213,G,facesParametric,20,59.7296269661,
./stim/MorphM3_09_orig.jpg,216,,,,,,,,,0,216,216,216,,,,,,,,,,,,,,,2.40234375,-1.201171875,1,0,0,1.17161107063,,,2015_Oct_24_1213,G,facesParametric,20,59.7296269661,
./stim/MorphM10_06_orig.jpg,217,,,,,,,,,0,217,217,217,,,,,,,,,,,,,,,2.431640625,-1.23046875,1,0,0,1.08757996559,,,2015_Oct_24_1213,G,facesParametric,20,59.7296269661,
./stim/MorphM2_05_orig.jpg,218,,,,,,,,,0,218,218,218,,,,,,,,,,,,,,,2.490234375,-1.376953125,0,0,1,2.44465494156,,,2015_Oct_24_1213,G,facesParametric,20,59.7296269661,
./stim/MorphM1_08_orig.jpg,219,,,,,,,,,0,219,219,219,,,,,,,,,,,,,,,2.490234375,-1.34765625,0,0,1,3.45122408867,,,2015_Oct_24_1213,G,facesParametric,20,59.7296269661,
