img,num,basicLoop.thisRepN,basicLoop.thisTrialN,basicLoop.thisN,basicLoop.thisIndex,trials.thisRepN,trials.thisTrialN,trials.thisN,trials.thisIndex,trials2.thisRepN,trials2.thisTrialN,trials2.thisN,trials2.thisIndex,key_resp_2.keys,key_resp_2.rt,basicRating1.response,basicRating1.rt,basicRating2.response,basicRating2.rt,basicRating3.response,basicRating3.rt,basicRating4.response,basicRating4.rt,key_resp_3.keys,key_resp_3.rt,key_resp_4.keys,key_resp_4.rt,mouseResp.x,mouseResp.y,mouseResp.leftButton,mouseResp.midButton,mouseResp.rightButton,mouseResp.time,key_resp_5.keys,key_resp_5.rt,key_resp_7.keys,key_resp_7.rt,date,group,expName,participant,frameRate,
,,,,,,,,,,,,,,return,59.0841178894,,,,,,,,,,,,,,,,,,,,,,,2015_Oct_26_0930,G,facesParametric,21,59.7560920012,
./basicStim/02F_HA_O.jpg,,0,0,0,10,,,,,,,,,,,HAP,4.571,None,None,None,None,None,None,,,,,,,,,,,,,,,2015_Oct_26_0930,G,facesParametric,21,59.7560920012,
./basicStim/07F_NE_C.jpg,,0,1,1,34,,,,,,,,,,,None,None,None,None,None,None,NTR,6.373,,,,,,,,,,,,,,,2015_Oct_26_0930,G,facesParametric,21,59.7560920012,
./basicStim/34M_HA_O.jpg,,0,2,2,73,,,,,,,,,,,HAP,1.782,None,None,None,None,None,None,,,,,,,,,,,,,,,2015_Oct_26_0930,G,facesParametric,21,59.7560920012,
./basicStim/24M_AN_O.jpg,,0,3,3,56,,,,,,,,,,,None,None,ANG,2.563,None,None,None,None,,,,,,,,,,,,,,,2015_Oct_26_0930,G,facesParametric,21,59.7560920012,
./basicStim/34M_SP_O.jpg,,0,4,4,75,,,,,,,,,,,None,None,None,None,SUP,1.311,None,None,,,,,,,,,,,,,,,2015_Oct_26_0930,G,facesParametric,21,59.7560920012,
./basicStim/07F_HA_O.jpg,,0,5,5,31,,,,,,,,,,,HAP,1.854,None,None,None,None,None,None,,,,,,,,,,,,,,,2015_Oct_26_0930,G,facesParametric,21,59.7560920012,
./basicStim/03F_FE_O.jpg,,0,6,6,16,,,,,,,,,,,None,None,None,None,SUP,3.085,None,None,,,,,,,,,,,,,,,2015_Oct_26_0930,G,facesParametric,21,59.7560920012,
./basicStim/01F_FE_O.jpg,,0,7,7,2,,,,,,,,,,,None,None,None,None,SUP,1.755,None,None,,,,,,,,,,,,,,,2015_Oct_26_0930,G,facesParametric,21,59.7560920012,
./basicStim/24M_NE_C.jpg,,0,8,8,62,,,,,,,,,,,None,None,ANG,5.767,None,None,None,None,,,,,,,,,,,,,,,2015_Oct_26_0930,G,facesParametric,21,59.7560920012,
./basicStim/02F_DI_O.jpg,,0,9,9,8,,,,,,,,,,,None,None,None,None,DIS,2.789,None,None,,,,,,,,,,,,,,,2015_Oct_26_0930,G,facesParametric,21,59.7560920012,
./basicStim/09F_HA_O.jpg,,0,10,10,38,,,,,,,,,,,HAP,0.999,None,None,None,None,None,None,,,,,,,,,,,,,,,2015_Oct_26_0930,G,facesParametric,21,59.7560920012,
./basicStim/03F_SP_O.jpg,,0,11,11,19,,,,,,,,,,,None,None,None,None,SUP,1.713,None,None,,,,,,,,,,,,,,,2015_Oct_26_0930,G,facesParametric,21,59.7560920012,
./basicStim/24M_HA_O.jpg,,0,12,12,59,,,,,,,,,,,HAP,1.615,None,None,None,None,None,None,,,,,,,,,,,,,,,2015_Oct_26_0930,G,facesParametric,21,59.7560920012,
./basicStim/07F_FE_O.jpg,,0,13,13,30,,,,,,,,,,,None,None,None,None,DIS,1.744,None,None,,,,,,,,,,,,,,,2015_Oct_26_0930,G,facesParametric,21,59.7560920012,
./basicStim/21M_DI_O.jpg,,0,14,14,43,,,,,,,,,,,None,None,None,None,DIS,0.708,None,None,,,,,,,,,,,,,,,2015_Oct_26_0930,G,facesParametric,21,59.7560920012,
./basicStim/21M_NE_C.jpg,,0,15,15,48,,,,,,,,,,,None,None,None,None,None,None,NTR,1.394,,,,,,,,,,,,,,,2015_Oct_26_0930,G,facesParametric,21,59.7560920012,
./basicStim/21M_SA_C.jpg,,0,16,16,46,,,,,,,,,,,None,None,None,None,None,None,NTR,7.248,,,,,,,,,,,,,,,2015_Oct_26_0930,G,facesParametric,21,59.7560920012,
./basicStim/28M_FE_O.jpg,,0,17,17,65,,,,,,,,,,,None,None,None,None,SUP,1.882,None,None,,,,,,,,,,,,,,,2015_Oct_26_0930,G,facesParametric,21,59.7560920012,
./basicStim/09F_NE_C.jpg,,0,18,18,41,,,,,,,,,,,None,None,None,None,None,None,NTR,1.506,,,,,,,,,,,,,,,2015_Oct_26_0930,G,facesParametric,21,59.7560920012,
./basicStim/03F_SA_C.jpg,,0,19,19,18,,,,,,,,,,,SAD,2.47,None,None,None,None,None,None,,,,,,,,,,,,,,,2015_Oct_26_0930,G,facesParametric,21,59.7560920012,
./basicStim/28M_SP_O.jpg,,0,20,20,68,,,,,,,,,,,SAD,11.366,None,None,None,None,None,None,,,,,,,,,,,,,,,2015_Oct_26_0930,G,facesParametric,21,59.7560920012,
./basicStim/09F_AN_O.jpg,,0,21,21,35,,,,,,,,,,,None,None,ANG,1.428,None,None,None,None,,,,,,,,,,,,,,,2015_Oct_26_0930,G,facesParametric,21,59.7560920012,
./basicStim/34M_AN_O.jpg,,0,22,22,70,,,,,,,,,,,None,None,ANG,7.158,None,None,None,None,,,,,,,,,,,,,,,2015_Oct_26_0930,G,facesParametric,21,59.7560920012,
./basicStim/02F_AN_O.jpg,,0,23,23,7,,,,,,,,,,,None,None,ANG,0.84,None,None,None,None,,,,,,,,,,,,,,,2015_Oct_26_0930,G,facesParametric,21,59.7560920012,
./basicStim/24M_SP_O.jpg,,0,24,24,61,,,,,,,,,,,None,None,None,None,SUP,1.227,None,None,,,,,,,,,,,,,,,2015_Oct_26_0930,G,facesParametric,21,59.7560920012,
./basicStim/06F_AN_O.jpg,,0,25,25,21,,,,,,,,,,,None,None,None,None,DIS,2.28,None,None,,,,,,,,,,,,,,,2015_Oct_26_0930,G,facesParametric,21,59.7560920012,
./basicStim/03F_NE_C.jpg,,0,26,26,20,,,,,,,,,,,None,None,None,None,None,None,NTR,1.058,,,,,,,,,,,,,,,2015_Oct_26_0930,G,facesParametric,21,59.7560920012,
./basicStim/07F_SP_O.jpg,,0,27,27,33,,,,,,,,,,,None,None,None,None,None,None,NTR,13.427,,,,,,,,,,,,,,,2015_Oct_26_0930,G,facesParametric,21,59.7560920012,
./basicStim/23M_FE_O.jpg,,0,28,28,51,,,,,,,,,,,None,None,None,None,DIS,3.452,None,None,,,,,,,,,,,,,,,2015_Oct_26_0930,G,facesParametric,21,59.7560920012,
./basicStim/28M_DI_O.jpg,,0,29,29,64,,,,,,,,,,,None,None,None,None,DIS,3.492,None,None,,,,,,,,,,,,,,,2015_Oct_26_0930,G,facesParametric,21,59.7560920012,
./basicStim/06F_NE_C.jpg,,0,30,30,27,,,,,,,,,,,None,None,None,None,None,None,NTR,1.597,,,,,,,,,,,,,,,2015_Oct_26_0930,G,facesParametric,21,59.7560920012,
./basicStim/21M_HA_O.jpg,,0,31,31,45,,,,,,,,,,,HAP,0.994,None,None,None,None,None,None,,,,,,,,,,,,,,,2015_Oct_26_0930,G,facesParametric,21,59.7560920012,
./basicStim/01F_AN_O.jpg,,0,32,32,0,,,,,,,,,,,None,None,ANG,1.746,None,None,None,None,,,,,,,,,,,,,,,2015_Oct_26_0930,G,facesParametric,21,59.7560920012,
./basicStim/34M_SA_C.jpg,,0,33,33,74,,,,,,,,,,,SAD,10.985,None,None,None,None,None,None,,,,,,,,,,,,,,,2015_Oct_26_0930,G,facesParametric,21,59.7560920012,
./basicStim/36M_FE_O.jpg,,0,34,34,79,,,,,,,,,,,None,None,None,None,DIS,2.117,None,None,,,,,,,,,,,,,,,2015_Oct_26_0930,G,facesParametric,21,59.7560920012,
./basicStim/02F_SA_C.jpg,,0,35,35,11,,,,,,,,,,,SAD,1.662,None,None,None,None,None,None,,,,,,,,,,,,,,,2015_Oct_26_0930,G,facesParametric,21,59.7560920012,
./basicStim/06F_SA_C.jpg,,0,36,36,25,,,,,,,,,,,SAD,3.864,None,None,None,None,None,None,,,,,,,,,,,,,,,2015_Oct_26_0930,G,facesParametric,21,59.7560920012,
./basicStim/28M_AN_O.jpg,,0,37,37,63,,,,,,,,,,,None,None,ANG,3.961,None,None,None,None,,,,,,,,,,,,,,,2015_Oct_26_0930,G,facesParametric,21,59.7560920012,
./basicStim/06F_HA_O.jpg,,0,38,38,24,,,,,,,,,,,HAP,1.47,None,None,None,None,None,None,,,,,,,,,,,,,,,2015_Oct_26_0930,G,facesParametric,21,59.7560920012,
./basicStim/06F_DI_O.jpg,,0,39,39,22,,,,,,,,,,,None,None,None,None,DIS,1.512,None,None,,,,,,,,,,,,,,,2015_Oct_26_0930,G,facesParametric,21,59.7560920012,
./basicStim/34M_FE_O.jpg,,0,40,40,72,,,,,,,,,,,None,None,FEA,2.92,None,None,None,None,,,,,,,,,,,,,,,2015_Oct_26_0930,G,facesParametric,21,59.7560920012,
./basicStim/23M_AN_O.jpg,,0,41,41,49,,,,,,,,,,,None,None,ANG,1.425,None,None,None,None,,,,,,,,,,,,,,,2015_Oct_26_0930,G,facesParametric,21,59.7560920012,
./basicStim/03F_HA_O.jpg,,0,42,42,17,,,,,,,,,,,HAP,1.295,None,None,None,None,None,None,,,,,,,,,,,,,,,2015_Oct_26_0930,G,facesParametric,21,59.7560920012,
./basicStim/09F_FE_O.jpg,,0,43,43,37,,,,,,,,,,,None,None,FEA,2.286,None,None,None,None,,,,,,,,,,,,,,,2015_Oct_26_0930,G,facesParametric,21,59.7560920012,
./basicStim/24M_SA_C.jpg,,0,44,44,60,,,,,,,,,,,SAD,2.269,None,None,None,None,None,None,,,,,,,,,,,,,,,2015_Oct_26_0930,G,facesParametric,21,59.7560920012,
./basicStim/02F_SP_O.jpg,,0,45,45,12,,,,,,,,,,,None,None,None,None,SUP,1.491,None,None,,,,,,,,,,,,,,,2015_Oct_26_0930,G,facesParametric,21,59.7560920012,
./basicStim/07F_SA_C.jpg,,0,46,46,32,,,,,,,,,,,SAD,1.648,None,None,None,None,None,None,,,,,,,,,,,,,,,2015_Oct_26_0930,G,facesParametric,21,59.7560920012,
./basicStim/21M_SP_O.jpg,,0,47,47,47,,,,,,,,,,,None,None,None,None,SUP,2.597,None,None,,,,,,,,,,,,,,,2015_Oct_26_0930,G,facesParametric,21,59.7560920012,
./basicStim/02F_NE_C.jpg,,0,48,48,13,,,,,,,,,,,None,None,None,None,None,None,NTR,1.324,,,,,,,,,,,,,,,2015_Oct_26_0930,G,facesParametric,21,59.7560920012,
./basicStim/34M_NE_C.jpg,,0,49,49,76,,,,,,,,,,,None,None,None,None,None,None,NTR,0.909,,,,,,,,,,,,,,,2015_Oct_26_0930,G,facesParametric,21,59.7560920012,
./basicStim/01F_NE_C.jpg,,0,50,50,6,,,,,,,,,,,None,None,None,None,None,None,NTR,0.857,,,,,,,,,,,,,,,2015_Oct_26_0930,G,facesParametric,21,59.7560920012,
./basicStim/01F_SP_O.jpg,,0,51,51,5,,,,,,,,,,,None,None,None,None,SUP,3.339,None,None,,,,,,,,,,,,,,,2015_Oct_26_0930,G,facesParametric,21,59.7560920012,
./basicStim/02F_FE_O.jpg,,0,52,52,9,,,,,,,,,,,None,None,FEA,3.122,None,None,None,None,,,,,,,,,,,,,,,2015_Oct_26_0930,G,facesParametric,21,59.7560920012,
./basicStim/23M_DI_O.jpg,,0,53,53,50,,,,,,,,,,,SAD,1.562,None,None,None,None,None,None,,,,,,,,,,,,,,,2015_Oct_26_0930,G,facesParametric,21,59.7560920012,
./basicStim/23M_SA_C.jpg,,0,54,54,53,,,,,,,,,,,SAD,0.567,None,None,None,None,None,None,,,,,,,,,,,,,,,2015_Oct_26_0930,G,facesParametric,21,59.7560920012,
./basicStim/36M_DI_O.jpg,,0,55,55,78,,,,,,,,,,,None,None,None,None,DIS,2.774,None,None,,,,,,,,,,,,,,,2015_Oct_26_0930,G,facesParametric,21,59.7560920012,
./basicStim/34M_DI_O.jpg,,0,56,56,71,,,,,,,,,,,None,None,None,None,DIS,0.82,None,None,,,,,,,,,,,,,,,2015_Oct_26_0930,G,facesParametric,21,59.7560920012,
./basicStim/36M_SP_O.jpg,,0,57,57,82,,,,,,,,,,,None,None,None,None,SUP,1.178,None,None,,,,,,,,,,,,,,,2015_Oct_26_0930,G,facesParametric,21,59.7560920012,
./basicStim/28M_NE_C.jpg,,0,58,58,69,,,,,,,,,,,None,None,None,None,None,None,NTR,1.057,,,,,,,,,,,,,,,2015_Oct_26_0930,G,facesParametric,21,59.7560920012,
./basicStim/23M_SP_O.jpg,,0,59,59,54,,,,,,,,,,,None,None,None,None,SUP,3.876,None,None,,,,,,,,,,,,,,,2015_Oct_26_0930,G,facesParametric,21,59.7560920012,
./basicStim/01F_HA_O.jpg,,0,60,60,3,,,,,,,,,,,HAP,1.296,None,None,None,None,None,None,,,,,,,,,,,,,,,2015_Oct_26_0930,G,facesParametric,21,59.7560920012,
./basicStim/09F_DI_O.jpg,,0,61,61,36,,,,,,,,,,,None,None,None,None,DIS,0.996,None,None,,,,,,,,,,,,,,,2015_Oct_26_0930,G,facesParametric,21,59.7560920012,
./basicStim/06F_FE_O.jpg,,0,62,62,23,,,,,,,,,,,None,None,FEA,2.517,None,None,None,None,,,,,,,,,,,,,,,2015_Oct_26_0930,G,facesParametric,21,59.7560920012,
./basicStim/36M_SA_C.jpg,,0,63,63,81,,,,,,,,,,,SAD,3.592,None,None,None,None,None,None,,,,,,,,,,,,,,,2015_Oct_26_0930,G,facesParametric,21,59.7560920012,
./basicStim/01F_SA_C.jpg,,0,64,64,4,,,,,,,,,,,SAD,0.792,None,None,None,None,None,None,,,,,,,,,,,,,,,2015_Oct_26_0930,G,facesParametric,21,59.7560920012,
./basicStim/03F_AN_O.jpg,,0,65,65,14,,,,,,,,,,,None,None,ANG,0.891,None,None,None,None,,,,,,,,,,,,,,,2015_Oct_26_0930,G,facesParametric,21,59.7560920012,
./basicStim/21M_AN_O.jpg,,0,66,66,42,,,,,,,,,,,None,None,ANG,0.647,None,None,None,None,,,,,,,,,,,,,,,2015_Oct_26_0930,G,facesParametric,21,59.7560920012,
./basicStim/06F_SP_O.jpg,,0,67,67,26,,,,,,,,,,,None,None,None,None,SUP,1.745,None,None,,,,,,,,,,,,,,,2015_Oct_26_0930,G,facesParametric,21,59.7560920012,
./basicStim/24M_DI_O.jpg,,0,68,68,57,,,,,,,,,,,SAD,1.364,None,None,None,None,None,None,,,,,,,,,,,,,,,2015_Oct_26_0930,G,facesParametric,21,59.7560920012,
./basicStim/23M_NE_C.jpg,,0,69,69,55,,,,,,,,,,,None,None,None,None,None,None,NTR,1.26,,,,,,,,,,,,,,,2015_Oct_26_0930,G,facesParametric,21,59.7560920012,
./basicStim/01F_DI_O.jpg,,0,70,70,1,,,,,,,,,,,None,None,None,None,DIS,1.441,None,None,,,,,,,,,,,,,,,2015_Oct_26_0930,G,facesParametric,21,59.7560920012,
./basicStim/21M_FE_O.jpg,,0,71,71,44,,,,,,,,,,,None,None,FEA,1.75,None,None,None,None,,,,,,,,,,,,,,,2015_Oct_26_0930,G,facesParametric,21,59.7560920012,
./basicStim/24M_FE_O.jpg,,0,72,72,58,,,,,,,,,,,None,None,None,None,SUP,5.062,None,None,,,,,,,,,,,,,,,2015_Oct_26_0930,G,facesParametric,21,59.7560920012,
./basicStim/36M_AN_O.jpg,,0,73,73,77,,,,,,,,,,,None,None,ANG,1.352,None,None,None,None,,,,,,,,,,,,,,,2015_Oct_26_0930,G,facesParametric,21,59.7560920012,
./basicStim/09F_SP_O.jpg,,0,74,74,40,,,,,,,,,,,None,None,None,None,SUP,1.047,None,None,,,,,,,,,,,,,,,2015_Oct_26_0930,G,facesParametric,21,59.7560920012,
./basicStim/09F_SA_C.jpg,,0,75,75,39,,,,,,,,,,,SAD,1.097,None,None,None,None,None,None,,,,,,,,,,,,,,,2015_Oct_26_0930,G,facesParametric,21,59.7560920012,
./basicStim/28M_HA_O.jpg,,0,76,76,66,,,,,,,,,,,HAP,1.251,None,None,None,None,None,None,,,,,,,,,,,,,,,2015_Oct_26_0930,G,facesParametric,21,59.7560920012,
./basicStim/28M_SA_C.jpg,,0,77,77,67,,,,,,,,,,,None,None,None,None,None,None,NTR,4.446,,,,,,,,,,,,,,,2015_Oct_26_0930,G,facesParametric,21,59.7560920012,
./basicStim/36M_NE_C.jpg,,0,78,78,83,,,,,,,,,,,None,None,None,None,None,None,NTR,0.505,,,,,,,,,,,,,,,2015_Oct_26_0930,G,facesParametric,21,59.7560920012,
./basicStim/07F_DI_O.jpg,,0,79,79,29,,,,,,,,,,,None,None,None,None,DIS,1.317,None,None,,,,,,,,,,,,,,,2015_Oct_26_0930,G,facesParametric,21,59.7560920012,
./basicStim/36M_HA_O.jpg,,0,80,80,80,,,,,,,,,,,HAP,0.979,None,None,None,None,None,None,,,,,,,,,,,,,,,2015_Oct_26_0930,G,facesParametric,21,59.7560920012,
./basicStim/07F_AN_O.jpg,,0,81,81,28,,,,,,,,,,,None,None,ANG,1.586,None,None,None,None,,,,,,,,,,,,,,,2015_Oct_26_0930,G,facesParametric,21,59.7560920012,
./basicStim/03F_DI_O.jpg,,0,82,82,15,,,,,,,,,,,None,None,None,None,DIS,1.492,None,None,,,,,,,,,,,,,,,2015_Oct_26_0930,G,facesParametric,21,59.7560920012,
./basicStim/23M_HA_O.jpg,,0,83,83,52,,,,,,,,,,,HAP,1.934,None,None,None,None,None,None,,,,,,,,,,,,,,,2015_Oct_26_0930,G,facesParametric,21,59.7560920012,
,,,,,,,,,,,,,,,,,,,,,,,,return,3.23497509956,,,,,,,,,,,,,2015_Oct_26_0930,G,facesParametric,21,59.7560920012,
,,,,,,,,,,,,,,return,10.155782938,,,,,,,,,,,,,,,,,,,,,,,2015_Oct_26_0930,G,facesParametric,21,59.7560920012,
,,,,,,,,,,,,,,,,,,,,,,,,return,6.08363294601,,,,,,,,,,,,,2015_Oct_26_0930,G,facesParametric,21,59.7560920012,
,,,,,,,,,,,,,,,,,,,,,,,,,,return,1.60871100426,,,,,,,,,,,2015_Oct_26_0930,G,facesParametric,21,59.7560920012,
./stim/MorphF8_00_orig.jpg,0,,,,,0,0,0,0,,,,,,,,,,,,,,,,,,,-3.837890625,-6.62109375,1,0,0,1.83274698257,,,,,2015_Oct_26_0930,G,facesParametric,21,59.7560920012,
./stim/MorphM3_00_orig.jpg,1,,,,,0,1,1,1,,,,,,,,,,,,,,,,,,,-3.837890625,-6.62109375,1,0,0,1.1011838913,,,,,2015_Oct_26_0930,G,facesParametric,21,59.7560920012,
./stim/MorphM4_02_orig.jpg,2,,,,,0,2,2,2,,,,,,,,,,,,,,,,,,,-3.837890625,-6.62109375,1,0,0,1.38992118835,,,,,2015_Oct_26_0930,G,facesParametric,21,59.7560920012,
./stim/MorphM10_07_orig.jpg,3,,,,,0,3,3,3,,,,,,,,,,,,,,,,,,,-3.837890625,-6.62109375,0,0,1,1.02090406418,,,,,2015_Oct_26_0930,G,facesParametric,21,59.7560920012,
./stim/MorphF4_04_orig.jpg,4,,,,,0,4,4,4,,,,,,,,,,,,,,,,,,,-3.837890625,-6.62109375,1,0,0,1.23823094368,,,,,2015_Oct_26_0930,G,facesParametric,21,59.7560920012,
./stim/MorphM6_04_orig.jpg,5,,,,,0,5,5,5,,,,,,,,,,,,,,,,,,,-3.837890625,-6.62109375,1,0,0,1.1869058609,,,,,2015_Oct_26_0930,G,facesParametric,21,59.7560920012,
./stim/MorphF1_01_orig.jpg,6,,,,,0,6,6,6,,,,,,,,,,,,,,,,,,,-3.837890625,-6.62109375,1,0,0,0.920737981796,,,,,2015_Oct_26_0930,G,facesParametric,21,59.7560920012,
./stim/MorphM4_05_orig.jpg,7,,,,,0,7,7,7,,,,,,,,,,,,,,,,,,,-3.837890625,-6.62109375,0,0,1,1.42221498489,,,,,2015_Oct_26_0930,G,facesParametric,21,59.7560920012,
./stim/MorphF7_06_orig.jpg,8,,,,,0,8,8,8,,,,,,,,,,,,,,,,,,,-3.837890625,-6.62109375,0,0,1,1.2539639473,,,,,2015_Oct_26_0930,G,facesParametric,21,59.7560920012,
./stim/MorphM8_01_orig.jpg,9,,,,,0,9,9,9,,,,,,,,,,,,,,,,,,,-3.837890625,-6.62109375,1,0,0,1.77502393723,,,,,2015_Oct_26_0930,G,facesParametric,21,59.7560920012,
./stim/MorphF7_03_orig.jpg,10,,,,,0,10,10,10,,,,,,,,,,,,,,,,,,,-3.837890625,-6.62109375,1,0,0,1.57445907593,,,,,2015_Oct_26_0930,G,facesParametric,21,59.7560920012,
./stim/MorphF8_02_orig.jpg,11,,,,,0,11,11,11,,,,,,,,,,,,,,,,,,,-3.837890625,-6.62109375,1,0,0,1.2216899395,,,,,2015_Oct_26_0930,G,facesParametric,21,59.7560920012,
./stim/MorphF5_02_orig.jpg,12,,,,,0,12,12,12,,,,,,,,,,,,,,,,,,,-3.837890625,-6.62109375,1,0,0,1.50514698029,,,,,2015_Oct_26_0930,G,facesParametric,21,59.7560920012,
./stim/MorphF8_03_orig.jpg,13,,,,,0,13,13,13,,,,,,,,,,,,,,,,,,,-3.837890625,-6.62109375,1,0,0,1.12230300903,,,,,2015_Oct_26_0930,G,facesParametric,21,59.7560920012,
./stim/MorphM7_03_orig.jpg,14,,,,,0,14,14,14,,,,,,,,,,,,,,,,,,,-3.837890625,-6.62109375,0,0,1,0.767644882202,,,,,2015_Oct_26_0930,G,facesParametric,21,59.7560920012,
./stim/MorphF4_06_orig.jpg,15,,,,,0,15,15,15,,,,,,,,,,,,,,,,,,,-3.837890625,-6.62109375,1,0,0,1.13816308975,,,,,2015_Oct_26_0930,G,facesParametric,21,59.7560920012,
./stim/MorphF3_03_orig.jpg,16,,,,,0,16,16,16,,,,,,,,,,,,,,,,,,,-3.837890625,-6.62109375,1,0,0,1.97618484497,,,,,2015_Oct_26_0930,G,facesParametric,21,59.7560920012,
./stim/MorphM10_01_orig.jpg,17,,,,,0,17,17,17,,,,,,,,,,,,,,,,,,,-3.837890625,-6.62109375,1,0,0,1.03653907776,,,,,2015_Oct_26_0930,G,facesParametric,21,59.7560920012,
./stim/MorphM4_01_orig.jpg,18,,,,,0,18,18,18,,,,,,,,,,,,,,,,,,,-3.837890625,-6.62109375,1,0,0,0.970488071442,,,,,2015_Oct_26_0930,G,facesParametric,21,59.7560920012,
./stim/MorphM3_06_orig.jpg,19,,,,,0,19,19,19,,,,,,,,,,,,,,,,,,,-3.837890625,-6.62109375,0,0,1,1.45716023445,,,,,2015_Oct_26_0930,G,facesParametric,21,59.7560920012,
./stim/MorphM1_01_orig.jpg,20,,,,,0,20,20,20,,,,,,,,,,,,,,,,,,,-3.837890625,-6.62109375,1,0,0,1.65805101395,,,,,2015_Oct_26_0930,G,facesParametric,21,59.7560920012,
./stim/MorphF4_09_orig.jpg,21,,,,,0,21,21,21,,,,,,,,,,,,,,,,,,,-3.837890625,-6.62109375,0,0,1,0.786828041077,,,,,2015_Oct_26_0930,G,facesParametric,21,59.7560920012,
./stim/MorphF1_09_orig.jpg,22,,,,,0,22,22,22,,,,,,,,,,,,,,,,,,,-3.837890625,-6.62109375,0,0,1,1.16941404343,,,,,2015_Oct_26_0930,G,facesParametric,21,59.7560920012,
./stim/MorphF3_00_orig.jpg,23,,,,,0,23,23,23,,,,,,,,,,,,,,,,,,,-3.837890625,-6.62109375,1,0,0,1.1215338707,,,,,2015_Oct_26_0930,G,facesParametric,21,59.7560920012,
./stim/MorphM9_05_orig.jpg,24,,,,,0,24,24,24,,,,,,,,,,,,,,,,,,,-3.837890625,-6.62109375,0,0,1,1.6565220356,,,,,2015_Oct_26_0930,G,facesParametric,21,59.7560920012,
./stim/MorphM5_09_orig.jpg,25,,,,,0,25,25,25,,,,,,,,,,,,,,,,,,,-3.837890625,-6.62109375,0,0,1,1.49004197121,,,,,2015_Oct_26_0930,G,facesParametric,21,59.7560920012,
./stim/MorphF5_09_orig.jpg,26,,,,,0,26,26,26,,,,,,,,,,,,,,,,,,,-3.837890625,-6.62109375,0,0,1,0.919458866119,,,,,2015_Oct_26_0930,G,facesParametric,21,59.7560920012,
./stim/MorphF4_10_orig.jpg,27,,,,,0,27,27,27,,,,,,,,,,,,,,,,,,,-3.837890625,-6.62109375,0,0,1,0.819605827332,,,,,2015_Oct_26_0930,G,facesParametric,21,59.7560920012,
./stim/MorphM9_08_orig.jpg,28,,,,,0,28,28,28,,,,,,,,,,,,,,,,,,,-3.837890625,-6.62109375,0,0,1,1.13923597336,,,,,2015_Oct_26_0930,G,facesParametric,21,59.7560920012,
./stim/MorphM7_00_orig.jpg,29,,,,,0,29,29,29,,,,,,,,,,,,,,,,,,,-3.837890625,-6.62109375,1,0,0,2.52875185013,,,,,2015_Oct_26_0930,G,facesParametric,21,59.7560920012,
./stim/MorphF3_09_orig.jpg,30,,,,,0,30,30,30,,,,,,,,,,,,,,,,,,,-3.837890625,-6.62109375,0,0,1,0.71737909317,,,,,2015_Oct_26_0930,G,facesParametric,21,59.7560920012,
./stim/MorphM6_09_orig.jpg,31,,,,,0,31,31,31,,,,,,,,,,,,,,,,,,,-3.837890625,-6.62109375,0,0,1,1.15584897995,,,,,2015_Oct_26_0930,G,facesParametric,21,59.7560920012,
./stim/MorphM3_04_orig.jpg,32,,,,,0,32,32,32,,,,,,,,,,,,,,,,,,,-3.837890625,-6.62109375,0,0,1,2.81344604492,,,,,2015_Oct_26_0930,G,facesParametric,21,59.7560920012,
./stim/MorphM2_08_orig.jpg,33,,,,,0,33,33,33,,,,,,,,,,,,,,,,,,,-3.837890625,-6.62109375,0,0,1,1.18877696991,,,,,2015_Oct_26_0930,G,facesParametric,21,59.7560920012,
./stim/MorphF5_05_orig.jpg,34,,,,,0,34,34,34,,,,,,,,,,,,,,,,,,,-3.837890625,-6.62109375,1,0,0,1.65808987617,,,,,2015_Oct_26_0930,G,facesParametric,21,59.7560920012,
./stim/MorphM7_09_orig.jpg,35,,,,,0,35,35,35,,,,,,,,,,,,,,,,,,,-3.837890625,-6.62109375,0,0,1,1.13846302032,,,,,2015_Oct_26_0930,G,facesParametric,21,59.7560920012,
./stim/MorphM3_10_orig.jpg,36,,,,,0,36,36,36,,,,,,,,,,,,,,,,,,,-3.837890625,-6.62109375,0,0,1,2.02641797066,,,,,2015_Oct_26_0930,G,facesParametric,21,59.7560920012,
./stim/MorphM8_08_orig.jpg,37,,,,,0,37,37,37,,,,,,,,,,,,,,,,,,,-3.837890625,-6.62109375,0,0,1,1.02082300186,,,,,2015_Oct_26_0930,G,facesParametric,21,59.7560920012,
./stim/MorphF2_00_orig.jpg,38,,,,,0,38,38,38,,,,,,,,,,,,,,,,,,,-3.837890625,-6.62109375,1,0,0,2.04306721687,,,,,2015_Oct_26_0930,G,facesParametric,21,59.7560920012,
./stim/MorphF9_06_orig.jpg,39,,,,,0,39,39,39,,,,,,,,,,,,,,,,,,,-3.837890625,-6.62109375,0,0,1,5.52882194519,,,,,2015_Oct_26_0930,G,facesParametric,21,59.7560920012,
./stim/MorphF2_01_orig.jpg,40,,,,,0,40,40,40,,,,,,,,,,,,,,,,,,,-3.837890625,-6.62109375,1,0,0,1.55702090263,,,,,2015_Oct_26_0930,G,facesParametric,21,59.7560920012,
./stim/MorphM7_04_orig.jpg,41,,,,,0,41,41,41,,,,,,,,,,,,,,,,,,,-3.837890625,-6.62109375,0,0,1,2.07731199265,,,,,2015_Oct_26_0930,G,facesParametric,21,59.7560920012,
./stim/MorphF7_00_orig.jpg,42,,,,,0,42,42,42,,,,,,,,,,,,,,,,,,,-3.837890625,-6.62109375,1,0,0,1.70671892166,,,,,2015_Oct_26_0930,G,facesParametric,21,59.7560920012,
./stim/MorphM6_08_orig.jpg,43,,,,,0,43,43,43,,,,,,,,,,,,,,,,,,,-3.837890625,-6.62109375,0,0,1,0.919474124908,,,,,2015_Oct_26_0930,G,facesParametric,21,59.7560920012,
./stim/MorphM9_03_orig.jpg,44,,,,,0,44,44,44,,,,,,,,,,,,,,,,,,,-3.837890625,-6.62109375,1,0,0,1.22101998329,,,,,2015_Oct_26_0930,G,facesParametric,21,59.7560920012,
./stim/MorphM1_03_orig.jpg,45,,,,,0,45,45,45,,,,,,,,,,,,,,,,,,,-3.837890625,-6.62109375,1,0,0,1.13793182373,,,,,2015_Oct_26_0930,G,facesParametric,21,59.7560920012,
./stim/MorphM4_00_orig.jpg,46,,,,,0,46,46,46,,,,,,,,,,,,,,,,,,,-3.837890625,-6.62109375,1,0,0,0.903876066208,,,,,2015_Oct_26_0930,G,facesParametric,21,59.7560920012,
./stim/MorphM7_01_orig.jpg,47,,,,,0,47,47,47,,,,,,,,,,,,,,,,,,,-3.837890625,-6.62109375,1,0,0,1.89156007767,,,,,2015_Oct_26_0930,G,facesParametric,21,59.7560920012,
./stim/MorphF7_07_orig.jpg,48,,,,,0,48,48,48,,,,,,,,,,,,,,,,,,,-3.837890625,-6.62109375,0,0,1,0.886919975281,,,,,2015_Oct_26_0930,G,facesParametric,21,59.7560920012,
./stim/MorphM5_01_orig.jpg,49,,,,,0,49,49,49,,,,,,,,,,,,,,,,,,,-3.837890625,-6.62109375,1,0,0,2.31150794029,,,,,2015_Oct_26_0930,G,facesParametric,21,59.7560920012,
./stim/MorphF1_08_orig.jpg,50,,,,,0,50,50,50,,,,,,,,,,,,,,,,,,,-3.837890625,-6.62109375,0,0,1,1.00491809845,,,,,2015_Oct_26_0930,G,facesParametric,21,59.7560920012,
./stim/MorphM4_08_orig.jpg,51,,,,,0,51,51,51,,,,,,,,,,,,,,,,,,,-3.837890625,-6.62109375,0,0,1,0.918618917465,,,,,2015_Oct_26_0930,G,facesParametric,21,59.7560920012,
./stim/MorphF1_00_orig.jpg,52,,,,,0,52,52,52,,,,,,,,,,,,,,,,,,,-3.837890625,-6.62109375,1,0,0,1.77519583702,,,,,2015_Oct_26_0930,G,facesParametric,21,59.7560920012,
./stim/MorphF7_10_orig.jpg,53,,,,,0,53,53,53,,,,,,,,,,,,,,,,,,,-3.837890625,-6.62109375,0,0,1,1.60769510269,,,,,2015_Oct_26_0930,G,facesParametric,21,59.7560920012,
./stim/MorphM4_07_orig.jpg,54,,,,,0,54,54,54,,,,,,,,,,,,,,,,,,,-3.837890625,-6.62109375,0,0,1,1.87493085861,,,,,2015_Oct_26_0930,G,facesParametric,21,59.7560920012,
./stim/MorphM9_07_orig.jpg,55,,,,,0,55,55,55,,,,,,,,,,,,,,,,,,,-3.837890625,-6.62109375,0,0,1,1.79228019714,,,,,2015_Oct_26_0930,G,facesParametric,21,59.7560920012,
./stim/MorphM4_04_orig.jpg,56,,,,,0,56,56,56,,,,,,,,,,,,,,,,,,,-3.837890625,-6.62109375,0,0,1,2.93146300316,,,,,2015_Oct_26_0930,G,facesParametric,21,59.7560920012,
./stim/MorphM6_02_orig.jpg,57,,,,,0,57,57,57,,,,,,,,,,,,,,,,,,,-3.837890625,-6.62109375,1,0,0,1.75981998444,,,,,2015_Oct_26_0930,G,facesParametric,21,59.7560920012,
./stim/MorphF6_04_orig.jpg,58,,,,,0,58,58,58,,,,,,,,,,,,,,,,,,,-3.837890625,-6.62109375,1,0,0,11.2253217697,,,,,2015_Oct_26_0930,G,facesParametric,21,59.7560920012,
./stim/MorphM6_07_orig.jpg,59,,,,,0,59,59,59,,,,,,,,,,,,,,,,,,,-3.837890625,-6.62109375,0,0,1,1.05356907845,,,,,2015_Oct_26_0930,G,facesParametric,21,59.7560920012,
./stim/MorphF10_03_orig.jpg,60,,,,,0,60,60,60,,,,,,,,,,,,,,,,,,,-3.837890625,-6.62109375,1,0,0,15.0814471245,,,,,2015_Oct_26_0930,G,facesParametric,21,59.7560920012,
./stim/MorphM8_07_orig.jpg,61,,,,,0,61,61,61,,,,,,,,,,,,,,,,,,,-3.837890625,-6.62109375,0,0,1,0.66806602478,,,,,2015_Oct_26_0930,G,facesParametric,21,59.7560920012,
./stim/MorphM5_00_orig.jpg,62,,,,,0,62,62,62,,,,,,,,,,,,,,,,,,,-3.837890625,-6.62109375,1,0,0,1.30618214607,,,,,2015_Oct_26_0930,G,facesParametric,21,59.7560920012,
./stim/MorphM4_10_orig.jpg,63,,,,,0,63,63,63,,,,,,,,,,,,,,,,,,,-3.837890625,-6.62109375,0,0,1,0.903792142868,,,,,2015_Oct_26_0930,G,facesParametric,21,59.7560920012,
./stim/MorphF2_10_orig.jpg,64,,,,,0,64,64,64,,,,,,,,,,,,,,,,,,,-3.837890625,-6.62109375,0,0,1,0.802874088287,,,,,2015_Oct_26_0930,G,facesParametric,21,59.7560920012,
./stim/MorphF5_01_orig.jpg,65,,,,,0,65,65,65,,,,,,,,,,,,,,,,,,,-3.837890625,-6.62109375,1,0,0,3.21673893929,,,,,2015_Oct_26_0930,G,facesParametric,21,59.7560920012,
./stim/MorphF8_06_orig.jpg,66,,,,,0,66,66,66,,,,,,,,,,,,,,,,,,,-3.837890625,-6.62109375,0,0,1,1.30461001396,,,,,2015_Oct_26_0930,G,facesParametric,21,59.7560920012,
./stim/MorphM9_02_orig.jpg,67,,,,,0,67,67,67,,,,,,,,,,,,,,,,,,,-3.837890625,-6.62109375,1,0,0,4.47186303139,,,,,2015_Oct_26_0930,G,facesParametric,21,59.7560920012,
./stim/MorphF7_02_orig.jpg,68,,,,,0,68,68,68,,,,,,,,,,,,,,,,,,,-3.837890625,-6.62109375,0,0,1,1.47346997261,,,,,2015_Oct_26_0930,G,facesParametric,21,59.7560920012,
./stim/MorphM8_10_orig.jpg,69,,,,,0,69,69,69,,,,,,,,,,,,,,,,,,,-3.837890625,-6.62109375,0,0,1,0.88706111908,,,,,2015_Oct_26_0930,G,facesParametric,21,59.7560920012,
./stim/MorphM9_00_orig.jpg,70,,,,,0,70,70,70,,,,,,,,,,,,,,,,,,,-3.837890625,-6.62109375,1,0,0,1.2218401432,,,,,2015_Oct_26_0930,G,facesParametric,21,59.7560920012,
./stim/MorphF10_07_orig.jpg,71,,,,,0,71,71,71,,,,,,,,,,,,,,,,,,,-3.837890625,-6.62109375,0,0,1,1.05465197563,,,,,2015_Oct_26_0930,G,facesParametric,21,59.7560920012,
./stim/MorphF4_08_orig.jpg,72,,,,,0,72,72,72,,,,,,,,,,,,,,,,,,,-3.837890625,-6.62109375,0,0,1,1.33918213844,,,,,2015_Oct_26_0930,G,facesParametric,21,59.7560920012,
./stim/MorphM6_00_orig.jpg,73,,,,,0,73,73,73,,,,,,,,,,,,,,,,,,,-3.837890625,-6.62109375,1,0,0,1.62443780899,,,,,2015_Oct_26_0930,G,facesParametric,21,59.7560920012,
./stim/MorphF5_06_orig.jpg,74,,,,,0,74,74,74,,,,,,,,,,,,,,,,,,,-3.837890625,-6.62109375,1,0,0,2.78049707413,,,,,2015_Oct_26_0930,G,facesParametric,21,59.7560920012,
./stim/MorphF2_09_orig.jpg,75,,,,,0,75,75,75,,,,,,,,,,,,,,,,,,,-3.837890625,-6.62109375,0,0,1,0.786137104034,,,,,2015_Oct_26_0930,G,facesParametric,21,59.7560920012,
./stim/MorphM6_05_orig.jpg,76,,,,,0,76,76,76,,,,,,,,,,,,,,,,,,,-3.837890625,-6.62109375,0,0,1,2.39645290375,,,,,2015_Oct_26_0930,G,facesParametric,21,59.7560920012,
./stim/MorphF10_08_orig.jpg,77,,,,,0,77,77,77,,,,,,,,,,,,,,,,,,,-3.837890625,-6.62109375,0,0,1,1.1705520153,,,,,2015_Oct_26_0930,G,facesParametric,21,59.7560920012,
./stim/MorphF3_01_orig.jpg,78,,,,,0,78,78,78,,,,,,,,,,,,,,,,,,,-3.837890625,-6.62109375,1,0,0,1.87626099586,,,,,2015_Oct_26_0930,G,facesParametric,21,59.7560920012,
./stim/MorphF1_10_orig.jpg,79,,,,,0,79,79,79,,,,,,,,,,,,,,,,,,,-3.837890625,-6.62109375,0,0,1,0.786477088928,,,,,2015_Oct_26_0930,G,facesParametric,21,59.7560920012,
./stim/MorphM6_06_orig.jpg,80,,,,,0,80,80,80,,,,,,,,,,,,,,,,,,,-3.837890625,-6.62109375,0,0,1,1.05360603333,,,,,2015_Oct_26_0930,G,facesParametric,21,59.7560920012,
./stim/MorphF6_09_orig.jpg,81,,,,,0,81,81,81,,,,,,,,,,,,,,,,,,,-3.837890625,-6.62109375,0,0,1,1.05365800858,,,,,2015_Oct_26_0930,G,facesParametric,21,59.7560920012,
./stim/MorphM2_10_orig.jpg,82,,,,,0,82,82,82,,,,,,,,,,,,,,,,,,,-3.837890625,-6.62109375,0,0,1,1.1050620079,,,,,2015_Oct_26_0930,G,facesParametric,21,59.7560920012,
./stim/MorphM4_06_orig.jpg,83,,,,,0,83,83,83,,,,,,,,,,,,,,,,,,,-3.837890625,-6.62109375,0,0,1,1.18852996826,,,,,2015_Oct_26_0930,G,facesParametric,21,59.7560920012,
./stim/MorphM7_02_orig.jpg,84,,,,,0,84,84,84,,,,,,,,,,,,,,,,,,,-3.837890625,-6.62109375,1,0,0,1.3548810482,,,,,2015_Oct_26_0930,G,facesParametric,21,59.7560920012,
./stim/MorphF1_03_orig.jpg,85,,,,,0,85,85,85,,,,,,,,,,,,,,,,,,,-3.837890625,-6.62109375,1,0,0,1.05488681793,,,,,2015_Oct_26_0930,G,facesParametric,21,59.7560920012,
./stim/MorphM7_08_orig.jpg,86,,,,,0,86,86,86,,,,,,,,,,,,,,,,,,,-3.837890625,-6.62109375,0,0,1,2.04311800003,,,,,2015_Oct_26_0930,G,facesParametric,21,59.7560920012,
./stim/MorphF4_00_orig.jpg,87,,,,,0,87,87,87,,,,,,,,,,,,,,,,,,,-3.837890625,-6.62109375,1,0,0,1.62447690964,,,,,2015_Oct_26_0930,G,facesParametric,21,59.7560920012,
./stim/MorphF2_04_orig.jpg,88,,,,,0,88,88,88,,,,,,,,,,,,,,,,,,,-3.837890625,-6.62109375,0,0,1,0.837215900421,,,,,2015_Oct_26_0930,G,facesParametric,21,59.7560920012,
./stim/MorphF8_08_orig.jpg,89,,,,,0,89,89,89,,,,,,,,,,,,,,,,,,,-3.837890625,-6.62109375,0,0,1,0.954070091248,,,,,2015_Oct_26_0930,G,facesParametric,21,59.7560920012,
./stim/MorphM7_05_orig.jpg,90,,,,,0,90,90,90,,,,,,,,,,,,,,,,,,,-3.837890625,-6.62109375,0,0,1,3.59966015816,,,,,2015_Oct_26_0930,G,facesParametric,21,59.7560920012,
./stim/MorphM2_04_orig.jpg,91,,,,,0,91,91,91,,,,,,,,,,,,,,,,,,,-3.837890625,-6.62109375,1,0,0,1.7063741684,,,,,2015_Oct_26_0930,G,facesParametric,21,59.7560920012,
./stim/MorphF9_04_orig.jpg,92,,,,,0,92,92,92,,,,,,,,,,,,,,,,,,,-3.837890625,-6.62109375,1,0,0,2.29497003555,,,,,2015_Oct_26_0930,G,facesParametric,21,59.7560920012,
./stim/MorphF3_02_orig.jpg,93,,,,,0,93,93,93,,,,,,,,,,,,,,,,,,,-3.837890625,-6.62109375,1,0,0,1.15507102013,,,,,2015_Oct_26_0930,G,facesParametric,21,59.7560920012,
./stim/MorphF10_00_orig.jpg,94,,,,,0,94,94,94,,,,,,,,,,,,,,,,,,,-3.837890625,-6.62109375,1,0,0,1.08801484108,,,,,2015_Oct_26_0930,G,facesParametric,21,59.7560920012,
./stim/MorphM2_07_orig.jpg,95,,,,,0,95,95,95,,,,,,,,,,,,,,,,,,,-3.837890625,-6.62109375,0,0,1,1.13831114769,,,,,2015_Oct_26_0930,G,facesParametric,21,59.7560920012,
./stim/MorphM3_03_orig.jpg,96,,,,,0,96,96,96,,,,,,,,,,,,,,,,,,,-3.837890625,-6.62109375,0,0,1,2.49620389938,,,,,2015_Oct_26_0930,G,facesParametric,21,59.7560920012,
./stim/MorphF8_05_orig.jpg,97,,,,,0,97,97,97,,,,,,,,,,,,,,,,,,,-3.837890625,-6.62109375,1,0,0,4.28736877441,,,,,2015_Oct_26_0930,G,facesParametric,21,59.7560920012,
./stim/MorphF7_09_orig.jpg,98,,,,,0,98,98,98,,,,,,,,,,,,,,,,,,,-3.837890625,-6.62109375,0,0,1,0.702510118484,,,,,2015_Oct_26_0930,G,facesParametric,21,59.7560920012,
./stim/MorphM2_06_orig.jpg,99,,,,,0,99,99,99,,,,,,,,,,,,,,,,,,,-3.837890625,-6.62109375,0,0,1,2.3117980957,,,,,2015_Oct_26_0930,G,facesParametric,21,59.7560920012,
./stim/MorphM10_03_orig.jpg,100,,,,,0,100,100,100,,,,,,,,,,,,,,,,,,,-3.837890625,-6.62109375,1,0,0,1.64143419266,,,,,2015_Oct_26_0930,G,facesParametric,21,59.7560920012,
./stim/MorphF9_08_orig.jpg,101,,,,,0,101,101,101,,,,,,,,,,,,,,,,,,,-3.837890625,-6.62109375,0,0,1,0.770071029663,,,,,2015_Oct_26_0930,G,facesParametric,21,59.7560920012,
./stim/MorphM2_01_orig.jpg,102,,,,,0,102,102,102,,,,,,,,,,,,,,,,,,,-3.837890625,-6.62109375,1,0,0,1.03831791878,,,,,2015_Oct_26_0930,G,facesParametric,21,59.7560920012,
./stim/MorphF4_03_orig.jpg,103,,,,,0,103,103,103,,,,,,,,,,,,,,,,,,,-3.837890625,-6.62109375,1,0,0,4.18763303757,,,,,2015_Oct_26_0930,G,facesParametric,21,59.7560920012,
./stim/MorphM7_10_orig.jpg,104,,,,,0,104,104,104,,,,,,,,,,,,,,,,,,,-3.837890625,-6.62109375,0,0,1,1.08822202682,,,,,2015_Oct_26_0930,G,facesParametric,21,59.7560920012,
./stim/MorphM6_01_orig.jpg,105,,,,,0,105,105,105,,,,,,,,,,,,,,,,,,,-3.837890625,-6.62109375,1,0,0,1.0039229393,,,,,2015_Oct_26_0930,G,facesParametric,21,59.7560920012,
./stim/MorphF9_03_orig.jpg,106,,,,,0,106,106,106,,,,,,,,,,,,,,,,,,,-3.837890625,-6.62109375,1,0,0,5.05960583687,,,,,2015_Oct_26_0930,G,facesParametric,21,59.7560920012,
./stim/MorphF5_04_orig.jpg,107,,,,,0,107,107,107,,,,,,,,,,,,,,,,,,,-3.837890625,-6.62109375,1,0,0,0.87130689621,,,,,2015_Oct_26_0930,G,facesParametric,21,59.7560920012,
./stim/MorphF6_03_orig.jpg,108,,,,,0,108,108,108,,,,,,,,,,,,,,,,,,,-3.837890625,-6.62109375,1,0,0,0.969973087311,,,,,2015_Oct_26_0930,G,facesParametric,21,59.7560920012,
./stim/MorphM10_06_orig.jpg,109,,,,,0,109,109,109,,,,,,,,,,,,,,,,,,,-3.837890625,-6.62109375,0,0,1,4.4737071991,,,,,2015_Oct_26_0930,G,facesParametric,21,59.7560920012,
./stim/MorphM5_05_orig.jpg,110,,,,,0,110,110,110,,,,,,,,,,,,,,,,,,,-3.837890625,-6.62109375,1,0,0,0.934995889664,,,,,2015_Oct_26_0930,G,facesParametric,21,59.7560920012,
./stim/MorphM1_04_orig.jpg,111,,,,,0,111,111,111,,,,,,,,,,,,,,,,,,,-3.837890625,-6.62109375,1,0,0,2.19381999969,,,,,2015_Oct_26_0930,G,facesParametric,21,59.7560920012,
./stim/MorphM9_06_orig.jpg,112,,,,,0,112,112,112,,,,,,,,,,,,,,,,,,,-3.837890625,-6.62109375,1,0,0,0.93753695488,,,,,2015_Oct_26_0930,G,facesParametric,21,59.7560920012,
./stim/MorphM2_03_orig.jpg,113,,,,,0,113,113,113,,,,,,,,,,,,,,,,,,,-3.837890625,-6.62109375,1,0,0,0.920500993729,,,,,2015_Oct_26_0930,G,facesParametric,21,59.7560920012,
./stim/MorphF10_04_orig.jpg,114,,,,,0,114,114,114,,,,,,,,,,,,,,,,,,,-3.837890625,-6.62109375,1,0,0,1.20498204231,,,,,2015_Oct_26_0930,G,facesParametric,21,59.7560920012,
./stim/MorphM10_10_orig.jpg,115,,,,,0,115,115,115,,,,,,,,,,,,,,,,,,,-3.837890625,-6.62109375,0,0,1,0.735790967941,,,,,2015_Oct_26_0930,G,facesParametric,21,59.7560920012,
./stim/MorphF8_10_orig.jpg,116,,,,,0,116,116,116,,,,,,,,,,,,,,,,,,,-3.837890625,-6.62109375,0,0,1,0.786659002304,,,,,2015_Oct_26_0930,G,facesParametric,21,59.7560920012,
./stim/MorphM3_08_orig.jpg,117,,,,,0,117,117,117,,,,,,,,,,,,,,,,,,,-3.837890625,-6.62109375,0,0,1,1.00486493111,,,,,2015_Oct_26_0930,G,facesParametric,21,59.7560920012,
./stim/MorphM1_06_orig.jpg,118,,,,,0,118,118,118,,,,,,,,,,,,,,,,,,,-3.837890625,-6.62109375,1,0,0,0.885884046555,,,,,2015_Oct_26_0930,G,facesParametric,21,59.7560920012,
./stim/MorphF5_00_orig.jpg,119,,,,,0,119,119,119,,,,,,,,,,,,,,,,,,,-3.837890625,-6.62109375,1,0,0,1.20347189903,,,,,2015_Oct_26_0930,G,facesParametric,21,59.7560920012,
./stim/MorphM9_10_orig.jpg,120,,,,,0,120,120,120,,,,,,,,,,,,,,,,,,,-3.837890625,-6.62109375,0,0,1,0.903354883194,,,,,2015_Oct_26_0930,G,facesParametric,21,59.7560920012,
./stim/MorphF5_03_orig.jpg,121,,,,,0,121,121,121,,,,,,,,,,,,,,,,,,,-3.837890625,-6.62109375,1,0,0,1.37235498428,,,,,2015_Oct_26_0930,G,facesParametric,21,59.7560920012,
./stim/MorphF6_00_orig.jpg,122,,,,,0,122,122,122,,,,,,,,,,,,,,,,,,,-3.837890625,-6.62109375,1,0,0,0.918680906296,,,,,2015_Oct_26_0930,G,facesParametric,21,59.7560920012,
./stim/MorphF2_02_orig.jpg,123,,,,,0,123,123,123,,,,,,,,,,,,,,,,,,,-3.837890625,-6.62109375,0,0,1,0.901906013489,,,,,2015_Oct_26_0930,G,facesParametric,21,59.7560920012,
./stim/MorphF3_04_orig.jpg,124,,,,,0,124,124,124,,,,,,,,,,,,,,,,,,,-3.837890625,-6.62109375,1,0,0,1.17208695412,,,,,2015_Oct_26_0930,G,facesParametric,21,59.7560920012,
./stim/MorphM5_07_orig.jpg,125,,,,,0,125,125,125,,,,,,,,,,,,,,,,,,,-3.837890625,-6.62109375,0,0,1,2.78055095673,,,,,2015_Oct_26_0930,G,facesParametric,21,59.7560920012,
./stim/MorphF6_02_orig.jpg,126,,,,,0,126,126,126,,,,,,,,,,,,,,,,,,,-3.837890625,-6.62109375,1,0,0,1.11973500252,,,,,2015_Oct_26_0930,G,facesParametric,21,59.7560920012,
./stim/MorphF4_01_orig.jpg,127,,,,,0,127,127,127,,,,,,,,,,,,,,,,,,,-3.837890625,-6.62109375,1,0,0,1.0365281105,,,,,2015_Oct_26_0930,G,facesParametric,21,59.7560920012,
./stim/MorphM10_02_orig.jpg,128,,,,,0,128,128,128,,,,,,,,,,,,,,,,,,,-3.837890625,-6.62109375,1,0,0,1.35648488998,,,,,2015_Oct_26_0930,G,facesParametric,21,59.7560920012,
./stim/MorphF10_09_orig.jpg,129,,,,,0,129,129,129,,,,,,,,,,,,,,,,,,,-3.837890625,-6.62109375,0,0,1,1.03581905365,,,,,2015_Oct_26_0930,G,facesParametric,21,59.7560920012,
./stim/MorphF2_07_orig.jpg,130,,,,,0,130,130,130,,,,,,,,,,,,,,,,,,,-3.837890625,-6.62109375,0,0,1,0.685700178146,,,,,2015_Oct_26_0930,G,facesParametric,21,59.7560920012,
./stim/MorphF3_10_orig.jpg,131,,,,,0,131,131,131,,,,,,,,,,,,,,,,,,,-3.837890625,-6.62109375,1,0,0,1.75860404968,,,,,2015_Oct_26_0930,G,facesParametric,21,59.7560920012,
./stim/MorphM2_05_orig.jpg,132,,,,,0,132,132,132,,,,,,,,,,,,,,,,,,,-3.837890625,-6.62109375,1,0,0,1.87578392029,,,,,2015_Oct_26_0930,G,facesParametric,21,59.7560920012,
./stim/MorphM6_03_orig.jpg,133,,,,,0,133,133,133,,,,,,,,,,,,,,,,,,,-3.837890625,-6.62109375,1,0,0,1.57419705391,,,,,2015_Oct_26_0930,G,facesParametric,21,59.7560920012,
./stim/MorphF9_01_orig.jpg,134,,,,,0,134,134,134,,,,,,,,,,,,,,,,,,,-3.837890625,-6.62109375,1,0,0,2.36290192604,,,,,2015_Oct_26_0930,G,facesParametric,21,59.7560920012,
./stim/MorphF6_08_orig.jpg,135,,,,,0,135,135,135,,,,,,,,,,,,,,,,,,,-3.837890625,-6.62109375,0,0,1,1.00366187096,,,,,2015_Oct_26_0930,G,facesParametric,21,59.7560920012,
./stim/MorphM9_09_orig.jpg,136,,,,,0,136,136,136,,,,,,,,,,,,,,,,,,,-3.837890625,-6.62109375,0,0,1,1.95866513252,,,,,2015_Oct_26_0930,G,facesParametric,21,59.7560920012,
./stim/MorphM1_08_orig.jpg,137,,,,,0,137,137,137,,,,,,,,,,,,,,,,,,,-3.837890625,-6.62109375,1,0,0,0.951570987701,,,,,2015_Oct_26_0930,G,facesParametric,21,59.7560920012,
./stim/MorphM2_02_orig.jpg,138,,,,,0,138,138,138,,,,,,,,,,,,,,,,,,,-3.837890625,-6.62109375,1,0,0,1.32222294807,,,,,2015_Oct_26_0930,G,facesParametric,21,59.7560920012,
./stim/MorphM10_08_orig.jpg,139,,,,,0,139,139,139,,,,,,,,,,,,,,,,,,,-3.837890625,-6.62109375,0,0,1,1.20415401459,,,,,2015_Oct_26_0930,G,facesParametric,21,59.7560920012,
./stim/MorphF2_05_orig.jpg,140,,,,,0,140,140,140,,,,,,,,,,,,,,,,,,,-3.837890625,-6.62109375,0,0,1,0.669341087341,,,,,2015_Oct_26_0930,G,facesParametric,21,59.7560920012,
./stim/MorphM1_02_orig.jpg,141,,,,,0,141,141,141,,,,,,,,,,,,,,,,,,,-3.837890625,-6.62109375,1,0,0,0.836765766144,,,,,2015_Oct_26_0930,G,facesParametric,21,59.7560920012,
./stim/MorphF6_07_orig.jpg,142,,,,,0,142,142,142,,,,,,,,,,,,,,,,,,,-3.837890625,-6.62109375,0,0,1,0.6693110466,,,,,2015_Oct_26_0930,G,facesParametric,21,59.7560920012,
./stim/MorphF5_10_orig.jpg,143,,,,,0,143,143,143,,,,,,,,,,,,,,,,,,,-3.837890625,-6.62109375,0,0,1,0.987425088882,,,,,2015_Oct_26_0930,G,facesParametric,21,59.7560920012,
./stim/MorphM10_04_orig.jpg,144,,,,,0,144,144,144,,,,,,,,,,,,,,,,,,,-3.837890625,-6.62109375,0,0,1,2.91468596458,,,,,2015_Oct_26_0930,G,facesParametric,21,59.7560920012,
./stim/MorphF3_05_orig.jpg,145,,,,,0,145,145,145,,,,,,,,,,,,,,,,,,,-3.837890625,-6.62109375,1,0,0,1.00398898125,,,,,2015_Oct_26_0930,G,facesParametric,21,59.7560920012,
./stim/MorphF5_08_orig.jpg,146,,,,,0,146,146,146,,,,,,,,,,,,,,,,,,,-3.837890625,-6.62109375,1,0,0,2.29477787018,,,,,2015_Oct_26_0930,G,facesParametric,21,59.7560920012,
./stim/MorphF3_06_orig.jpg,147,,,,,0,147,147,147,,,,,,,,,,,,,,,,,,,-3.837890625,-6.62109375,1,0,0,1.0886721611,,,,,2015_Oct_26_0930,G,facesParametric,21,59.7560920012,
./stim/MorphM8_06_orig.jpg,148,,,,,0,148,148,148,,,,,,,,,,,,,,,,,,,-3.837890625,-6.62109375,0,0,1,0.718613147736,,,,,2015_Oct_26_0930,G,facesParametric,21,59.7560920012,
./stim/MorphF1_04_orig.jpg,149,,,,,0,149,149,149,,,,,,,,,,,,,,,,,,,-3.837890625,-6.62109375,1,0,0,0.953649997711,,,,,2015_Oct_26_0930,G,facesParametric,21,59.7560920012,
./stim/MorphM4_09_orig.jpg,150,,,,,0,150,150,150,,,,,,,,,,,,,,,,,,,-3.837890625,-6.62109375,0,0,1,0.836863994598,,,,,2015_Oct_26_0930,G,facesParametric,21,59.7560920012,
./stim/MorphF6_06_orig.jpg,151,,,,,0,151,151,151,,,,,,,,,,,,,,,,,,,-3.837890625,-6.62109375,0,0,1,1.25570702553,,,,,2015_Oct_26_0930,G,facesParametric,21,59.7560920012,
./stim/MorphF1_05_orig.jpg,152,,,,,0,152,152,152,,,,,,,,,,,,,,,,,,,-3.837890625,-6.62109375,1,0,0,1.92510008812,,,,,2015_Oct_26_0930,G,facesParametric,21,59.7560920012,
./stim/MorphM7_07_orig.jpg,153,,,,,0,153,153,153,,,,,,,,,,,,,,,,,,,-3.837890625,-6.62109375,0,0,1,1.00355219841,,,,,2015_Oct_26_0930,G,facesParametric,21,59.7560920012,
./stim/MorphM1_07_orig.jpg,154,,,,,0,154,154,154,,,,,,,,,,,,,,,,,,,-3.837890625,-6.62109375,1,0,0,1.23915290833,,,,,2015_Oct_26_0930,G,facesParametric,21,59.7560920012,
./stim/MorphM5_03_orig.jpg,155,,,,,0,155,155,155,,,,,,,,,,,,,,,,,,,-3.837890625,-6.62109375,0,0,1,0.870079040527,,,,,2015_Oct_26_0930,G,facesParametric,21,59.7560920012,
./stim/MorphM1_09_orig.jpg,156,,,,,0,156,156,156,,,,,,,,,,,,,,,,,,,-3.837890625,-6.62109375,1,0,0,1.67496109009,,,,,2015_Oct_26_0930,G,facesParametric,21,59.7560920012,
./stim/MorphM2_09_orig.jpg,157,,,,,0,157,157,157,,,,,,,,,,,,,,,,,,,-3.837890625,-6.62109375,0,0,1,1.00365900993,,,,,2015_Oct_26_0930,G,facesParametric,21,59.7560920012,
./stim/MorphF10_01_orig.jpg,158,,,,,0,158,158,158,,,,,,,,,,,,,,,,,,,-3.837890625,-6.62109375,1,0,0,1.30605506897,,,,,2015_Oct_26_0930,G,facesParametric,21,59.7560920012,
./stim/MorphM5_10_orig.jpg,159,,,,,0,159,159,159,,,,,,,,,,,,,,,,,,,-3.837890625,-6.62109375,0,0,1,1.32301998138,,,,,2015_Oct_26_0930,G,facesParametric,21,59.7560920012,
./stim/MorphF9_00_orig.jpg,160,,,,,0,160,160,160,,,,,,,,,,,,,,,,,,,-3.837890625,-6.62109375,1,0,0,3.26667809486,,,,,2015_Oct_26_0930,G,facesParametric,21,59.7560920012,
./stim/MorphF10_10_orig.jpg,161,,,,,0,161,161,161,,,,,,,,,,,,,,,,,,,-3.837890625,-6.62109375,0,0,1,0.770236968994,,,,,2015_Oct_26_0930,G,facesParametric,21,59.7560920012,
./stim/MorphM3_02_orig.jpg,162,,,,,0,162,162,162,,,,,,,,,,,,,,,,,,,-3.837890625,-6.62109375,1,0,0,0.96935915947,,,,,2015_Oct_26_0930,G,facesParametric,21,59.7560920012,
./stim/MorphF7_05_orig.jpg,163,,,,,0,163,163,163,,,,,,,,,,,,,,,,,,,-3.837890625,-6.62109375,1,0,0,2.94749403,,,,,2015_Oct_26_0930,G,facesParametric,21,59.7560920012,
./stim/MorphM1_05_orig.jpg,164,,,,,0,164,164,164,,,,,,,,,,,,,,,,,,,-3.837890625,-6.62109375,1,0,0,1.28916287422,,,,,2015_Oct_26_0930,G,facesParametric,21,59.7560920012,
./stim/MorphF6_05_orig.jpg,165,,,,,0,165,165,165,,,,,,,,,,,,,,,,,,,-3.837890625,-6.62109375,1,0,0,1.07129502296,,,,,2015_Oct_26_0930,G,facesParametric,21,59.7560920012,
./stim/MorphM3_01_orig.jpg,166,,,,,0,166,166,166,,,,,,,,,,,,,,,,,,,-3.837890625,-6.62109375,1,0,0,1.50722694397,,,,,2015_Oct_26_0930,G,facesParametric,21,59.7560920012,
./stim/MorphF9_07_orig.jpg,167,,,,,0,167,167,167,,,,,,,,,,,,,,,,,,,-3.837890625,-6.62109375,0,0,1,1.87584900856,,,,,2015_Oct_26_0930,G,facesParametric,21,59.7560920012,
./stim/MorphF5_07_orig.jpg,168,,,,,0,168,168,168,,,,,,,,,,,,,,,,,,,-3.837890625,-6.62109375,1,0,0,24.3507258892,,,,,2015_Oct_26_0930,G,facesParametric,21,59.7560920012,
./stim/MorphM5_06_orig.jpg,169,,,,,0,169,169,169,,,,,,,,,,,,,,,,,,,-3.837890625,-6.62109375,1,0,0,63.7360098362,,,,,2015_Oct_26_0930,G,facesParametric,21,59.7560920012,
./stim/MorphF2_03_orig.jpg,170,,,,,0,170,170,170,,,,,,,,,,,,,,,,,,,-3.837890625,-6.62109375,1,0,0,11.2436928749,,,,,2015_Oct_26_0930,G,facesParametric,21,59.7560920012,
./stim/MorphF1_07_orig.jpg,171,,,,,0,171,171,171,,,,,,,,,,,,,,,,,,,-3.837890625,-6.62109375,0,0,1,1.62390398979,,,,,2015_Oct_26_0930,G,facesParametric,21,59.7560920012,
./stim/MorphM1_00_orig.jpg,172,,,,,0,172,172,172,,,,,,,,,,,,,,,,,,,-3.837890625,-6.62109375,1,0,0,0.836332798004,,,,,2015_Oct_26_0930,G,facesParametric,21,59.7560920012,
./stim/MorphF3_07_orig.jpg,173,,,,,0,173,173,173,,,,,,,,,,,,,,,,,,,-3.837890625,-6.62109375,1,0,0,1.85900211334,,,,,2015_Oct_26_0930,G,facesParametric,21,59.7560920012,
./stim/MorphM9_04_orig.jpg,174,,,,,0,174,174,174,,,,,,,,,,,,,,,,,,,-3.837890625,-6.62109375,1,0,0,1.03805804253,,,,,2015_Oct_26_0930,G,facesParametric,21,59.7560920012,
./stim/MorphF2_06_orig.jpg,175,,,,,0,175,175,175,,,,,,,,,,,,,,,,,,,-3.837890625,-6.62109375,0,0,1,0.784847974777,,,,,2015_Oct_26_0930,G,facesParametric,21,59.7560920012,
./stim/MorphM7_06_orig.jpg,176,,,,,0,176,176,176,,,,,,,,,,,,,,,,,,,-3.837890625,-6.62109375,0,0,1,0.886338949203,,,,,2015_Oct_26_0930,G,facesParametric,21,59.7560920012,
./stim/MorphF8_07_orig.jpg,177,,,,,0,177,177,177,,,,,,,,,,,,,,,,,,,-3.837890625,-6.62109375,1,0,0,4.01949000359,,,,,2015_Oct_26_0930,G,facesParametric,21,59.7560920012,
./stim/MorphM10_09_orig.jpg,178,,,,,0,178,178,178,,,,,,,,,,,,,,,,,,,-3.837890625,-6.62109375,0,0,1,1.0544219017,,,,,2015_Oct_26_0930,G,facesParametric,21,59.7560920012,
./stim/MorphF6_01_orig.jpg,179,,,,,0,179,179,179,,,,,,,,,,,,,,,,,,,-3.837890625,-6.62109375,1,0,0,1.08800506592,,,,,2015_Oct_26_0930,G,facesParametric,21,59.7560920012,
./stim/MorphM8_04_orig.jpg,180,,,,,0,180,180,180,,,,,,,,,,,,,,,,,,,-3.837890625,-6.62109375,0,0,1,0.653028011322,,,,,2015_Oct_26_0930,G,facesParametric,21,59.7560920012,
./stim/MorphM5_04_orig.jpg,181,,,,,0,181,181,181,,,,,,,,,,,,,,,,,,,-3.837890625,-6.62109375,0,0,1,1.20449399948,,,,,2015_Oct_26_0930,G,facesParametric,21,59.7560920012,
./stim/MorphF8_04_orig.jpg,182,,,,,0,182,182,182,,,,,,,,,,,,,,,,,,,-3.837890625,-6.62109375,1,0,0,7.38745307922,,,,,2015_Oct_26_0930,G,facesParametric,21,59.7560920012,
./stim/MorphF6_10_orig.jpg,183,,,,,0,183,183,183,,,,,,,,,,,,,,,,,,,-3.837890625,-6.62109375,0,0,1,0.735336780548,,,,,2015_Oct_26_0930,G,facesParametric,21,59.7560920012,
./stim/MorphM1_10_orig.jpg,184,,,,,0,184,184,184,,,,,,,,,,,,,,,,,,,-3.837890625,-6.62109375,1,0,0,1.15550994873,,,,,2015_Oct_26_0930,G,facesParametric,21,59.7560920012,
./stim/MorphM2_00_orig.jpg,185,,,,,0,185,185,185,,,,,,,,,,,,,,,,,,,-3.837890625,-6.62109375,1,0,0,3.26661205292,,,,,2015_Oct_26_0930,G,facesParametric,21,59.7560920012,
./stim/MorphF4_05_orig.jpg,186,,,,,0,186,186,186,,,,,,,,,,,,,,,,,,,-3.837890625,-6.62109375,0,0,1,0.987684965134,,,,,2015_Oct_26_0930,G,facesParametric,21,59.7560920012,
./stim/MorphM8_03_orig.jpg,187,,,,,0,187,187,187,,,,,,,,,,,,,,,,,,,-3.837890625,-6.62109375,0,0,1,0.669522047043,,,,,2015_Oct_26_0930,G,facesParametric,21,59.7560920012,
./stim/MorphM6_10_orig.jpg,188,,,,,0,188,188,188,,,,,,,,,,,,,,,,,,,-3.837890625,-6.62109375,0,0,1,0.853168964386,,,,,2015_Oct_26_0930,G,facesParametric,21,59.7560920012,
./stim/MorphF7_01_orig.jpg,189,,,,,0,189,189,189,,,,,,,,,,,,,,,,,,,-3.837890625,-6.62109375,1,0,0,1.5400390625,,,,,2015_Oct_26_0930,G,facesParametric,21,59.7560920012,
./stim/MorphM8_02_orig.jpg,190,,,,,0,190,190,190,,,,,,,,,,,,,,,,,,,-3.837890625,-6.62109375,0,0,1,0.636024951935,,,,,2015_Oct_26_0930,G,facesParametric,21,59.7560920012,
./stim/MorphF7_08_orig.jpg,191,,,,,0,191,191,191,,,,,,,,,,,,,,,,,,,-3.837890625,-6.62109375,1,0,0,0.819585084915,,,,,2015_Oct_26_0930,G,facesParametric,21,59.7560920012,
./stim/MorphM8_00_orig.jpg,192,,,,,0,192,192,192,,,,,,,,,,,,,,,,,,,-3.837890625,-6.62109375,1,0,0,1.00454187393,,,,,2015_Oct_26_0930,G,facesParametric,21,59.7560920012,
./stim/MorphF10_02_orig.jpg,193,,,,,0,193,193,193,,,,,,,,,,,,,,,,,,,-3.837890625,-6.62109375,1,0,0,2.14328813553,,,,,2015_Oct_26_0930,G,facesParametric,21,59.7560920012,
./stim/MorphF1_02_orig.jpg,194,,,,,0,194,194,194,,,,,,,,,,,,,,,,,,,-3.837890625,-6.62109375,1,0,0,0.73611998558,,,,,2015_Oct_26_0930,G,facesParametric,21,59.7560920012,
./stim/MorphM3_09_orig.jpg,195,,,,,0,195,195,195,,,,,,,,,,,,,,,,,,,-3.837890625,-6.62109375,0,0,1,0.802109003067,,,,,2015_Oct_26_0930,G,facesParametric,21,59.7560920012,
./stim/MorphF1_06_orig.jpg,196,,,,,0,196,196,196,,,,,,,,,,,,,,,,,,,-3.837890625,-6.62109375,0,0,1,1.23690700531,,,,,2015_Oct_26_0930,G,facesParametric,21,59.7560920012,
./stim/MorphM5_02_orig.jpg,197,,,,,0,197,197,197,,,,,,,,,,,,,,,,,,,-3.837890625,-6.62109375,1,0,0,1.00279784203,,,,,2015_Oct_26_0930,G,facesParametric,21,59.7560920012,
./stim/MorphF9_05_orig.jpg,198,,,,,0,198,198,198,,,,,,,,,,,,,,,,,,,-3.837890625,-6.62109375,0,0,1,1.5240278244,,,,,2015_Oct_26_0930,G,facesParametric,21,59.7560920012,
./stim/MorphM8_09_orig.jpg,199,,,,,0,199,199,199,,,,,,,,,,,,,,,,,,,-3.837890625,-6.62109375,0,0,1,0.82023191452,,,,,2015_Oct_26_0930,G,facesParametric,21,59.7560920012,
./stim/MorphF9_09_orig.jpg,200,,,,,0,200,200,200,,,,,,,,,,,,,,,,,,,-3.837890625,-6.62109375,0,0,1,0.835871934891,,,,,2015_Oct_26_0930,G,facesParametric,21,59.7560920012,
./stim/MorphM3_07_orig.jpg,201,,,,,0,201,201,201,,,,,,,,,,,,,,,,,,,-3.837890625,-6.62109375,0,0,1,0.835683822632,,,,,2015_Oct_26_0930,G,facesParametric,21,59.7560920012,
./stim/MorphF8_01_orig.jpg,202,,,,,0,202,202,202,,,,,,,,,,,,,,,,,,,-3.837890625,-6.62109375,1,0,0,1.72322010994,,,,,2015_Oct_26_0930,G,facesParametric,21,59.7560920012,
./stim/MorphM3_05_orig.jpg,203,,,,,0,203,203,203,,,,,,,,,,,,,,,,,,,-3.837890625,-6.62109375,0,0,1,0.953893899918,,,,,2015_Oct_26_0930,G,facesParametric,21,59.7560920012,
./stim/MorphM10_05_orig.jpg,204,,,,,0,204,204,204,,,,,,,,,,,,,,,,,,,-3.837890625,-6.62109375,0,0,1,1.69165706635,,,,,2015_Oct_26_0930,G,facesParametric,21,59.7560920012,
./stim/MorphF9_10_orig.jpg,205,,,,,0,205,205,205,,,,,,,,,,,,,,,,,,,-3.837890625,-6.62109375,0,0,1,0.853366136551,,,,,2015_Oct_26_0930,G,facesParametric,21,59.7560920012,
./stim/MorphF2_08_orig.jpg,206,,,,,0,206,206,206,,,,,,,,,,,,,,,,,,,-3.837890625,-6.62109375,0,0,1,0.971173048019,,,,,2015_Oct_26_0930,G,facesParametric,21,59.7560920012,
./stim/MorphM5_08_orig.jpg,207,,,,,0,207,207,207,,,,,,,,,,,,,,,,,,,-3.837890625,-6.62109375,0,0,1,2.89857387543,,,,,2015_Oct_26_0930,G,facesParametric,21,59.7560920012,
./stim/MorphF3_08_orig.jpg,208,,,,,0,208,208,208,,,,,,,,,,,,,,,,,,,-3.837890625,-6.62109375,1,0,0,1.60711097717,,,,,2015_Oct_26_0930,G,facesParametric,21,59.7560920012,
./stim/MorphF8_09_orig.jpg,209,,,,,0,209,209,209,,,,,,,,,,,,,,,,,,,-3.837890625,-6.62109375,0,0,1,1.90915894508,,,,,2015_Oct_26_0930,G,facesParametric,21,59.7560920012,
./stim/MorphM10_00_orig.jpg,210,,,,,0,210,210,210,,,,,,,,,,,,,,,,,,,-3.837890625,-6.62109375,1,0,0,2.9302740097,,,,,2015_Oct_26_0930,G,facesParametric,21,59.7560920012,
./stim/MorphF10_05_orig.jpg,211,,,,,0,211,211,211,,,,,,,,,,,,,,,,,,,-3.837890625,-6.62109375,1,0,0,5.194231987,,,,,2015_Oct_26_0930,G,facesParametric,21,59.7560920012,
./stim/MorphF4_02_orig.jpg,212,,,,,0,212,212,212,,,,,,,,,,,,,,,,,,,-3.837890625,-6.62109375,1,0,0,0.985307216644,,,,,2015_Oct_26_0930,G,facesParametric,21,59.7560920012,
./stim/MorphF10_06_orig.jpg,213,,,,,0,213,213,213,,,,,,,,,,,,,,,,,,,-3.837890625,-6.62109375,1,0,0,13.3062679768,,,,,2015_Oct_26_0930,G,facesParametric,21,59.7560920012,
./stim/MorphM9_01_orig.jpg,214,,,,,0,214,214,214,,,,,,,,,,,,,,,,,,,-3.837890625,-6.62109375,1,0,0,1.92596697807,,,,,2015_Oct_26_0930,G,facesParametric,21,59.7560920012,
./stim/MorphF4_07_orig.jpg,215,,,,,0,215,215,215,,,,,,,,,,,,,,,,,,,-3.837890625,-6.62109375,0,0,1,14.9466581345,,,,,2015_Oct_26_0930,G,facesParametric,21,59.7560920012,
./stim/MorphM8_05_orig.jpg,216,,,,,0,216,216,216,,,,,,,,,,,,,,,,,,,-3.837890625,-6.62109375,0,0,1,0.886754989624,,,,,2015_Oct_26_0930,G,facesParametric,21,59.7560920012,
./stim/MorphM4_03_orig.jpg,217,,,,,0,217,217,217,,,,,,,,,,,,,,,,,,,-3.837890625,-6.62109375,1,0,0,0.92204284668,,,,,2015_Oct_26_0930,G,facesParametric,21,59.7560920012,
./stim/MorphF7_04_orig.jpg,218,,,,,0,218,218,218,,,,,,,,,,,,,,,,,,,-3.837890625,-6.62109375,0,0,1,1.05373716354,,,,,2015_Oct_26_0930,G,facesParametric,21,59.7560920012,
./stim/MorphF9_02_orig.jpg,219,,,,,0,219,219,219,,,,,,,,,,,,,,,,,,,-3.837890625,-6.62109375,1,0,0,1.00303602219,,,,,2015_Oct_26_0930,G,facesParametric,21,59.7560920012,
,,,,,,,,,,,,,,,,,,,,,,,,,,,,,,,,,,return,3.80457210541,,,2015_Oct_26_0930,G,facesParametric,21,59.7560920012,
./stim/MorphF7_03_orig.jpg,0,,,,,,,,,0,0,0,0,,,,,,,,,,,,,,,-3.837890625,-6.62109375,1,0,0,2.57246303558,,,,,2015_Oct_26_0930,G,facesParametric,21,59.7560920012,
./stim/MorphM10_04_orig.jpg,1,,,,,,,,,0,1,1,1,,,,,,,,,,,,,,,-3.837890625,-6.62109375,0,0,1,4.99278116226,,,,,2015_Oct_26_0930,G,facesParametric,21,59.7560920012,
./stim/MorphM3_10_orig.jpg,2,,,,,,,,,0,2,2,2,,,,,,,,,,,,,,,-3.837890625,-6.62109375,0,0,1,0.970518827438,,,,,2015_Oct_26_0930,G,facesParametric,21,59.7560920012,
./stim/MorphF3_09_orig.jpg,3,,,,,,,,,0,3,3,3,,,,,,,,,,,,,,,-3.837890625,-6.62109375,1,0,0,2.69720101357,,,,,2015_Oct_26_0930,G,facesParametric,21,59.7560920012,
./stim/MorphF7_02_orig.jpg,4,,,,,,,,,0,4,4,4,,,,,,,,,,,,,,,-3.837890625,-6.62109375,1,0,0,9.04856586456,,,,,2015_Oct_26_0930,G,facesParametric,21,59.7560920012,
./stim/MorphF5_01_orig.jpg,5,,,,,,,,,0,5,5,5,,,,,,,,,,,,,,,-3.837890625,-6.62109375,1,0,0,1.49019622803,,,,,2015_Oct_26_0930,G,facesParametric,21,59.7560920012,
./stim/MorphF8_02_orig.jpg,6,,,,,,,,,0,6,6,6,,,,,,,,,,,,,,,-3.837890625,-6.62109375,1,0,0,1.28938913345,,,,,2015_Oct_26_0930,G,facesParametric,21,59.7560920012,
./stim/MorphM10_05_orig.jpg,7,,,,,,,,,0,7,7,7,,,,,,,,,,,,,,,-3.837890625,-6.62109375,0,0,1,0.836015939713,,,,,2015_Oct_26_0930,G,facesParametric,21,59.7560920012,
./stim/MorphM8_02_orig.jpg,8,,,,,,,,,0,8,8,8,,,,,,,,,,,,,,,-3.837890625,-6.62109375,0,0,1,0.752599000931,,,,,2015_Oct_26_0930,G,facesParametric,21,59.7560920012,
./stim/MorphM5_05_orig.jpg,9,,,,,,,,,0,9,9,9,,,,,,,,,,,,,,,-3.837890625,-6.62109375,0,0,1,4.38924598694,,,,,2015_Oct_26_0930,G,facesParametric,21,59.7560920012,
./stim/MorphF10_01_orig.jpg,10,,,,,,,,,0,10,10,10,,,,,,,,,,,,,,,-3.837890625,-6.62109375,1,0,0,1.2053539753,,,,,2015_Oct_26_0930,G,facesParametric,21,59.7560920012,
./stim/MorphM7_00_orig.jpg,11,,,,,,,,,0,11,11,11,,,,,,,,,,,,,,,-3.837890625,-6.62109375,1,0,0,1.15520191193,,,,,2015_Oct_26_0930,G,facesParametric,21,59.7560920012,
./stim/MorphM8_05_orig.jpg,12,,,,,,,,,0,12,12,12,,,,,,,,,,,,,,,-3.837890625,-6.62109375,0,0,1,0.669294118881,,,,,2015_Oct_26_0930,G,facesParametric,21,59.7560920012,
./stim/MorphF1_10_orig.jpg,13,,,,,,,,,0,13,13,13,,,,,,,,,,,,,,,-3.837890625,-6.62109375,0,0,1,1.42106389999,,,,,2015_Oct_26_0930,G,facesParametric,21,59.7560920012,
./stim/MorphF9_10_orig.jpg,14,,,,,,,,,0,14,14,14,,,,,,,,,,,,,,,-3.837890625,-6.62109375,0,0,1,0.736169099808,,,,,2015_Oct_26_0930,G,facesParametric,21,59.7560920012,
./stim/MorphM4_04_orig.jpg,15,,,,,,,,,0,15,15,15,,,,,,,,,,,,,,,-3.837890625,-6.62109375,0,0,1,3.87027812004,,,,,2015_Oct_26_0930,G,facesParametric,21,59.7560920012,
./stim/MorphF4_02_orig.jpg,16,,,,,,,,,0,16,16,16,,,,,,,,,,,,,,,-3.837890625,-6.62109375,1,0,0,1.25602698326,,,,,2015_Oct_26_0930,G,facesParametric,21,59.7560920012,
./stim/MorphF10_07_orig.jpg,17,,,,,,,,,0,17,17,17,,,,,,,,,,,,,,,-3.837890625,-6.62109375,0,0,1,0.920628070831,,,,,2015_Oct_26_0930,G,facesParametric,21,59.7560920012,
./stim/MorphM1_10_orig.jpg,18,,,,,,,,,0,18,18,18,,,,,,,,,,,,,,,-3.837890625,-6.62109375,0,0,1,2.04085612297,,,,,2015_Oct_26_0930,G,facesParametric,21,59.7560920012,
./stim/MorphF9_06_orig.jpg,19,,,,,,,,,0,19,19,19,,,,,,,,,,,,,,,-3.837890625,-6.62109375,0,0,1,1.28942799568,,,,,2015_Oct_26_0930,G,facesParametric,21,59.7560920012,
./stim/MorphM7_02_orig.jpg,20,,,,,,,,,0,20,20,20,,,,,,,,,,,,,,,-3.837890625,-6.62109375,0,0,1,1.89188885689,,,,,2015_Oct_26_0930,G,facesParametric,21,59.7560920012,
./stim/MorphF1_00_orig.jpg,21,,,,,,,,,0,21,21,21,,,,,,,,,,,,,,,-3.837890625,-6.62109375,1,0,0,2.24399995804,,,,,2015_Oct_26_0930,G,facesParametric,21,59.7560920012,
./stim/MorphF7_04_orig.jpg,22,,,,,,,,,0,22,22,22,,,,,,,,,,,,,,,-3.837890625,-6.62109375,0,0,1,0.820183992386,,,,,2015_Oct_26_0930,G,facesParametric,21,59.7560920012,
./stim/MorphM3_04_orig.jpg,23,,,,,,,,,0,23,23,23,,,,,,,,,,,,,,,-3.837890625,-6.62109375,0,0,1,0.951689958572,,,,,2015_Oct_26_0930,G,facesParametric,21,59.7560920012,
./stim/MorphF2_01_orig.jpg,24,,,,,,,,,0,24,24,24,,,,,,,,,,,,,,,-3.837890625,-6.62109375,0,0,1,0.953018188477,,,,,2015_Oct_26_0930,G,facesParametric,21,59.7560920012,
./stim/MorphM7_04_orig.jpg,25,,,,,,,,,0,25,25,25,,,,,,,,,,,,,,,-3.837890625,-6.62109375,0,0,1,1.17208409309,,,,,2015_Oct_26_0930,G,facesParametric,21,59.7560920012,
./stim/MorphF6_02_orig.jpg,26,,,,,,,,,0,26,26,26,,,,,,,,,,,,,,,-3.837890625,-6.62109375,1,0,0,0.96844792366,,,,,2015_Oct_26_0930,G,facesParametric,21,59.7560920012,
./stim/MorphM4_08_orig.jpg,27,,,,,,,,,0,27,27,27,,,,,,,,,,,,,,,-3.837890625,-6.62109375,0,0,1,1.03637814522,,,,,2015_Oct_26_0930,G,facesParametric,21,59.7560920012,
./stim/MorphF9_09_orig.jpg,28,,,,,,,,,0,28,28,28,,,,,,,,,,,,,,,-3.837890625,-6.62109375,0,0,1,0.768913030624,,,,,2015_Oct_26_0930,G,facesParametric,21,59.7560920012,
./stim/MorphM6_06_orig.jpg,29,,,,,,,,,0,29,29,29,,,,,,,,,,,,,,,-3.837890625,-6.62109375,0,0,1,1.13872408867,,,,,2015_Oct_26_0930,G,facesParametric,21,59.7560920012,
./stim/MorphM4_07_orig.jpg,30,,,,,,,,,0,30,30,30,,,,,,,,,,,,,,,-3.837890625,-6.62109375,0,0,1,1.08806085587,,,,,2015_Oct_26_0930,G,facesParametric,21,59.7560920012,
./stim/MorphM10_01_orig.jpg,31,,,,,,,,,0,31,31,31,,,,,,,,,,,,,,,-3.837890625,-6.62109375,1,0,0,1.64068698883,,,,,2015_Oct_26_0930,G,facesParametric,21,59.7560920012,
./stim/MorphF2_03_orig.jpg,32,,,,,,,,,0,32,32,32,,,,,,,,,,,,,,,-3.837890625,-6.62109375,0,0,1,0.853620052338,,,,,2015_Oct_26_0930,G,facesParametric,21,59.7560920012,
./stim/MorphM3_03_orig.jpg,33,,,,,,,,,0,33,33,33,,,,,,,,,,,,,,,-3.837890625,-6.62109375,0,0,1,0.834225893021,,,,,2015_Oct_26_0930,G,facesParametric,21,59.7560920012,
./stim/MorphM2_04_orig.jpg,34,,,,,,,,,0,34,34,34,,,,,,,,,,,,,,,-3.837890625,-6.62109375,0,0,1,0.937632083893,,,,,2015_Oct_26_0930,G,facesParametric,21,59.7560920012,
./stim/MorphF10_00_orig.jpg,35,,,,,,,,,0,35,35,35,,,,,,,,,,,,,,,-3.837890625,-6.62109375,1,0,0,1.02122807503,,,,,2015_Oct_26_0930,G,facesParametric,21,59.7560920012,
./stim/MorphM2_03_orig.jpg,36,,,,,,,,,0,36,36,36,,,,,,,,,,,,,,,-3.837890625,-6.62109375,1,0,0,4.99156498909,,,,,2015_Oct_26_0930,G,facesParametric,21,59.7560920012,
./stim/MorphM4_06_orig.jpg,37,,,,,,,,,0,37,37,37,,,,,,,,,,,,,,,-3.837890625,-6.62109375,0,0,1,3.887196064,,,,,2015_Oct_26_0930,G,facesParametric,21,59.7560920012,
./stim/MorphF4_04_orig.jpg,38,,,,,,,,,0,38,38,38,,,,,,,,,,,,,,,-3.837890625,-6.62109375,1,0,0,1.13818717003,,,,,2015_Oct_26_0930,G,facesParametric,21,59.7560920012,
./stim/MorphF10_03_orig.jpg,39,,,,,,,,,0,39,39,39,,,,,,,,,,,,,,,-3.837890625,-6.62109375,1,0,0,1.38987493515,,,,,2015_Oct_26_0930,G,facesParametric,21,59.7560920012,
./stim/MorphF5_09_orig.jpg,40,,,,,,,,,0,40,40,40,,,,,,,,,,,,,,,-3.837890625,-6.62109375,0,0,1,1.08802890778,,,,,2015_Oct_26_0930,G,facesParametric,21,59.7560920012,
./stim/MorphF10_08_orig.jpg,41,,,,,,,,,0,41,41,41,,,,,,,,,,,,,,,-3.837890625,-6.62109375,0,0,1,0.95387506485,,,,,2015_Oct_26_0930,G,facesParametric,21,59.7560920012,
./stim/MorphF4_10_orig.jpg,42,,,,,,,,,0,42,42,42,,,,,,,,,,,,,,,-3.837890625,-6.62109375,0,0,1,0.719460010529,,,,,2015_Oct_26_0930,G,facesParametric,21,59.7560920012,
./stim/MorphM1_02_orig.jpg,43,,,,,,,,,0,43,43,43,,,,,,,,,,,,,,,-3.837890625,-6.62109375,1,0,0,1.47352790833,,,,,2015_Oct_26_0930,G,facesParametric,21,59.7560920012,
./stim/MorphF7_01_orig.jpg,44,,,,,,,,,0,44,44,44,,,,,,,,,,,,,,,-3.837890625,-6.62109375,1,0,0,1.77485394478,,,,,2015_Oct_26_0930,G,facesParametric,21,59.7560920012,
./stim/MorphF5_02_orig.jpg,45,,,,,,,,,0,45,45,45,,,,,,,,,,,,,,,-3.837890625,-6.62109375,1,0,0,1.876101017,,,,,2015_Oct_26_0930,G,facesParametric,21,59.7560920012,
./stim/MorphF4_08_orig.jpg,46,,,,,,,,,0,46,46,46,,,,,,,,,,,,,,,-3.837890625,-6.62109375,0,0,1,0.752807855606,,,,,2015_Oct_26_0930,G,facesParametric,21,59.7560920012,
./stim/MorphM1_07_orig.jpg,47,,,,,,,,,0,47,47,47,,,,,,,,,,,,,,,-3.837890625,-6.62109375,1,0,0,1.12180089951,,,,,2015_Oct_26_0930,G,facesParametric,21,59.7560920012,
./stim/MorphF5_06_orig.jpg,48,,,,,,,,,0,48,48,48,,,,,,,,,,,,,,,-3.837890625,-6.62109375,0,0,1,1.30530500412,,,,,2015_Oct_26_0930,G,facesParametric,21,59.7560920012,
./stim/MorphF9_00_orig.jpg,49,,,,,,,,,0,49,49,49,,,,,,,,,,,,,,,-3.837890625,-6.62109375,0,0,1,0.954128026962,,,,,2015_Oct_26_0930,G,facesParametric,21,59.7560920012,
./stim/MorphM1_08_orig.jpg,50,,,,,,,,,0,50,50,50,,,,,,,,,,,,,,,-3.837890625,-6.62109375,1,0,0,0.937353134155,,,,,2015_Oct_26_0930,G,facesParametric,21,59.7560920012,
./stim/MorphF4_09_orig.jpg,51,,,,,,,,,0,51,51,51,,,,,,,,,,,,,,,-3.837890625,-6.62109375,0,0,1,0.836565971375,,,,,2015_Oct_26_0930,G,facesParametric,21,59.7560920012,
./stim/MorphM5_10_orig.jpg,52,,,,,,,,,0,52,52,52,,,,,,,,,,,,,,,-3.837890625,-6.62109375,0,0,1,2.22860193253,,,,,2015_Oct_26_0930,G,facesParametric,21,59.7560920012,
./stim/MorphF6_07_orig.jpg,53,,,,,,,,,0,53,53,53,,,,,,,,,,,,,,,-3.837890625,-6.62109375,0,0,1,1.68850684166,,,,,2015_Oct_26_0930,G,facesParametric,21,59.7560920012,
./stim/MorphF3_01_orig.jpg,54,,,,,,,,,0,54,54,54,,,,,,,,,,,,,,,-3.837890625,-6.62109375,1,0,0,2.62822890282,,,,,2015_Oct_26_0930,G,facesParametric,21,59.7560920012,
./stim/MorphM4_10_orig.jpg,55,,,,,,,,,0,55,55,55,,,,,,,,,,,,,,,-3.837890625,-6.62109375,0,0,1,0.98512005806,,,,,2015_Oct_26_0930,G,facesParametric,21,59.7560920012,
./stim/MorphF1_08_orig.jpg,56,,,,,,,,,0,56,56,56,,,,,,,,,,,,,,,-3.837890625,-6.62109375,0,0,1,0.951776981354,,,,,2015_Oct_26_0930,G,facesParametric,21,59.7560920012,
./stim/MorphF2_09_orig.jpg,57,,,,,,,,,0,57,57,57,,,,,,,,,,,,,,,-3.837890625,-6.62109375,0,0,1,0.668034076691,,,,,2015_Oct_26_0930,G,facesParametric,21,59.7560920012,
./stim/MorphM9_01_orig.jpg,58,,,,,,,,,0,58,58,58,,,,,,,,,,,,,,,-3.837890625,-6.62109375,1,0,0,1.23920917511,,,,,2015_Oct_26_0930,G,facesParametric,21,59.7560920012,
./stim/MorphF9_08_orig.jpg,59,,,,,,,,,0,59,59,59,,,,,,,,,,,,,,,-3.837890625,-6.62109375,0,0,1,1.37280201912,,,,,2015_Oct_26_0930,G,facesParametric,21,59.7560920012,
./stim/MorphF8_04_orig.jpg,60,,,,,,,,,0,60,60,60,,,,,,,,,,,,,,,-3.837890625,-6.62109375,0,0,1,1.18835306168,,,,,2015_Oct_26_0930,G,facesParametric,21,59.7560920012,
./stim/MorphF7_10_orig.jpg,61,,,,,,,,,0,61,61,61,,,,,,,,,,,,,,,-3.837890625,-6.62109375,1,0,0,3.26712584496,,,,,2015_Oct_26_0930,G,facesParametric,21,59.7560920012,
./stim/MorphM4_03_orig.jpg,62,,,,,,,,,0,62,62,62,,,,,,,,,,,,,,,-3.837890625,-6.62109375,0,0,1,1.80943012238,,,,,2015_Oct_26_0930,G,facesParametric,21,59.7560920012,
./stim/MorphF6_10_orig.jpg,63,,,,,,,,,0,63,63,63,,,,,,,,,,,,,,,-3.837890625,-6.62109375,0,0,1,0.835756063461,,,,,2015_Oct_26_0930,G,facesParametric,21,59.7560920012,
./stim/MorphM3_08_orig.jpg,64,,,,,,,,,0,64,64,64,,,,,,,,,,,,,,,-3.837890625,-6.62109375,0,0,1,0.736192941666,,,,,2015_Oct_26_0930,G,facesParametric,21,59.7560920012,
./stim/MorphM2_08_orig.jpg,65,,,,,,,,,0,65,65,65,,,,,,,,,,,,,,,-3.837890625,-6.62109375,0,0,1,0.901617050171,,,,,2015_Oct_26_0930,G,facesParametric,21,59.7560920012,
./stim/MorphF6_05_orig.jpg,66,,,,,,,,,0,66,66,66,,,,,,,,,,,,,,,-3.837890625,-6.62109375,0,0,1,5.14410805702,,,,,2015_Oct_26_0930,G,facesParametric,21,59.7560920012,
./stim/MorphF9_07_orig.jpg,67,,,,,,,,,0,67,67,67,,,,,,,,,,,,,,,-3.837890625,-6.62109375,0,0,1,1.12099909782,,,,,2015_Oct_26_0930,G,facesParametric,21,59.7560920012,
./stim/MorphM10_08_orig.jpg,68,,,,,,,,,0,68,68,68,,,,,,,,,,,,,,,-3.837890625,-6.62109375,0,0,1,1.05481910706,,,,,2015_Oct_26_0930,G,facesParametric,21,59.7560920012,
./stim/MorphM4_09_orig.jpg,69,,,,,,,,,0,69,69,69,,,,,,,,,,,,,,,-3.837890625,-6.62109375,0,0,1,0.887079000473,,,,,2015_Oct_26_0930,G,facesParametric,21,59.7560920012,
./stim/MorphF2_07_orig.jpg,70,,,,,,,,,0,70,70,70,,,,,,,,,,,,,,,-3.837890625,-6.62109375,0,0,1,0.786332130432,,,,,2015_Oct_26_0930,G,facesParametric,21,59.7560920012,
./stim/MorphF6_01_orig.jpg,71,,,,,,,,,0,71,71,71,,,,,,,,,,,,,,,-3.837890625,-6.62109375,0,0,1,1.07160186768,,,,,2015_Oct_26_0930,G,facesParametric,21,59.7560920012,
./stim/MorphM2_06_orig.jpg,72,,,,,,,,,0,72,72,72,,,,,,,,,,,,,,,-3.837890625,-6.62109375,0,0,1,2.1774251461,,,,,2015_Oct_26_0930,G,facesParametric,21,59.7560920012,
./stim/MorphM5_07_orig.jpg,73,,,,,,,,,0,73,73,73,,,,,,,,,,,,,,,-3.837890625,-6.62109375,0,0,1,2.4791469574,,,,,2015_Oct_26_0930,G,facesParametric,21,59.7560920012,
./stim/MorphF6_08_orig.jpg,74,,,,,,,,,0,74,74,74,,,,,,,,,,,,,,,-3.837890625,-6.62109375,0,0,1,1.05460214615,,,,,2015_Oct_26_0930,G,facesParametric,21,59.7560920012,
./stim/MorphM8_06_orig.jpg,75,,,,,,,,,0,75,75,75,,,,,,,,,,,,,,,-3.837890625,-6.62109375,0,0,1,0.903795003891,,,,,2015_Oct_26_0930,G,facesParametric,21,59.7560920012,
./stim/MorphM5_01_orig.jpg,76,,,,,,,,,0,76,76,76,,,,,,,,,,,,,,,-3.837890625,-6.62109375,0,0,1,1.89261603355,,,,,2015_Oct_26_0930,G,facesParametric,21,59.7560920012,
./stim/MorphM9_09_orig.jpg,77,,,,,,,,,0,77,77,77,,,,,,,,,,,,,,,-3.837890625,-6.62109375,0,0,1,0.666987895966,,,,,2015_Oct_26_0930,G,facesParametric,21,59.7560920012,
./stim/MorphF4_01_orig.jpg,78,,,,,,,,,0,78,78,78,,,,,,,,,,,,,,,-3.837890625,-6.62109375,0,0,1,1.23954701424,,,,,2015_Oct_26_0930,G,facesParametric,21,59.7560920012,
./stim/MorphM3_01_orig.jpg,79,,,,,,,,,0,79,79,79,,,,,,,,,,,,,,,-3.837890625,-6.62109375,0,0,1,1.7749478817,,,,,2015_Oct_26_0930,G,facesParametric,21,59.7560920012,
./stim/MorphF8_05_orig.jpg,80,,,,,,,,,0,80,80,80,,,,,,,,,,,,,,,-3.837890625,-6.62109375,0,0,1,3.65259408951,,,,,2015_Oct_26_0930,G,facesParametric,21,59.7560920012,
./stim/MorphM8_04_orig.jpg,81,,,,,,,,,0,81,81,81,,,,,,,,,,,,,,,-3.837890625,-6.62109375,0,0,1,4.28702807426,,,,,2015_Oct_26_0930,G,facesParametric,21,59.7560920012,
./stim/MorphM3_06_orig.jpg,82,,,,,,,,,0,82,82,82,,,,,,,,,,,,,,,-3.837890625,-6.62109375,0,0,1,0.769747018814,,,,,2015_Oct_26_0930,G,facesParametric,21,59.7560920012,
./stim/MorphF6_00_orig.jpg,83,,,,,,,,,0,83,83,83,,,,,,,,,,,,,,,-3.837890625,-6.62109375,1,0,0,1.49028706551,,,,,2015_Oct_26_0930,G,facesParametric,21,59.7560920012,
./stim/MorphF4_05_orig.jpg,84,,,,,,,,,0,84,84,84,,,,,,,,,,,,,,,-3.837890625,-6.62109375,0,0,1,0.702669858932,,,,,2015_Oct_26_0930,G,facesParametric,21,59.7560920012,
./stim/MorphM6_08_orig.jpg,85,,,,,,,,,0,85,85,85,,,,,,,,,,,,,,,-3.837890625,-6.62109375,0,0,1,1.23849105835,,,,,2015_Oct_26_0930,G,facesParametric,21,59.7560920012,
./stim/MorphF1_02_orig.jpg,86,,,,,,,,,0,86,86,86,,,,,,,,,,,,,,,-3.837890625,-6.62109375,1,0,0,1.00439095497,,,,,2015_Oct_26_0930,G,facesParametric,21,59.7560920012,
./stim/MorphM8_00_orig.jpg,87,,,,,,,,,0,87,87,87,,,,,,,,,,,,,,,-3.837890625,-6.62109375,0,0,1,0.686056137085,,,,,2015_Oct_26_0930,G,facesParametric,21,59.7560920012,
./stim/MorphF8_01_orig.jpg,88,,,,,,,,,0,88,88,88,,,,,,,,,,,,,,,-3.837890625,-6.62109375,0,0,1,1.33954119682,,,,,2015_Oct_26_0930,G,facesParametric,21,59.7560920012,
./stim/MorphF3_06_orig.jpg,89,,,,,,,,,0,89,89,89,,,,,,,,,,,,,,,-3.837890625,-6.62109375,1,0,0,1.62435507774,,,,,2015_Oct_26_0930,G,facesParametric,21,59.7560920012,
./stim/MorphM4_05_orig.jpg,90,,,,,,,,,0,90,90,90,,,,,,,,,,,,,,,-3.837890625,-6.62109375,0,0,1,1.5404958725,,,,,2015_Oct_26_0930,G,facesParametric,21,59.7560920012,
./stim/MorphF2_02_orig.jpg,91,,,,,,,,,0,91,91,91,,,,,,,,,,,,,,,-3.837890625,-6.62109375,0,0,1,1.02090191841,,,,,2015_Oct_26_0930,G,facesParametric,21,59.7560920012,
./stim/MorphM1_05_orig.jpg,92,,,,,,,,,0,92,92,92,,,,,,,,,,,,,,,-3.837890625,-6.62109375,1,0,0,1.17177581787,,,,,2015_Oct_26_0930,G,facesParametric,21,59.7560920012,
./stim/MorphF10_10_orig.jpg,93,,,,,,,,,0,93,93,93,,,,,,,,,,,,,,,-3.837890625,-6.62109375,0,0,1,1.0381231308,,,,,2015_Oct_26_0930,G,facesParametric,21,59.7560920012,
./stim/MorphM9_00_orig.jpg,94,,,,,,,,,0,94,94,94,,,,,,,,,,,,,,,-3.837890625,-6.62109375,0,0,1,0.886997938156,,,,,2015_Oct_26_0930,G,facesParametric,21,59.7560920012,
./stim/MorphM10_00_orig.jpg,95,,,,,,,,,0,95,95,95,,,,,,,,,,,,,,,-3.837890625,-6.62109375,1,0,0,1.59083890915,,,,,2015_Oct_26_0930,G,facesParametric,21,59.7560920012,
./stim/MorphM9_04_orig.jpg,96,,,,,,,,,0,96,96,96,,,,,,,,,,,,,,,-3.837890625,-6.62109375,0,0,1,3.63557887077,,,,,2015_Oct_26_0930,G,facesParametric,21,59.7560920012,
./stim/MorphM7_01_orig.jpg,97,,,,,,,,,0,97,97,97,,,,,,,,,,,,,,,-3.837890625,-6.62109375,0,0,1,1.33958697319,,,,,2015_Oct_26_0930,G,facesParametric,21,59.7560920012,
./stim/MorphM1_01_orig.jpg,98,,,,,,,,,0,98,98,98,,,,,,,,,,,,,,,-3.837890625,-6.62109375,0,0,1,1.2043261528,,,,,2015_Oct_26_0930,G,facesParametric,21,59.7560920012,
./stim/MorphF9_02_orig.jpg,99,,,,,,,,,0,99,99,99,,,,,,,,,,,,,,,-3.837890625,-6.62109375,1,0,0,1.1216340065,,,,,2015_Oct_26_0930,G,facesParametric,21,59.7560920012,
./stim/MorphF5_05_orig.jpg,100,,,,,,,,,0,100,100,100,,,,,,,,,,,,,,,-3.837890625,-6.62109375,0,0,1,1.10460090637,,,,,2015_Oct_26_0930,G,facesParametric,21,59.7560920012,
./stim/MorphM9_05_orig.jpg,101,,,,,,,,,0,101,101,101,,,,,,,,,,,,,,,-3.837890625,-6.62109375,0,0,1,1.22118997574,,,,,2015_Oct_26_0930,G,facesParametric,21,59.7560920012,
./stim/MorphF8_09_orig.jpg,102,,,,,,,,,0,102,102,102,,,,,,,,,,,,,,,-3.837890625,-6.62109375,0,0,1,1.2051410675,,,,,2015_Oct_26_0930,G,facesParametric,21,59.7560920012,
./stim/MorphM3_02_orig.jpg,103,,,,,,,,,0,103,103,103,,,,,,,,,,,,,,,-3.837890625,-6.62109375,0,0,1,1.30601000786,,,,,2015_Oct_26_0930,G,facesParametric,21,59.7560920012,
./stim/MorphF2_08_orig.jpg,104,,,,,,,,,0,104,104,104,,,,,,,,,,,,,,,-3.837890625,-6.62109375,0,0,1,0.769446134567,,,,,2015_Oct_26_0930,G,facesParametric,21,59.7560920012,
./stim/MorphM1_04_orig.jpg,105,,,,,,,,,0,105,105,105,,,,,,,,,,,,,,,-3.837890625,-6.62109375,1,0,0,1.10415005684,,,,,2015_Oct_26_0930,G,facesParametric,21,59.7560920012,
./stim/MorphM7_07_orig.jpg,106,,,,,,,,,0,106,106,106,,,,,,,,,,,,,,,-3.837890625,-6.62109375,0,0,1,0.618863105774,,,,,2015_Oct_26_0930,G,facesParametric,21,59.7560920012,
./stim/MorphM5_06_orig.jpg,107,,,,,,,,,0,107,107,107,,,,,,,,,,,,,,,-3.837890625,-6.62109375,0,0,1,0.937160968781,,,,,2015_Oct_26_0930,G,facesParametric,21,59.7560920012,
./stim/MorphF1_07_orig.jpg,108,,,,,,,,,0,108,108,108,,,,,,,,,,,,,,,-3.837890625,-6.62109375,0,0,1,0.985664129257,,,,,2015_Oct_26_0930,G,facesParametric,21,59.7560920012,
./stim/MorphF3_00_orig.jpg,109,,,,,,,,,0,109,109,109,,,,,,,,,,,,,,,-3.837890625,-6.62109375,1,0,0,1.08871078491,,,,,2015_Oct_26_0930,G,facesParametric,21,59.7560920012,
./stim/MorphM4_02_orig.jpg,110,,,,,,,,,0,110,110,110,,,,,,,,,,,,,,,-3.837890625,-6.62109375,0,0,1,0.751698970795,,,,,2015_Oct_26_0930,G,facesParametric,21,59.7560920012,
./stim/MorphF6_06_orig.jpg,111,,,,,,,,,0,111,111,111,,,,,,,,,,,,,,,-3.837890625,-6.62109375,0,0,1,0.769142866135,,,,,2015_Oct_26_0930,G,facesParametric,21,59.7560920012,
./stim/MorphM2_02_orig.jpg,112,,,,,,,,,0,112,112,112,,,,,,,,,,,,,,,-3.837890625,-6.62109375,0,0,1,0.802221059799,,,,,2015_Oct_26_0930,G,facesParametric,21,59.7560920012,
./stim/MorphF4_00_orig.jpg,113,,,,,,,,,0,113,113,113,,,,,,,,,,,,,,,-3.837890625,-6.62109375,0,0,1,0.768295049667,,,,,2015_Oct_26_0930,G,facesParametric,21,59.7560920012,
./stim/MorphF1_04_orig.jpg,114,,,,,,,,,0,114,114,114,,,,,,,,,,,,,,,-3.837890625,-6.62109375,0,0,1,0.887046098709,,,,,2015_Oct_26_0930,G,facesParametric,21,59.7560920012,
./stim/MorphF9_05_orig.jpg,115,,,,,,,,,0,115,115,115,,,,,,,,,,,,,,,-3.837890625,-6.62109375,0,0,1,0.886225938797,,,,,2015_Oct_26_0930,G,facesParametric,21,59.7560920012,
./stim/MorphF7_09_orig.jpg,116,,,,,,,,,0,116,116,116,,,,,,,,,,,,,,,-3.837890625,-6.62109375,0,0,1,0.685127019882,,,,,2015_Oct_26_0930,G,facesParametric,21,59.7560920012,
./stim/MorphM7_03_orig.jpg,117,,,,,,,,,0,117,117,117,,,,,,,,,,,,,,,-3.837890625,-6.62109375,0,0,1,1.23872590065,,,,,2015_Oct_26_0930,G,facesParametric,21,59.7560920012,
./stim/MorphM1_06_orig.jpg,118,,,,,,,,,0,118,118,118,,,,,,,,,,,,,,,-3.837890625,-6.62109375,1,0,0,0.870520114899,,,,,2015_Oct_26_0930,G,facesParametric,21,59.7560920012,
./stim/MorphF6_04_orig.jpg,119,,,,,,,,,0,119,119,119,,,,,,,,,,,,,,,-3.837890625,-6.62109375,0,0,1,0.702484846115,,,,,2015_Oct_26_0930,G,facesParametric,21,59.7560920012,
./stim/MorphM6_07_orig.jpg,120,,,,,,,,,0,120,120,120,,,,,,,,,,,,,,,-3.837890625,-6.62109375,0,0,1,0.719290018082,,,,,2015_Oct_26_0930,G,facesParametric,21,59.7560920012,
./stim/MorphF7_05_orig.jpg,121,,,,,,,,,0,121,121,121,,,,,,,,,,,,,,,-3.837890625,-6.62109375,0,0,1,0.703087091446,,,,,2015_Oct_26_0930,G,facesParametric,21,59.7560920012,
./stim/MorphF4_03_orig.jpg,122,,,,,,,,,0,122,122,122,,,,,,,,,,,,,,,-3.837890625,-6.62109375,0,0,1,0.71825003624,,,,,2015_Oct_26_0930,G,facesParametric,21,59.7560920012,
./stim/MorphM10_03_orig.jpg,123,,,,,,,,,0,123,123,123,,,,,,,,,,,,,,,-3.837890625,-6.62109375,0,0,1,1.10397815704,,,,,2015_Oct_26_0930,G,facesParametric,21,59.7560920012,
./stim/MorphM2_09_orig.jpg,124,,,,,,,,,0,124,124,124,,,,,,,,,,,,,,,-3.837890625,-6.62109375,0,0,1,0.635185003281,,,,,2015_Oct_26_0930,G,facesParametric,21,59.7560920012,
./stim/MorphM3_09_orig.jpg,125,,,,,,,,,0,125,125,125,,,,,,,,,,,,,,,-3.837890625,-6.62109375,0,0,1,0.686155080795,,,,,2015_Oct_26_0930,G,facesParametric,21,59.7560920012,
./stim/MorphF4_07_orig.jpg,126,,,,,,,,,0,126,126,126,,,,,,,,,,,,,,,-3.837890625,-6.62109375,0,0,1,0.636088132858,,,,,2015_Oct_26_0930,G,facesParametric,21,59.7560920012,
./stim/MorphF1_05_orig.jpg,127,,,,,,,,,0,127,127,127,,,,,,,,,,,,,,,-3.837890625,-6.62109375,0,0,1,1.2380130291,,,,,2015_Oct_26_0930,G,facesParametric,21,59.7560920012,
./stim/MorphF3_03_orig.jpg,128,,,,,,,,,0,128,128,128,,,,,,,,,,,,,,,-3.837890625,-6.62109375,1,0,0,1.54070687294,,,,,2015_Oct_26_0930,G,facesParametric,21,59.7560920012,
./stim/MorphM6_00_orig.jpg,129,,,,,,,,,0,129,129,129,,,,,,,,,,,,,,,-3.837890625,-6.62109375,0,0,1,0.551813840866,,,,,2015_Oct_26_0930,G,facesParametric,21,59.7560920012,
./stim/MorphF8_06_orig.jpg,130,,,,,,,,,0,130,130,130,,,,,,,,,,,,,,,-3.837890625,-6.62109375,0,0,1,1.4064950943,,,,,2015_Oct_26_0930,G,facesParametric,21,59.7560920012,
./stim/MorphM3_00_orig.jpg,131,,,,,,,,,0,131,131,131,,,,,,,,,,,,,,,-3.837890625,-6.62109375,1,0,0,1.00429797173,,,,,2015_Oct_26_0930,G,facesParametric,21,59.7560920012,
./stim/MorphM5_02_orig.jpg,132,,,,,,,,,0,132,132,132,,,,,,,,,,,,,,,-3.837890625,-6.62109375,1,0,0,1.94291877747,,,,,2015_Oct_26_0930,G,facesParametric,21,59.7560920012,
./stim/MorphM10_07_orig.jpg,133,,,,,,,,,0,133,133,133,,,,,,,,,,,,,,,-3.837890625,-6.62109375,0,0,1,0.769520044327,,,,,2015_Oct_26_0930,G,facesParametric,21,59.7560920012,
./stim/MorphF10_02_orig.jpg,134,,,,,,,,,0,134,134,134,,,,,,,,,,,,,,,-3.837890625,-6.62109375,0,0,1,0.76984000206,,,,,2015_Oct_26_0930,G,facesParametric,21,59.7560920012,
./stim/MorphF7_08_orig.jpg,135,,,,,,,,,0,135,135,135,,,,,,,,,,,,,,,-3.837890625,-6.62109375,0,0,1,0.736248016357,,,,,2015_Oct_26_0930,G,facesParametric,21,59.7560920012,
./stim/MorphM8_07_orig.jpg,136,,,,,,,,,0,136,136,136,,,,,,,,,,,,,,,-3.837890625,-6.62109375,0,0,1,0.803161144257,,,,,2015_Oct_26_0930,G,facesParametric,21,59.7560920012,
./stim/MorphF9_01_orig.jpg,137,,,,,,,,,0,137,137,137,,,,,,,,,,,,,,,-3.837890625,-6.62109375,0,0,1,4.54031085968,,,,,2015_Oct_26_0930,G,facesParametric,21,59.7560920012,
./stim/MorphM8_10_orig.jpg,138,,,,,,,,,0,138,138,138,,,,,,,,,,,,,,,-3.837890625,-6.62109375,0,0,1,0.820431947708,,,,,2015_Oct_26_0930,G,facesParametric,21,59.7560920012,
./stim/MorphF3_05_orig.jpg,139,,,,,,,,,0,139,139,139,,,,,,,,,,,,,,,-3.837890625,-6.62109375,1,0,0,2.86433601379,,,,,2015_Oct_26_0930,G,facesParametric,21,59.7560920012,
./stim/MorphM7_05_orig.jpg,140,,,,,,,,,0,140,140,140,,,,,,,,,,,,,,,-3.837890625,-6.62109375,0,0,1,0.818279981613,,,,,2015_Oct_26_0930,G,facesParametric,21,59.7560920012,
./stim/MorphM5_09_orig.jpg,141,,,,,,,,,0,141,141,141,,,,,,,,,,,,,,,-3.837890625,-6.62109375,0,0,1,0.635628938675,,,,,2015_Oct_26_0930,G,facesParametric,21,59.7560920012,
./stim/MorphF9_04_orig.jpg,142,,,,,,,,,0,142,142,142,,,,,,,,,,,,,,,-3.837890625,-6.62109375,0,0,1,0.702904939651,,,,,2015_Oct_26_0930,G,facesParametric,21,59.7560920012,
./stim/MorphF8_08_orig.jpg,143,,,,,,,,,0,143,143,143,,,,,,,,,,,,,,,-3.837890625,-6.62109375,0,0,1,0.670148849487,,,,,2015_Oct_26_0930,G,facesParametric,21,59.7560920012,
./stim/MorphM9_07_orig.jpg,144,,,,,,,,,0,144,144,144,,,,,,,,,,,,,,,-3.837890625,-6.62109375,0,0,1,0.751800060272,,,,,2015_Oct_26_0930,G,facesParametric,21,59.7560920012,
./stim/MorphM6_05_orig.jpg,145,,,,,,,,,0,145,145,145,,,,,,,,,,,,,,,-3.837890625,-6.62109375,0,0,1,0.602116107941,,,,,2015_Oct_26_0930,G,facesParametric,21,59.7560920012,
./stim/MorphM8_01_orig.jpg,146,,,,,,,,,0,146,146,146,,,,,,,,,,,,,,,-3.837890625,-6.62109375,0,0,1,0.719493865967,,,,,2015_Oct_26_0930,G,facesParametric,21,59.7560920012,
./stim/MorphF7_07_orig.jpg,147,,,,,,,,,0,147,147,147,,,,,,,,,,,,,,,-3.837890625,-6.62109375,0,0,1,0.668856143951,,,,,2015_Oct_26_0930,G,facesParametric,21,59.7560920012,
./stim/MorphM7_10_orig.jpg,148,,,,,,,,,0,148,148,148,,,,,,,,,,,,,,,-3.837890625,-6.62109375,0,0,1,1.02099394798,,,,,2015_Oct_26_0930,G,facesParametric,21,59.7560920012,
./stim/MorphM4_01_orig.jpg,149,,,,,,,,,0,149,149,149,,,,,,,,,,,,,,,-3.837890625,-6.62109375,0,0,1,0.853353023529,,,,,2015_Oct_26_0930,G,facesParametric,21,59.7560920012,
./stim/MorphF2_10_orig.jpg,150,,,,,,,,,0,150,150,150,,,,,,,,,,,,,,,-3.837890625,-6.62109375,0,0,1,0.803340911865,,,,,2015_Oct_26_0930,G,facesParametric,21,59.7560920012,
./stim/MorphM4_00_orig.jpg,151,,,,,,,,,0,151,151,151,,,,,,,,,,,,,,,-3.837890625,-6.62109375,0,0,1,0.736222982407,,,,,2015_Oct_26_0930,G,facesParametric,21,59.7560920012,
./stim/MorphM10_10_orig.jpg,152,,,,,,,,,0,152,152,152,,,,,,,,,,,,,,,-3.837890625,-6.62109375,0,0,1,0.700937986374,,,,,2015_Oct_26_0930,G,facesParametric,21,59.7560920012,
./stim/MorphF10_09_orig.jpg,153,,,,,,,,,0,153,153,153,,,,,,,,,,,,,,,-3.837890625,-6.62109375,0,0,1,0.7858710289,,,,,2015_Oct_26_0930,G,facesParametric,21,59.7560920012,
./stim/MorphM5_08_orig.jpg,154,,,,,,,,,0,154,154,154,,,,,,,,,,,,,,,-3.837890625,-6.62109375,0,0,1,0.853041172028,,,,,2015_Oct_26_0930,G,facesParametric,21,59.7560920012,
./stim/MorphM9_02_orig.jpg,155,,,,,,,,,0,155,155,155,,,,,,,,,,,,,,,-3.837890625,-6.62109375,0,0,1,0.836418151855,,,,,2015_Oct_26_0930,G,facesParametric,21,59.7560920012,
./stim/MorphF5_10_orig.jpg,156,,,,,,,,,0,156,156,156,,,,,,,,,,,,,,,-3.837890625,-6.62109375,0,0,1,1.03742384911,,,,,2015_Oct_26_0930,G,facesParametric,21,59.7560920012,
./stim/MorphM1_03_orig.jpg,157,,,,,,,,,0,157,157,157,,,,,,,,,,,,,,,-3.837890625,-6.62109375,1,0,0,3.80303001404,,,,,2015_Oct_26_0930,G,facesParametric,21,59.7560920012,
./stim/MorphM10_06_orig.jpg,158,,,,,,,,,0,158,158,158,,,,,,,,,,,,,,,-3.837890625,-6.62109375,0,0,1,0.618078947067,,,,,2015_Oct_26_0930,G,facesParametric,21,59.7560920012,
./stim/MorphF9_03_orig.jpg,159,,,,,,,,,0,159,159,159,,,,,,,,,,,,,,,-3.837890625,-6.62109375,0,0,1,0.616863012314,,,,,2015_Oct_26_0930,G,facesParametric,21,59.7560920012,
./stim/MorphF5_04_orig.jpg,160,,,,,,,,,0,160,160,160,,,,,,,,,,,,,,,-3.837890625,-6.62109375,0,0,1,1.05276799202,,,,,2015_Oct_26_0930,G,facesParametric,21,59.7560920012,
./stim/MorphM6_01_orig.jpg,161,,,,,,,,,0,161,161,161,,,,,,,,,,,,,,,-3.837890625,-6.62109375,0,0,1,0.651381969452,,,,,2015_Oct_26_0930,G,facesParametric,21,59.7560920012,
./stim/MorphF3_04_orig.jpg,162,,,,,,,,,0,162,162,162,,,,,,,,,,,,,,,-3.837890625,-6.62109375,1,0,0,2.36149907112,,,,,2015_Oct_26_0930,G,facesParametric,21,59.7560920012,
./stim/MorphF1_06_orig.jpg,163,,,,,,,,,0,163,163,163,,,,,,,,,,,,,,,-3.837890625,-6.62109375,0,0,1,0.719545125961,,,,,2015_Oct_26_0930,G,facesParametric,21,59.7560920012,
./stim/MorphF10_05_orig.jpg,164,,,,,,,,,0,164,164,164,,,,,,,,,,,,,,,-3.837890625,-6.62109375,0,0,1,0.870318174362,,,,,2015_Oct_26_0930,G,facesParametric,21,59.7560920012,
./stim/MorphF4_06_orig.jpg,165,,,,,,,,,0,165,165,165,,,,,,,,,,,,,,,-3.837890625,-6.62109375,0,0,1,0.970967054367,,,,,2015_Oct_26_0930,G,facesParametric,21,59.7560920012,
./stim/MorphF7_00_orig.jpg,166,,,,,,,,,0,166,166,166,,,,,,,,,,,,,,,-3.837890625,-6.62109375,1,0,0,1.22201514244,,,,,2015_Oct_26_0930,G,facesParametric,21,59.7560920012,
./stim/MorphM9_03_orig.jpg,167,,,,,,,,,0,167,167,167,,,,,,,,,,,,,,,-3.837890625,-6.62109375,0,0,1,0.76779794693,,,,,2015_Oct_26_0930,G,facesParametric,21,59.7560920012,
./stim/MorphF2_06_orig.jpg,168,,,,,,,,,0,168,168,168,,,,,,,,,,,,,,,-3.837890625,-6.62109375,0,0,1,0.735236167908,,,,,2015_Oct_26_0930,G,facesParametric,21,59.7560920012,
./stim/MorphF5_07_orig.jpg,169,,,,,,,,,0,169,169,169,,,,,,,,,,,,,,,-3.837890625,-6.62109375,0,0,1,1.07145619392,,,,,2015_Oct_26_0930,G,facesParametric,21,59.7560920012,
./stim/MorphF8_00_orig.jpg,170,,,,,,,,,0,170,170,170,,,,,,,,,,,,,,,-3.837890625,-6.62109375,0,0,1,1.49038791656,,,,,2015_Oct_26_0930,G,facesParametric,21,59.7560920012,
./stim/MorphF5_08_orig.jpg,171,,,,,,,,,0,171,171,171,,,,,,,,,,,,,,,-3.837890625,-6.62109375,0,0,1,0.819407939911,,,,,2015_Oct_26_0930,G,facesParametric,21,59.7560920012,
./stim/MorphM7_09_orig.jpg,172,,,,,,,,,0,172,172,172,,,,,,,,,,,,,,,-3.837890625,-6.62109375,0,0,1,0.803404092789,,,,,2015_Oct_26_0930,G,facesParametric,21,59.7560920012,
./stim/MorphM2_07_orig.jpg,173,,,,,,,,,0,173,173,173,,,,,,,,,,,,,,,-3.837890625,-6.62109375,0,0,1,0.954181909561,,,,,2015_Oct_26_0930,G,facesParametric,21,59.7560920012,
./stim/MorphM9_10_orig.jpg,174,,,,,,,,,0,174,174,174,,,,,,,,,,,,,,,-3.837890625,-6.62109375,0,0,1,1.55742001534,,,,,2015_Oct_26_0930,G,facesParametric,21,59.7560920012,
./stim/MorphM6_04_orig.jpg,175,,,,,,,,,0,175,175,175,,,,,,,,,,,,,,,-3.837890625,-6.62109375,1,0,0,1.64116883278,,,,,2015_Oct_26_0930,G,facesParametric,21,59.7560920012,
./stim/MorphM8_03_orig.jpg,176,,,,,,,,,0,176,176,176,,,,,,,,,,,,,,,-3.837890625,-6.62109375,0,0,1,0.719394922256,,,,,2015_Oct_26_0930,G,facesParametric,21,59.7560920012,
./stim/MorphF1_09_orig.jpg,177,,,,,,,,,0,177,177,177,,,,,,,,,,,,,,,-3.837890625,-6.62109375,0,0,1,1.02002477646,,,,,2015_Oct_26_0930,G,facesParametric,21,59.7560920012,
./stim/MorphF6_09_orig.jpg,178,,,,,,,,,0,178,178,178,,,,,,,,,,,,,,,-3.837890625,-6.62109375,0,0,1,0.903896093369,,,,,2015_Oct_26_0930,G,facesParametric,21,59.7560920012,
./stim/MorphF10_04_orig.jpg,179,,,,,,,,,0,179,179,179,,,,,,,,,,,,,,,-3.837890625,-6.62109375,1,0,0,3.40085697174,,,,,2015_Oct_26_0930,G,facesParametric,21,59.7560920012,
./stim/MorphM1_09_orig.jpg,180,,,,,,,,,0,180,180,180,,,,,,,,,,,,,,,-3.837890625,-6.62109375,1,0,0,2.57971096039,,,,,2015_Oct_26_0930,G,facesParametric,21,59.7560920012,
./stim/MorphF1_03_orig.jpg,181,,,,,,,,,0,181,181,181,,,,,,,,,,,,,,,-3.837890625,-6.62109375,1,0,0,1.79185509682,,,,,2015_Oct_26_0930,G,facesParametric,21,59.7560920012,
./stim/MorphF3_02_orig.jpg,182,,,,,,,,,0,182,182,182,,,,,,,,,,,,,,,-3.837890625,-6.62109375,1,0,0,1.1548268795,,,,,2015_Oct_26_0930,G,facesParametric,21,59.7560920012,
./stim/MorphM5_04_orig.jpg,183,,,,,,,,,0,183,183,183,,,,,,,,,,,,,,,-3.837890625,-6.62109375,0,0,1,0.868654966354,,,,,2015_Oct_26_0930,G,facesParametric,21,59.7560920012,
./stim/MorphF6_03_orig.jpg,184,,,,,,,,,0,184,184,184,,,,,,,,,,,,,,,-3.837890625,-6.62109375,0,0,1,0.85356092453,,,,,2015_Oct_26_0930,G,facesParametric,21,59.7560920012,
./stim/MorphF5_03_orig.jpg,185,,,,,,,,,0,185,185,185,,,,,,,,,,,,,,,-3.837890625,-6.62109375,1,0,0,1.89266300201,,,,,2015_Oct_26_0930,G,facesParametric,21,59.7560920012,
./stim/MorphM9_08_orig.jpg,186,,,,,,,,,0,186,186,186,,,,,,,,,,,,,,,-3.837890625,-6.62109375,0,0,1,0.767785787582,,,,,2015_Oct_26_0930,G,facesParametric,21,59.7560920012,
./stim/MorphF10_06_orig.jpg,187,,,,,,,,,0,187,187,187,,,,,,,,,,,,,,,-3.837890625,-6.62109375,0,0,1,1.00410890579,,,,,2015_Oct_26_0930,G,facesParametric,21,59.7560920012,
./stim/MorphF2_04_orig.jpg,188,,,,,,,,,0,188,188,188,,,,,,,,,,,,,,,-3.837890625,-6.62109375,0,0,1,0.753009080887,,,,,2015_Oct_26_0930,G,facesParametric,21,59.7560920012,
./stim/MorphF5_00_orig.jpg,189,,,,,,,,,0,189,189,189,,,,,,,,,,,,,,,-3.837890625,-6.62109375,1,0,0,6.93739700317,,,,,2015_Oct_26_0930,G,facesParametric,21,59.7560920012,
./stim/MorphF8_07_orig.jpg,190,,,,,,,,,0,190,190,190,,,,,,,,,,,,,,,-3.837890625,-6.62109375,0,0,1,0.769147872925,,,,,2015_Oct_26_0930,G,facesParametric,21,59.7560920012,
./stim/MorphM2_10_orig.jpg,191,,,,,,,,,0,191,191,191,,,,,,,,,,,,,,,-3.837890625,-6.62109375,0,0,1,0.718195915222,,,,,2015_Oct_26_0930,G,facesParametric,21,59.7560920012,
./stim/MorphM6_10_orig.jpg,192,,,,,,,,,0,192,192,192,,,,,,,,,,,,,,,-3.837890625,-6.62109375,0,0,1,0.786724805832,,,,,2015_Oct_26_0930,G,facesParametric,21,59.7560920012,
./stim/MorphF3_10_orig.jpg,193,,,,,,,,,0,193,193,193,,,,,,,,,,,,,,,-3.837890625,-6.62109375,1,0,0,1.12147593498,,,,,2015_Oct_26_0930,G,facesParametric,21,59.7560920012,
./stim/MorphM5_03_orig.jpg,194,,,,,,,,,0,194,194,194,,,,,,,,,,,,,,,-3.837890625,-6.62109375,0,0,1,0.920222043991,,,,,2015_Oct_26_0930,G,facesParametric,21,59.7560920012,
./stim/MorphM7_08_orig.jpg,195,,,,,,,,,0,195,195,195,,,,,,,,,,,,,,,-3.837890625,-6.62109375,0,0,1,3.9369790554,,,,,2015_Oct_26_0930,G,facesParametric,21,59.7560920012,
./stim/MorphF2_05_orig.jpg,196,,,,,,,,,0,196,196,196,,,,,,,,,,,,,,,-3.837890625,-6.62109375,0,0,1,0.684678792953,,,,,2015_Oct_26_0930,G,facesParametric,21,59.7560920012,
./stim/MorphM9_06_orig.jpg,197,,,,,,,,,0,197,197,197,,,,,,,,,,,,,,,-3.837890625,-6.62109375,0,0,1,0.903020143509,,,,,2015_Oct_26_0930,G,facesParametric,21,59.7560920012,
./stim/MorphM2_00_orig.jpg,198,,,,,,,,,0,198,198,198,,,,,,,,,,,,,,,-3.837890625,-6.62109375,1,0,0,2.59447598457,,,,,2015_Oct_26_0930,G,facesParametric,21,59.7560920012,
./stim/MorphF8_03_orig.jpg,199,,,,,,,,,0,199,199,199,,,,,,,,,,,,,,,-3.837890625,-6.62109375,0,0,1,0.585341215134,,,,,2015_Oct_26_0930,G,facesParametric,21,59.7560920012,
./stim/MorphM6_02_orig.jpg,200,,,,,,,,,0,200,200,200,,,,,,,,,,,,,,,-3.837890625,-6.62109375,0,0,1,0.68407702446,,,,,2015_Oct_26_0930,G,facesParametric,21,59.7560920012,
./stim/MorphF3_08_orig.jpg,201,,,,,,,,,0,201,201,201,,,,,,,,,,,,,,,-3.837890625,-6.62109375,1,0,0,1.57425713539,,,,,2015_Oct_26_0930,G,facesParametric,21,59.7560920012,
./stim/MorphM1_00_orig.jpg,202,,,,,,,,,0,202,202,202,,,,,,,,,,,,,,,-3.837890625,-6.62109375,1,0,0,1.20554494858,,,,,2015_Oct_26_0930,G,facesParametric,21,59.7560920012,
./stim/MorphM10_09_orig.jpg,203,,,,,,,,,0,203,203,203,,,,,,,,,,,,,,,-3.837890625,-6.62109375,0,0,1,4.59053015709,,,,,2015_Oct_26_0930,G,facesParametric,21,59.7560920012,
./stim/MorphF7_06_orig.jpg,204,,,,,,,,,0,204,204,204,,,,,,,,,,,,,,,-3.837890625,-6.62109375,0,0,1,0.820271015167,,,,,2015_Oct_26_0930,G,facesParametric,21,59.7560920012,
./stim/MorphM6_03_orig.jpg,205,,,,,,,,,0,205,205,205,,,,,,,,,,,,,,,-3.837890625,-6.62109375,1,0,0,1.00427412987,,,,,2015_Oct_26_0930,G,facesParametric,21,59.7560920012,
./stim/MorphM10_02_orig.jpg,206,,,,,,,,,0,206,206,206,,,,,,,,,,,,,,,-3.837890625,-6.62109375,1,0,0,1.15324616432,,,,,2015_Oct_26_0930,G,facesParametric,21,59.7560920012,
./stim/MorphM6_09_orig.jpg,207,,,,,,,,,0,207,207,207,,,,,,,,,,,,,,,-3.837890625,-6.62109375,0,0,1,0.686478853226,,,,,2015_Oct_26_0930,G,facesParametric,21,59.7560920012,
./stim/MorphM3_05_orig.jpg,208,,,,,,,,,0,208,208,208,,,,,,,,,,,,,,,-3.837890625,-6.62109375,0,0,1,0.718230962753,,,,,2015_Oct_26_0930,G,facesParametric,21,59.7560920012,
./stim/MorphM7_06_orig.jpg,209,,,,,,,,,0,209,209,209,,,,,,,,,,,,,,,-3.837890625,-6.62109375,0,0,1,3.0159599781,,,,,2015_Oct_26_0930,G,facesParametric,21,59.7560920012,
./stim/MorphM2_01_orig.jpg,210,,,,,,,,,0,210,210,210,,,,,,,,,,,,,,,-3.837890625,-6.62109375,1,0,0,0.887234926224,,,,,2015_Oct_26_0930,G,facesParametric,21,59.7560920012,
./stim/MorphF8_10_orig.jpg,211,,,,,,,,,0,211,211,211,,,,,,,,,,,,,,,-3.837890625,-6.62109375,0,0,1,0.702023983002,,,,,2015_Oct_26_0930,G,facesParametric,21,59.7560920012,
./stim/MorphM2_05_orig.jpg,212,,,,,,,,,0,212,212,212,,,,,,,,,,,,,,,-3.837890625,-6.62109375,0,0,1,1.62437796593,,,,,2015_Oct_26_0930,G,facesParametric,21,59.7560920012,
./stim/MorphM5_00_orig.jpg,213,,,,,,,,,0,213,213,213,,,,,,,,,,,,,,,-3.837890625,-6.62109375,1,0,0,1.38927507401,,,,,2015_Oct_26_0930,G,facesParametric,21,59.7560920012,
./stim/MorphF2_00_orig.jpg,214,,,,,,,,,0,214,214,214,,,,,,,,,,,,,,,-3.837890625,-6.62109375,0,0,1,1.03872013092,,,,,2015_Oct_26_0930,G,facesParametric,21,59.7560920012,
./stim/MorphM3_07_orig.jpg,215,,,,,,,,,0,215,215,215,,,,,,,,,,,,,,,-3.837890625,-6.62109375,0,0,1,0.684771060944,,,,,2015_Oct_26_0930,G,facesParametric,21,59.7560920012,
./stim/MorphM8_09_orig.jpg,216,,,,,,,,,0,216,216,216,,,,,,,,,,,,,,,-3.837890625,-6.62109375,0,0,1,0.652464866638,,,,,2015_Oct_26_0930,G,facesParametric,21,59.7560920012,
./stim/MorphF1_01_orig.jpg,217,,,,,,,,,0,217,217,217,,,,,,,,,,,,,,,-3.837890625,-6.62109375,1,0,0,0.937269926071,,,,,2015_Oct_26_0930,G,facesParametric,21,59.7560920012,
./stim/MorphF3_07_orig.jpg,218,,,,,,,,,0,218,218,218,,,,,,,,,,,,,,,-3.837890625,-6.62109375,0,0,1,1.07140994072,,,,,2015_Oct_26_0930,G,facesParametric,21,59.7560920012,
./stim/MorphM8_08_orig.jpg,219,,,,,,,,,0,219,219,219,,,,,,,,,,,,,,,-3.837890625,-6.62109375,0,0,1,0.802948951721,,,,,2015_Oct_26_0930,G,facesParametric,21,59.7560920012,
,,,,,,,,,,,,,,,,,,,,,,,,,,,,,,,,,,,,return,1.98659396172,2015_Oct_26_0930,G,facesParametric,21,59.7560920012,
