img,num,basicLoop.thisRepN,basicLoop.thisTrialN,basicLoop.thisN,basicLoop.thisIndex,trials.thisRepN,trials.thisTrialN,trials.thisN,trials.thisIndex,trials2.thisRepN,trials2.thisTrialN,trials2.thisN,trials2.thisIndex,key_resp_2.keys,key_resp_2.rt,basicRating1.response,basicRating1.rt,basicRating2.response,basicRating2.rt,basicRating3.response,basicRating3.rt,basicRating4.response,basicRating4.rt,key_resp_3.keys,key_resp_3.rt,key_resp_4.keys,key_resp_4.rt,mouseResp.x,mouseResp.y,mouseResp.leftButton,mouseResp.midButton,mouseResp.rightButton,mouseResp.time,key_resp_5.keys,key_resp_5.rt,key_resp_7.keys,key_resp_7.rt,date,group,expName,participant,frameRate,
,,,,,,,,,,,,,,return,48.8397619724,,,,,,,,,,,,,,,,,,,,,,,2015_Nov_01_1025,G,facesParametric,22,59.6875524754,
./basicStim/03F_NE_C.jpg,,0,0,0,20,,,,,,,,,,,None,None,None,None,SUP,8.789,None,None,,,,,,,,,,,,,,,2015_Nov_01_1025,G,facesParametric,22,59.6875524754,
./basicStim/28M_NE_C.jpg,,0,1,1,69,,,,,,,,,,,None,None,None,None,SUP,3.591,None,None,,,,,,,,,,,,,,,2015_Nov_01_1025,G,facesParametric,22,59.6875524754,
./basicStim/24M_HA_O.jpg,,0,2,2,59,,,,,,,,,,,HAP,3.594,None,None,None,None,None,None,,,,,,,,,,,,,,,2015_Nov_01_1025,G,facesParametric,22,59.6875524754,
./basicStim/02F_FE_O.jpg,,0,3,3,9,,,,,,,,,,,None,None,FEA,2.59,None,None,None,None,,,,,,,,,,,,,,,2015_Nov_01_1025,G,facesParametric,22,59.6875524754,
./basicStim/24M_SP_O.jpg,,0,4,4,61,,,,,,,,,,,None,None,None,None,SUP,4.766,None,None,,,,,,,,,,,,,,,2015_Nov_01_1025,G,facesParametric,22,59.6875524754,
./basicStim/28M_DI_O.jpg,,0,5,5,64,,,,,,,,,,,None,None,None,None,DIS,2.32,None,None,,,,,,,,,,,,,,,2015_Nov_01_1025,G,facesParametric,22,59.6875524754,
./basicStim/23M_DI_O.jpg,,0,6,6,50,,,,,,,,,,,None,None,None,None,DIS,1.563,None,None,,,,,,,,,,,,,,,2015_Nov_01_1025,G,facesParametric,22,59.6875524754,
./basicStim/09F_SP_O.jpg,,0,7,7,40,,,,,,,,,,,None,None,FEA,3.889,None,None,None,None,,,,,,,,,,,,,,,2015_Nov_01_1025,G,facesParametric,22,59.6875524754,
./basicStim/07F_HA_O.jpg,,0,8,8,31,,,,,,,,,,,HAP,2.672,None,None,None,None,None,None,,,,,,,,,,,,,,,2015_Nov_01_1025,G,facesParametric,22,59.6875524754,
./basicStim/28M_HA_O.jpg,,0,9,9,66,,,,,,,,,,,HAP,1.573,None,None,None,None,None,None,,,,,,,,,,,,,,,2015_Nov_01_1025,G,facesParametric,22,59.6875524754,
./basicStim/24M_FE_O.jpg,,0,10,10,58,,,,,,,,,,,None,None,FEA,2.754,None,None,None,None,,,,,,,,,,,,,,,2015_Nov_01_1025,G,facesParametric,22,59.6875524754,
./basicStim/06F_SA_C.jpg,,0,11,11,25,,,,,,,,,,,None,None,ANG,3.529,None,None,None,None,,,,,,,,,,,,,,,2015_Nov_01_1025,G,facesParametric,22,59.6875524754,
./basicStim/36M_HA_O.jpg,,0,12,12,80,,,,,,,,,,,HAP,3.325,None,None,None,None,None,None,,,,,,,,,,,,,,,2015_Nov_01_1025,G,facesParametric,22,59.6875524754,
./basicStim/03F_SP_O.jpg,,0,13,13,19,,,,,,,,,,,HAP,1.186,None,None,None,None,None,None,,,,,,,,,,,,,,,2015_Nov_01_1025,G,facesParametric,22,59.6875524754,
./basicStim/02F_AN_O.jpg,,0,14,14,7,,,,,,,,,,,None,None,ANG,3.092,None,None,None,None,,,,,,,,,,,,,,,2015_Nov_01_1025,G,facesParametric,22,59.6875524754,
./basicStim/23M_HA_O.jpg,,0,15,15,52,,,,,,,,,,,HAP,2.352,None,None,None,None,None,None,,,,,,,,,,,,,,,2015_Nov_01_1025,G,facesParametric,22,59.6875524754,
./basicStim/23M_FE_O.jpg,,0,16,16,51,,,,,,,,,,,None,None,None,None,DIS,4.712,None,None,,,,,,,,,,,,,,,2015_Nov_01_1025,G,facesParametric,22,59.6875524754,
./basicStim/09F_NE_C.jpg,,0,17,17,41,,,,,,,,,,,None,None,None,None,None,None,NTR,4.969,,,,,,,,,,,,,,,2015_Nov_01_1025,G,facesParametric,22,59.6875524754,
./basicStim/01F_HA_O.jpg,,0,18,18,3,,,,,,,,,,,HAP,5.574,None,None,None,None,None,None,,,,,,,,,,,,,,,2015_Nov_01_1025,G,facesParametric,22,59.6875524754,
./basicStim/03F_FE_O.jpg,,0,19,19,16,,,,,,,,,,,None,None,None,None,SUP,4.346,None,None,,,,,,,,,,,,,,,2015_Nov_01_1025,G,facesParametric,22,59.6875524754,
./basicStim/06F_SP_O.jpg,,0,20,20,26,,,,,,,,,,,HAP,5.569,None,None,None,None,None,None,,,,,,,,,,,,,,,2015_Nov_01_1025,G,facesParametric,22,59.6875524754,
./basicStim/34M_FE_O.jpg,,0,21,21,72,,,,,,,,,,,None,None,None,None,SUP,4.008,None,None,,,,,,,,,,,,,,,2015_Nov_01_1025,G,facesParametric,22,59.6875524754,
./basicStim/36M_NE_C.jpg,,0,22,22,83,,,,,,,,,,,None,None,None,None,None,None,NTR,2.852,,,,,,,,,,,,,,,2015_Nov_01_1025,G,facesParametric,22,59.6875524754,
./basicStim/34M_SA_C.jpg,,0,23,23,74,,,,,,,,,,,SAD,3.45,None,None,None,None,None,None,,,,,,,,,,,,,,,2015_Nov_01_1025,G,facesParametric,22,59.6875524754,
./basicStim/23M_NE_C.jpg,,0,24,24,55,,,,,,,,,,,None,None,None,None,None,None,NTR,1.97,,,,,,,,,,,,,,,2015_Nov_01_1025,G,facesParametric,22,59.6875524754,
./basicStim/21M_SA_C.jpg,,0,25,25,46,,,,,,,,,,,None,None,ANG,3.793,None,None,None,None,,,,,,,,,,,,,,,2015_Nov_01_1025,G,facesParametric,22,59.6875524754,
./basicStim/01F_NE_C.jpg,,0,26,26,6,,,,,,,,,,,None,None,None,None,None,None,NTR,2.316,,,,,,,,,,,,,,,2015_Nov_01_1025,G,facesParametric,22,59.6875524754,
./basicStim/36M_AN_O.jpg,,0,27,27,77,,,,,,,,,,,None,None,FEA,4.887,None,None,None,None,,,,,,,,,,,,,,,2015_Nov_01_1025,G,facesParametric,22,59.6875524754,
./basicStim/24M_DI_O.jpg,,0,28,28,57,,,,,,,,,,,None,None,None,None,DIS,2.632,None,None,,,,,,,,,,,,,,,2015_Nov_01_1025,G,facesParametric,22,59.6875524754,
./basicStim/02F_SA_C.jpg,,0,29,29,11,,,,,,,,,,,SAD,2.072,None,None,None,None,None,None,,,,,,,,,,,,,,,2015_Nov_01_1025,G,facesParametric,22,59.6875524754,
./basicStim/09F_DI_O.jpg,,0,30,30,36,,,,,,,,,,,None,None,None,None,DIS,3.336,None,None,,,,,,,,,,,,,,,2015_Nov_01_1025,G,facesParametric,22,59.6875524754,
./basicStim/36M_SP_O.jpg,,0,31,31,82,,,,,,,,,,,None,None,None,None,SUP,3.122,None,None,,,,,,,,,,,,,,,2015_Nov_01_1025,G,facesParametric,22,59.6875524754,
./basicStim/24M_AN_O.jpg,,0,32,32,56,,,,,,,,,,,None,None,None,None,SUP,1.5,None,None,,,,,,,,,,,,,,,2015_Nov_01_1025,G,facesParametric,22,59.6875524754,
./basicStim/01F_SP_O.jpg,,0,33,33,5,,,,,,,,,,,None,None,None,None,SUP,3.053,None,None,,,,,,,,,,,,,,,2015_Nov_01_1025,G,facesParametric,22,59.6875524754,
./basicStim/24M_SA_C.jpg,,0,34,34,60,,,,,,,,,,,SAD,3.24,None,None,None,None,None,None,,,,,,,,,,,,,,,2015_Nov_01_1025,G,facesParametric,22,59.6875524754,
./basicStim/36M_SA_C.jpg,,0,35,35,81,,,,,,,,,,,None,None,ANG,4.764,None,None,None,None,,,,,,,,,,,,,,,2015_Nov_01_1025,G,facesParametric,22,59.6875524754,
./basicStim/34M_NE_C.jpg,,0,36,36,76,,,,,,,,,,,None,None,None,None,None,None,NTR,2.584,,,,,,,,,,,,,,,2015_Nov_01_1025,G,facesParametric,22,59.6875524754,
./basicStim/06F_AN_O.jpg,,0,37,37,21,,,,,,,,,,,None,None,None,None,DIS,4.518,None,None,,,,,,,,,,,,,,,2015_Nov_01_1025,G,facesParametric,22,59.6875524754,
./basicStim/02F_NE_C.jpg,,0,38,38,13,,,,,,,,,,,None,None,None,None,None,None,NTR,2.521,,,,,,,,,,,,,,,2015_Nov_01_1025,G,facesParametric,22,59.6875524754,
./basicStim/23M_SA_C.jpg,,0,39,39,53,,,,,,,,,,,SAD,2.61,None,None,None,None,None,None,,,,,,,,,,,,,,,2015_Nov_01_1025,G,facesParametric,22,59.6875524754,
./basicStim/21M_DI_O.jpg,,0,40,40,43,,,,,,,,,,,SAD,0.745,None,None,None,None,None,None,,,,,,,,,,,,,,,2015_Nov_01_1025,G,facesParametric,22,59.6875524754,
./basicStim/01F_FE_O.jpg,,0,41,41,2,,,,,,,,,,,None,None,None,None,SUP,4.043,None,None,,,,,,,,,,,,,,,2015_Nov_01_1025,G,facesParametric,22,59.6875524754,
./basicStim/07F_NE_C.jpg,,0,42,42,34,,,,,,,,,,,None,None,None,None,None,None,NTR,2.227,,,,,,,,,,,,,,,2015_Nov_01_1025,G,facesParametric,22,59.6875524754,
./basicStim/09F_AN_O.jpg,,0,43,43,35,,,,,,,,,,,None,None,ANG,5.433,None,None,None,None,,,,,,,,,,,,,,,2015_Nov_01_1025,G,facesParametric,22,59.6875524754,
./basicStim/07F_DI_O.jpg,,0,44,44,29,,,,,,,,,,,None,None,None,None,DIS,3.121,None,None,,,,,,,,,,,,,,,2015_Nov_01_1025,G,facesParametric,22,59.6875524754,
./basicStim/01F_DI_O.jpg,,0,45,45,1,,,,,,,,,,,None,None,None,None,DIS,1.429,None,None,,,,,,,,,,,,,,,2015_Nov_01_1025,G,facesParametric,22,59.6875524754,
./basicStim/28M_SA_C.jpg,,0,46,46,67,,,,,,,,,,,None,None,None,None,SUP,3.756,None,None,,,,,,,,,,,,,,,2015_Nov_01_1025,G,facesParametric,22,59.6875524754,
./basicStim/23M_SP_O.jpg,,0,47,47,54,,,,,,,,,,,None,None,None,None,SUP,5.363,None,None,,,,,,,,,,,,,,,2015_Nov_01_1025,G,facesParametric,22,59.6875524754,
./basicStim/21M_FE_O.jpg,,0,48,48,44,,,,,,,,,,,None,None,FEA,2.315,None,None,None,None,,,,,,,,,,,,,,,2015_Nov_01_1025,G,facesParametric,22,59.6875524754,
./basicStim/02F_HA_O.jpg,,0,49,49,10,,,,,,,,,,,None,None,None,None,None,None,NTR,8.496,,,,,,,,,,,,,,,2015_Nov_01_1025,G,facesParametric,22,59.6875524754,
./basicStim/21M_AN_O.jpg,,0,50,50,42,,,,,,,,,,,None,None,ANG,5.991,None,None,None,None,,,,,,,,,,,,,,,2015_Nov_01_1025,G,facesParametric,22,59.6875524754,
./basicStim/07F_SP_O.jpg,,0,51,51,33,,,,,,,,,,,None,None,None,None,SUP,2.823,None,None,,,,,,,,,,,,,,,2015_Nov_01_1025,G,facesParametric,22,59.6875524754,
./basicStim/02F_SP_O.jpg,,0,52,52,12,,,,,,,,,,,None,None,None,None,SUP,1.582,None,None,,,,,,,,,,,,,,,2015_Nov_01_1025,G,facesParametric,22,59.6875524754,
./basicStim/07F_FE_O.jpg,,0,53,53,30,,,,,,,,,,,None,None,None,None,DIS,3.641,None,None,,,,,,,,,,,,,,,2015_Nov_01_1025,G,facesParametric,22,59.6875524754,
./basicStim/09F_FE_O.jpg,,0,54,54,37,,,,,,,,,,,None,None,None,None,DIS,2.28,None,None,,,,,,,,,,,,,,,2015_Nov_01_1025,G,facesParametric,22,59.6875524754,
./basicStim/06F_DI_O.jpg,,0,55,55,22,,,,,,,,,,,None,None,None,None,DIS,0.787,None,None,,,,,,,,,,,,,,,2015_Nov_01_1025,G,facesParametric,22,59.6875524754,
./basicStim/28M_FE_O.jpg,,0,56,56,65,,,,,,,,,,,None,None,None,None,SUP,2.653,None,None,,,,,,,,,,,,,,,2015_Nov_01_1025,G,facesParametric,22,59.6875524754,
./basicStim/01F_AN_O.jpg,,0,57,57,0,,,,,,,,,,,None,None,ANG,8.216,None,None,None,None,,,,,,,,,,,,,,,2015_Nov_01_1025,G,facesParametric,22,59.6875524754,
./basicStim/36M_FE_O.jpg,,0,58,58,79,,,,,,,,,,,None,None,None,None,SUP,3.754,None,None,,,,,,,,,,,,,,,2015_Nov_01_1025,G,facesParametric,22,59.6875524754,
./basicStim/23M_AN_O.jpg,,0,59,59,49,,,,,,,,,,,None,None,None,None,SUP,2.983,None,None,,,,,,,,,,,,,,,2015_Nov_01_1025,G,facesParametric,22,59.6875524754,
./basicStim/21M_NE_C.jpg,,0,60,60,48,,,,,,,,,,,None,None,None,None,None,None,NTR,2.544,,,,,,,,,,,,,,,2015_Nov_01_1025,G,facesParametric,22,59.6875524754,
./basicStim/09F_SA_C.jpg,,0,61,61,39,,,,,,,,,,,None,None,ANG,3.084,None,None,None,None,,,,,,,,,,,,,,,2015_Nov_01_1025,G,facesParametric,22,59.6875524754,
./basicStim/03F_HA_O.jpg,,0,62,62,17,,,,,,,,,,,HAP,2.542,None,None,None,None,None,None,,,,,,,,,,,,,,,2015_Nov_01_1025,G,facesParametric,22,59.6875524754,
./basicStim/21M_SP_O.jpg,,0,63,63,47,,,,,,,,,,,HAP,1.047,None,None,None,None,None,None,,,,,,,,,,,,,,,2015_Nov_01_1025,G,facesParametric,22,59.6875524754,
./basicStim/28M_AN_O.jpg,,0,64,64,63,,,,,,,,,,,None,None,ANG,1.934,None,None,None,None,,,,,,,,,,,,,,,2015_Nov_01_1025,G,facesParametric,22,59.6875524754,
./basicStim/07F_SA_C.jpg,,0,65,65,32,,,,,,,,,,,SAD,4.853,None,None,None,None,None,None,,,,,,,,,,,,,,,2015_Nov_01_1025,G,facesParametric,22,59.6875524754,
./basicStim/36M_DI_O.jpg,,0,66,66,78,,,,,,,,,,,SAD,1.327,None,None,None,None,None,None,,,,,,,,,,,,,,,2015_Nov_01_1025,G,facesParametric,22,59.6875524754,
./basicStim/02F_DI_O.jpg,,0,67,67,8,,,,,,,,,,,None,None,ANG,3.177,None,None,None,None,,,,,,,,,,,,,,,2015_Nov_01_1025,G,facesParametric,22,59.6875524754,
./basicStim/03F_DI_O.jpg,,0,68,68,15,,,,,,,,,,,None,None,None,None,DIS,5.278,None,None,,,,,,,,,,,,,,,2015_Nov_01_1025,G,facesParametric,22,59.6875524754,
./basicStim/06F_NE_C.jpg,,0,69,69,27,,,,,,,,,,,None,None,None,None,None,None,NTR,2.499,,,,,,,,,,,,,,,2015_Nov_01_1025,G,facesParametric,22,59.6875524754,
./basicStim/34M_SP_O.jpg,,0,70,70,75,,,,,,,,,,,None,None,None,None,SUP,4.65,None,None,,,,,,,,,,,,,,,2015_Nov_01_1025,G,facesParametric,22,59.6875524754,
./basicStim/28M_SP_O.jpg,,0,71,71,68,,,,,,,,,,,None,None,None,None,SUP,1.467,None,None,,,,,,,,,,,,,,,2015_Nov_01_1025,G,facesParametric,22,59.6875524754,
./basicStim/06F_FE_O.jpg,,0,72,72,23,,,,,,,,,,,None,None,None,None,SUP,1.074,None,None,,,,,,,,,,,,,,,2015_Nov_01_1025,G,facesParametric,22,59.6875524754,
./basicStim/01F_SA_C.jpg,,0,73,73,4,,,,,,,,,,,SAD,3.312,None,None,None,None,None,None,,,,,,,,,,,,,,,2015_Nov_01_1025,G,facesParametric,22,59.6875524754,
./basicStim/03F_AN_O.jpg,,0,74,74,14,,,,,,,,,,,None,None,ANG,2.902,None,None,None,None,,,,,,,,,,,,,,,2015_Nov_01_1025,G,facesParametric,22,59.6875524754,
./basicStim/06F_HA_O.jpg,,0,75,75,24,,,,,,,,,,,HAP,2.333,None,None,None,None,None,None,,,,,,,,,,,,,,,2015_Nov_01_1025,G,facesParametric,22,59.6875524754,
./basicStim/34M_DI_O.jpg,,0,76,76,71,,,,,,,,,,,None,None,ANG,2.805,None,None,None,None,,,,,,,,,,,,,,,2015_Nov_01_1025,G,facesParametric,22,59.6875524754,
./basicStim/09F_HA_O.jpg,,0,77,77,38,,,,,,,,,,,HAP,2.837,None,None,None,None,None,None,,,,,,,,,,,,,,,2015_Nov_01_1025,G,facesParametric,22,59.6875524754,
./basicStim/21M_HA_O.jpg,,0,78,78,45,,,,,,,,,,,HAP,1.146,None,None,None,None,None,None,,,,,,,,,,,,,,,2015_Nov_01_1025,G,facesParametric,22,59.6875524754,
./basicStim/03F_SA_C.jpg,,0,79,79,18,,,,,,,,,,,SAD,2.101,None,None,None,None,None,None,,,,,,,,,,,,,,,2015_Nov_01_1025,G,facesParametric,22,59.6875524754,
./basicStim/34M_HA_O.jpg,,0,80,80,73,,,,,,,,,,,HAP,2.017,None,None,None,None,None,None,,,,,,,,,,,,,,,2015_Nov_01_1025,G,facesParametric,22,59.6875524754,
./basicStim/07F_AN_O.jpg,,0,81,81,28,,,,,,,,,,,None,None,ANG,1.965,None,None,None,None,,,,,,,,,,,,,,,2015_Nov_01_1025,G,facesParametric,22,59.6875524754,
./basicStim/24M_NE_C.jpg,,0,82,82,62,,,,,,,,,,,None,None,None,None,None,None,NTR,1.86,,,,,,,,,,,,,,,2015_Nov_01_1025,G,facesParametric,22,59.6875524754,
./basicStim/34M_AN_O.jpg,,0,83,83,70,,,,,,,,,,,None,None,ANG,2.635,None,None,None,None,,,,,,,,,,,,,,,2015_Nov_01_1025,G,facesParametric,22,59.6875524754,
,,,,,,,,,,,,,,,,,,,,,,,,return,40.1056790352,,,,,,,,,,,,,2015_Nov_01_1025,G,facesParametric,22,59.6875524754,
,,,,,,,,,,,,,,return,0.786844015121,,,,,,,,,,,,,,,,,,,,,,,2015_Nov_01_1025,G,facesParametric,22,59.6875524754,
,,,,,,,,,,,,,,,,,,,,,,,,return,12.4863128662,,,,,,,,,,,,,2015_Nov_01_1025,G,facesParametric,22,59.6875524754,
,,,,,,,,,,,,,,,,,,,,,,,,,,return,3.58630394936,,,,,,,,,,,2015_Nov_01_1025,G,facesParametric,22,59.6875524754,
./stim/MorphM4_10_orig.jpg,0,,,,,0,0,0,0,,,,,,,,,,,,,,,,,,,4.306640625,-8.37890625,1,0,0,4.63715195656,,,,,2015_Nov_01_1025,G,facesParametric,22,59.6875524754,
./stim/MorphM1_10_orig.jpg,1,,,,,0,1,1,1,,,,,,,,,,,,,,,,,,,4.306640625,-8.37890625,1,0,0,3.29708003998,,,,,2015_Nov_01_1025,G,facesParametric,22,59.6875524754,
./stim/MorphM4_07_orig.jpg,2,,,,,0,2,2,2,,,,,,,,,,,,,,,,,,,4.306640625,-8.37890625,1,0,0,1.43999791145,,,,,2015_Nov_01_1025,G,facesParametric,22,59.6875524754,
./stim/MorphM1_01_orig.jpg,3,,,,,0,3,3,3,,,,,,,,,,,,,,,,,,,4.306640625,-8.37890625,0,0,1,1.65791893005,,,,,2015_Nov_01_1025,G,facesParametric,22,59.6875524754,
./stim/MorphF6_09_orig.jpg,4,,,,,0,4,4,4,,,,,,,,,,,,,,,,,,,4.306640625,-8.37890625,1,0,0,1.35605883598,,,,,2015_Nov_01_1025,G,facesParametric,22,59.6875524754,
./stim/MorphF10_05_orig.jpg,5,,,,,0,5,5,5,,,,,,,,,,,,,,,,,,,4.306640625,-8.37890625,1,0,0,4.48943209648,,,,,2015_Nov_01_1025,G,facesParametric,22,59.6875524754,
./stim/MorphF3_03_orig.jpg,6,,,,,0,6,6,6,,,,,,,,,,,,,,,,,,,4.306640625,-8.37890625,1,0,0,1.97631192207,,,,,2015_Nov_01_1025,G,facesParametric,22,59.6875524754,
./stim/MorphF2_07_orig.jpg,7,,,,,0,7,7,7,,,,,,,,,,,,,,,,,,,4.306640625,-8.37890625,1,0,0,1.15442800522,,,,,2015_Nov_01_1025,G,facesParametric,22,59.6875524754,
./stim/MorphF5_08_orig.jpg,8,,,,,0,8,8,8,,,,,,,,,,,,,,,,,,,4.306640625,-8.37890625,1,0,0,0.937133073807,,,,,2015_Nov_01_1025,G,facesParametric,22,59.6875524754,
./stim/MorphM10_08_orig.jpg,9,,,,,0,9,9,9,,,,,,,,,,,,,,,,,,,4.306640625,-8.37890625,1,0,0,0.902843952179,,,,,2015_Nov_01_1025,G,facesParametric,22,59.6875524754,
./stim/MorphM1_06_orig.jpg,10,,,,,0,10,10,10,,,,,,,,,,,,,,,,,,,4.306640625,-8.37890625,1,0,0,2.54602694511,,,,,2015_Nov_01_1025,G,facesParametric,22,59.6875524754,
./stim/MorphF7_00_orig.jpg,11,,,,,0,11,11,11,,,,,,,,,,,,,,,,,,,4.306640625,-8.37890625,1,0,0,2.36001706123,,,,,2015_Nov_01_1025,G,facesParametric,22,59.6875524754,
./stim/MorphF4_08_orig.jpg,12,,,,,0,12,12,12,,,,,,,,,,,,,,,,,,,4.306640625,-8.37890625,1,0,0,1.05352807045,,,,,2015_Nov_01_1025,G,facesParametric,22,59.6875524754,
./stim/MorphM8_08_orig.jpg,13,,,,,0,13,13,13,,,,,,,,,,,,,,,,,,,4.306640625,-8.37890625,1,0,0,0.802721977234,,,,,2015_Nov_01_1025,G,facesParametric,22,59.6875524754,
./stim/MorphM9_04_orig.jpg,14,,,,,0,14,14,14,,,,,,,,,,,,,,,,,,,4.306640625,-8.37890625,0,0,1,1.80793213844,,,,,2015_Nov_01_1025,G,facesParametric,22,59.6875524754,
./stim/MorphM7_01_orig.jpg,15,,,,,0,15,15,15,,,,,,,,,,,,,,,,,,,4.306640625,-8.37890625,0,0,1,1.77558898926,,,,,2015_Nov_01_1025,G,facesParametric,22,59.6875524754,
./stim/MorphM10_04_orig.jpg,16,,,,,0,16,16,16,,,,,,,,,,,,,,,,,,,4.306640625,-8.37890625,1,0,0,1.32228708267,,,,,2015_Nov_01_1025,G,facesParametric,22,59.6875524754,
./stim/MorphM6_07_orig.jpg,17,,,,,0,17,17,17,,,,,,,,,,,,,,,,,,,4.306640625,-8.37890625,1,0,0,1.25532484055,,,,,2015_Nov_01_1025,G,facesParametric,22,59.6875524754,
./stim/MorphM5_07_orig.jpg,18,,,,,0,18,18,18,,,,,,,,,,,,,,,,,,,4.306640625,-8.37890625,1,0,0,1.72594404221,,,,,2015_Nov_01_1025,G,facesParametric,22,59.6875524754,
./stim/MorphF2_04_orig.jpg,19,,,,,0,19,19,19,,,,,,,,,,,,,,,,,,,4.306640625,-8.37890625,1,0,0,1.338586092,,,,,2015_Nov_01_1025,G,facesParametric,22,59.6875524754,
./stim/MorphF9_06_orig.jpg,20,,,,,0,20,20,20,,,,,,,,,,,,,,,,,,,4.306640625,-8.37890625,1,0,0,2.00987505913,,,,,2015_Nov_01_1025,G,facesParametric,22,59.6875524754,
./stim/MorphM9_05_orig.jpg,21,,,,,0,21,21,21,,,,,,,,,,,,,,,,,,,4.306640625,-8.37890625,0,0,1,1.85871887207,,,,,2015_Nov_01_1025,G,facesParametric,22,59.6875524754,
./stim/MorphM10_00_orig.jpg,22,,,,,0,22,22,22,,,,,,,,,,,,,,,,,,,4.306640625,-8.37890625,0,0,1,1.03777098656,,,,,2015_Nov_01_1025,G,facesParametric,22,59.6875524754,
./stim/MorphM7_00_orig.jpg,23,,,,,0,23,23,23,,,,,,,,,,,,,,,,,,,4.306640625,-8.37890625,0,0,1,1.49070692062,,,,,2015_Nov_01_1025,G,facesParametric,22,59.6875524754,
./stim/MorphM9_03_orig.jpg,24,,,,,0,24,24,24,,,,,,,,,,,,,,,,,,,4.306640625,-8.37890625,0,0,1,1.30571103096,,,,,2015_Nov_01_1025,G,facesParametric,22,59.6875524754,
./stim/MorphF3_10_orig.jpg,25,,,,,0,25,25,25,,,,,,,,,,,,,,,,,,,4.306640625,-8.37890625,1,0,0,1.3556060791,,,,,2015_Nov_01_1025,G,facesParametric,22,59.6875524754,
./stim/MorphF4_02_orig.jpg,26,,,,,0,26,26,26,,,,,,,,,,,,,,,,,,,4.306640625,-8.37890625,0,0,1,1.10553812981,,,,,2015_Nov_01_1025,G,facesParametric,22,59.6875524754,
./stim/MorphM4_00_orig.jpg,27,,,,,0,27,27,27,,,,,,,,,,,,,,,,,,,4.306640625,-8.37890625,0,0,1,1.82291412354,,,,,2015_Nov_01_1025,G,facesParametric,22,59.6875524754,
./stim/MorphF4_10_orig.jpg,28,,,,,0,28,28,28,,,,,,,,,,,,,,,,,,,4.306640625,-8.37890625,1,0,0,1.00442910194,,,,,2015_Nov_01_1025,G,facesParametric,22,59.6875524754,
./stim/MorphF3_02_orig.jpg,29,,,,,0,29,29,29,,,,,,,,,,,,,,,,,,,4.306640625,-8.37890625,0,0,1,2.64499807358,,,,,2015_Nov_01_1025,G,facesParametric,22,59.6875524754,
./stim/MorphF8_05_orig.jpg,30,,,,,0,30,30,30,,,,,,,,,,,,,,,,,,,4.306640625,-8.37890625,1,0,0,1.27078199387,,,,,2015_Nov_01_1025,G,facesParametric,22,59.6875524754,
./stim/MorphF10_02_orig.jpg,31,,,,,0,31,31,31,,,,,,,,,,,,,,,,,,,4.306640625,-8.37890625,1,0,0,0.836425065994,,,,,2015_Nov_01_1025,G,facesParametric,22,59.6875524754,
./stim/MorphF7_08_orig.jpg,32,,,,,0,32,32,32,,,,,,,,,,,,,,,,,,,4.306640625,-8.37890625,1,0,0,0.668802022934,,,,,2015_Nov_01_1025,G,facesParametric,22,59.6875524754,
./stim/MorphM8_03_orig.jpg,33,,,,,0,33,33,33,,,,,,,,,,,,,,,,,,,4.306640625,-8.37890625,1,0,0,0.718943119049,,,,,2015_Nov_01_1025,G,facesParametric,22,59.6875524754,
./stim/MorphM7_06_orig.jpg,34,,,,,0,34,34,34,,,,,,,,,,,,,,,,,,,4.306640625,-8.37890625,1,0,0,0.668891906738,,,,,2015_Nov_01_1025,G,facesParametric,22,59.6875524754,
./stim/MorphM3_06_orig.jpg,35,,,,,0,35,35,35,,,,,,,,,,,,,,,,,,,4.306640625,-8.37890625,1,0,0,0.736371040344,,,,,2015_Nov_01_1025,G,facesParametric,22,59.6875524754,
./stim/MorphF6_10_orig.jpg,36,,,,,0,36,36,36,,,,,,,,,,,,,,,,,,,4.306640625,-8.37890625,1,0,0,0.736342906952,,,,,2015_Nov_01_1025,G,facesParametric,22,59.6875524754,
./stim/MorphM6_10_orig.jpg,37,,,,,0,37,37,37,,,,,,,,,,,,,,,,,,,4.306640625,-8.37890625,1,0,0,0.834076881409,,,,,2015_Nov_01_1025,G,facesParametric,22,59.6875524754,
./stim/MorphM1_07_orig.jpg,38,,,,,0,38,38,38,,,,,,,,,,,,,,,,,,,4.306640625,-8.37890625,1,0,0,1.7255859375,,,,,2015_Nov_01_1025,G,facesParametric,22,59.6875524754,
./stim/MorphM8_05_orig.jpg,39,,,,,0,39,39,39,,,,,,,,,,,,,,,,,,,4.306640625,-8.37890625,1,0,0,0.733649969101,,,,,2015_Nov_01_1025,G,facesParametric,22,59.6875524754,
./stim/MorphF3_05_orig.jpg,40,,,,,0,40,40,40,,,,,,,,,,,,,,,,,,,4.306640625,-8.37890625,1,0,0,2.8981449604,,,,,2015_Nov_01_1025,G,facesParametric,22,59.6875524754,
./stim/MorphF9_00_orig.jpg,41,,,,,0,41,41,41,,,,,,,,,,,,,,,,,,,4.306640625,-8.37890625,1,0,0,0.786549091339,,,,,2015_Nov_01_1025,G,facesParametric,22,59.6875524754,
./stim/MorphF1_03_orig.jpg,42,,,,,0,42,42,42,,,,,,,,,,,,,,,,,,,4.306640625,-8.37890625,0,0,1,2.68024492264,,,,,2015_Nov_01_1025,G,facesParametric,22,59.6875524754,
./stim/MorphM8_00_orig.jpg,43,,,,,0,43,43,43,,,,,,,,,,,,,,,,,,,4.306640625,-8.37890625,1,0,0,1.05508208275,,,,,2015_Nov_01_1025,G,facesParametric,22,59.6875524754,
./stim/MorphF10_03_orig.jpg,44,,,,,0,44,44,44,,,,,,,,,,,,,,,,,,,4.306640625,-8.37890625,1,0,0,0.752969026566,,,,,2015_Nov_01_1025,G,facesParametric,22,59.6875524754,
./stim/MorphM7_08_orig.jpg,45,,,,,0,45,45,45,,,,,,,,,,,,,,,,,,,4.306640625,-8.37890625,1,0,0,0.700558185577,,,,,2015_Nov_01_1025,G,facesParametric,22,59.6875524754,
./stim/MorphM6_00_orig.jpg,46,,,,,0,46,46,46,,,,,,,,,,,,,,,,,,,4.306640625,-8.37890625,0,0,1,1.63888788223,,,,,2015_Nov_01_1025,G,facesParametric,22,59.6875524754,
./stim/MorphF2_01_orig.jpg,47,,,,,0,47,47,47,,,,,,,,,,,,,,,,,,,4.306640625,-8.37890625,0,0,1,3.1498260498,,,,,2015_Nov_01_1025,G,facesParametric,22,59.6875524754,
./stim/MorphF9_04_orig.jpg,48,,,,,0,48,48,48,,,,,,,,,,,,,,,,,,,4.306640625,-8.37890625,0,0,1,1.10475897789,,,,,2015_Nov_01_1025,G,facesParametric,22,59.6875524754,
./stim/MorphM4_05_orig.jpg,49,,,,,0,49,49,49,,,,,,,,,,,,,,,,,,,4.306640625,-8.37890625,1,0,0,1.55610799789,,,,,2015_Nov_01_1025,G,facesParametric,22,59.6875524754,
./stim/MorphM3_10_orig.jpg,50,,,,,0,50,50,50,,,,,,,,,,,,,,,,,,,4.306640625,-8.37890625,1,0,0,0.735935926437,,,,,2015_Nov_01_1025,G,facesParametric,22,59.6875524754,
./stim/MorphM10_07_orig.jpg,51,,,,,0,51,51,51,,,,,,,,,,,,,,,,,,,4.306640625,-8.37890625,1,0,0,0.634851932526,,,,,2015_Nov_01_1025,G,facesParametric,22,59.6875524754,
./stim/MorphM2_01_orig.jpg,52,,,,,0,52,52,52,,,,,,,,,,,,,,,,,,,4.306640625,-8.37890625,0,0,1,2.17762899399,,,,,2015_Nov_01_1025,G,facesParametric,22,59.6875524754,
./stim/MorphM9_02_orig.jpg,53,,,,,0,53,53,53,,,,,,,,,,,,,,,,,,,4.306640625,-8.37890625,0,0,1,1.72412991524,,,,,2015_Nov_01_1025,G,facesParametric,22,59.6875524754,
./stim/MorphF4_06_orig.jpg,54,,,,,0,54,54,54,,,,,,,,,,,,,,,,,,,4.306640625,-8.37890625,0,0,1,2.32832598686,,,,,2015_Nov_01_1025,G,facesParametric,22,59.6875524754,
./stim/MorphM6_04_orig.jpg,55,,,,,0,55,55,55,,,,,,,,,,,,,,,,,,,4.306640625,-8.37890625,0,0,1,1.85877895355,,,,,2015_Nov_01_1025,G,facesParametric,22,59.6875524754,
./stim/MorphM5_10_orig.jpg,56,,,,,0,56,56,56,,,,,,,,,,,,,,,,,,,4.306640625,-8.37890625,1,0,0,1.18762898445,,,,,2015_Nov_01_1025,G,facesParametric,22,59.6875524754,
./stim/MorphF6_04_orig.jpg,57,,,,,0,57,57,57,,,,,,,,,,,,,,,,,,,4.306640625,-8.37890625,1,0,0,0.87016916275,,,,,2015_Nov_01_1025,G,facesParametric,22,59.6875524754,
./stim/MorphF3_06_orig.jpg,58,,,,,0,58,58,58,,,,,,,,,,,,,,,,,,,4.306640625,-8.37890625,1,0,0,0.78638792038,,,,,2015_Nov_01_1025,G,facesParametric,22,59.6875524754,
./stim/MorphF8_08_orig.jpg,59,,,,,0,59,59,59,,,,,,,,,,,,,,,,,,,4.306640625,-8.37890625,1,0,0,0.903569936752,,,,,2015_Nov_01_1025,G,facesParametric,22,59.6875524754,
./stim/MorphM7_10_orig.jpg,60,,,,,0,60,60,60,,,,,,,,,,,,,,,,,,,4.306640625,-8.37890625,1,0,0,0.635849952698,,,,,2015_Nov_01_1025,G,facesParametric,22,59.6875524754,
./stim/MorphM9_10_orig.jpg,61,,,,,0,61,61,61,,,,,,,,,,,,,,,,,,,4.306640625,-8.37890625,1,0,0,0.669270038605,,,,,2015_Nov_01_1025,G,facesParametric,22,59.6875524754,
./stim/MorphF7_01_orig.jpg,62,,,,,0,62,62,62,,,,,,,,,,,,,,,,,,,4.306640625,-8.37890625,1,0,0,0.70307803154,,,,,2015_Nov_01_1025,G,facesParametric,22,59.6875524754,
./stim/MorphF2_02_orig.jpg,63,,,,,0,63,63,63,,,,,,,,,,,,,,,,,,,4.306640625,-8.37890625,1,0,0,3.21649503708,,,,,2015_Nov_01_1025,G,facesParametric,22,59.6875524754,
./stim/MorphM4_04_orig.jpg,64,,,,,0,64,64,64,,,,,,,,,,,,,,,,,,,4.306640625,-8.37890625,1,0,0,1.69147396088,,,,,2015_Nov_01_1025,G,facesParametric,22,59.6875524754,
./stim/MorphM5_02_orig.jpg,65,,,,,0,65,65,65,,,,,,,,,,,,,,,,,,,4.306640625,-8.37890625,1,0,0,0.80243897438,,,,,2015_Nov_01_1025,G,facesParametric,22,59.6875524754,
./stim/MorphF5_02_orig.jpg,66,,,,,0,66,66,66,,,,,,,,,,,,,,,,,,,4.306640625,-8.37890625,0,0,1,2.19209003448,,,,,2015_Nov_01_1025,G,facesParametric,22,59.6875524754,
./stim/MorphM10_01_orig.jpg,67,,,,,0,67,67,67,,,,,,,,,,,,,,,,,,,4.306640625,-8.37890625,0,0,1,2.36089015007,,,,,2015_Nov_01_1025,G,facesParametric,22,59.6875524754,
./stim/MorphF1_05_orig.jpg,68,,,,,0,68,68,68,,,,,,,,,,,,,,,,,,,4.306640625,-8.37890625,0,0,1,2.26171112061,,,,,2015_Nov_01_1025,G,facesParametric,22,59.6875524754,
./stim/MorphF2_03_orig.jpg,69,,,,,0,69,69,69,,,,,,,,,,,,,,,,,,,4.306640625,-8.37890625,1,0,0,2.57947087288,,,,,2015_Nov_01_1025,G,facesParametric,22,59.6875524754,
./stim/MorphF3_00_orig.jpg,70,,,,,0,70,70,70,,,,,,,,,,,,,,,,,,,4.306640625,-8.37890625,0,0,1,1.25673794746,,,,,2015_Nov_01_1025,G,facesParametric,22,59.6875524754,
./stim/MorphM10_09_orig.jpg,71,,,,,0,71,71,71,,,,,,,,,,,,,,,,,,,4.306640625,-8.37890625,1,0,0,0.817132949829,,,,,2015_Nov_01_1025,G,facesParametric,22,59.6875524754,
./stim/MorphM6_09_orig.jpg,72,,,,,0,72,72,72,,,,,,,,,,,,,,,,,,,4.306640625,-8.37890625,1,0,0,0.834737062454,,,,,2015_Nov_01_1025,G,facesParametric,22,59.6875524754,
./stim/MorphM10_03_orig.jpg,73,,,,,0,73,73,73,,,,,,,,,,,,,,,,,,,4.306640625,-8.37890625,1,0,0,1.00418591499,,,,,2015_Nov_01_1025,G,facesParametric,22,59.6875524754,
./stim/MorphF4_07_orig.jpg,74,,,,,0,74,74,74,,,,,,,,,,,,,,,,,,,4.306640625,-8.37890625,1,0,0,0.886177062988,,,,,2015_Nov_01_1025,G,facesParametric,22,59.6875524754,
./stim/MorphM4_03_orig.jpg,75,,,,,0,75,75,75,,,,,,,,,,,,,,,,,,,4.306640625,-8.37890625,1,0,0,0.768268108368,,,,,2015_Nov_01_1025,G,facesParametric,22,59.6875524754,
./stim/MorphM7_09_orig.jpg,76,,,,,0,76,76,76,,,,,,,,,,,,,,,,,,,4.306640625,-8.37890625,1,0,0,0.852443933487,,,,,2015_Nov_01_1025,G,facesParametric,22,59.6875524754,
./stim/MorphM1_00_orig.jpg,77,,,,,0,77,77,77,,,,,,,,,,,,,,,,,,,4.306640625,-8.37890625,1,0,0,0.88684797287,,,,,2015_Nov_01_1025,G,facesParametric,22,59.6875524754,
./stim/MorphM4_08_orig.jpg,78,,,,,0,78,78,78,,,,,,,,,,,,,,,,,,,4.306640625,-8.37890625,1,0,0,0.854039907455,,,,,2015_Nov_01_1025,G,facesParametric,22,59.6875524754,
./stim/MorphF8_04_orig.jpg,79,,,,,0,79,79,79,,,,,,,,,,,,,,,,,,,4.306640625,-8.37890625,1,0,0,1.03765702248,,,,,2015_Nov_01_1025,G,facesParametric,22,59.6875524754,
./stim/MorphF1_06_orig.jpg,80,,,,,0,80,80,80,,,,,,,,,,,,,,,,,,,4.306640625,-8.37890625,1,0,0,1.739590168,,,,,2015_Nov_01_1025,G,facesParametric,22,59.6875524754,
./stim/MorphM1_05_orig.jpg,81,,,,,0,81,81,81,,,,,,,,,,,,,,,,,,,4.306640625,-8.37890625,0,0,1,2.27823901176,,,,,2015_Nov_01_1025,G,facesParametric,22,59.6875524754,
./stim/MorphM4_06_orig.jpg,82,,,,,0,82,82,82,,,,,,,,,,,,,,,,,,,4.306640625,-8.37890625,0,0,1,3.30063080788,,,,,2015_Nov_01_1025,G,facesParametric,22,59.6875524754,
./stim/MorphF9_05_orig.jpg,83,,,,,0,83,83,83,,,,,,,,,,,,,,,,,,,4.306640625,-8.37890625,0,0,1,2.6957359314,,,,,2015_Nov_01_1025,G,facesParametric,22,59.6875524754,
./stim/MorphM5_09_orig.jpg,84,,,,,0,84,84,84,,,,,,,,,,,,,,,,,,,4.306640625,-8.37890625,1,0,0,1.20513892174,,,,,2015_Nov_01_1025,G,facesParametric,22,59.6875524754,
./stim/MorphF4_05_orig.jpg,85,,,,,0,85,85,85,,,,,,,,,,,,,,,,,,,4.306640625,-8.37890625,1,0,0,0.836854934692,,,,,2015_Nov_01_1025,G,facesParametric,22,59.6875524754,
./stim/MorphM7_03_orig.jpg,86,,,,,0,86,86,86,,,,,,,,,,,,,,,,,,,4.306640625,-8.37890625,1,0,0,0.668548107147,,,,,2015_Nov_01_1025,G,facesParametric,22,59.6875524754,
./stim/MorphM1_08_orig.jpg,87,,,,,0,87,87,87,,,,,,,,,,,,,,,,,,,4.306640625,-8.37890625,1,0,0,0.820072889328,,,,,2015_Nov_01_1025,G,facesParametric,22,59.6875524754,
./stim/MorphM8_04_orig.jpg,88,,,,,0,88,88,88,,,,,,,,,,,,,,,,,,,4.306640625,-8.37890625,1,0,0,0.736145019531,,,,,2015_Nov_01_1025,G,facesParametric,22,59.6875524754,
./stim/MorphF4_09_orig.jpg,89,,,,,0,89,89,89,,,,,,,,,,,,,,,,,,,4.306640625,-8.37890625,1,0,0,0.76908993721,,,,,2015_Nov_01_1025,G,facesParametric,22,59.6875524754,
./stim/MorphM8_06_orig.jpg,90,,,,,0,90,90,90,,,,,,,,,,,,,,,,,,,4.306640625,-8.37890625,1,0,0,0.716798067093,,,,,2015_Nov_01_1025,G,facesParametric,22,59.6875524754,
./stim/MorphM4_01_orig.jpg,91,,,,,0,91,91,91,,,,,,,,,,,,,,,,,,,4.306640625,-8.37890625,1,0,0,2.41175794601,,,,,2015_Nov_01_1025,G,facesParametric,22,59.6875524754,
./stim/MorphM9_00_orig.jpg,92,,,,,0,92,92,92,,,,,,,,,,,,,,,,,,,4.306640625,-8.37890625,1,0,0,0.685805082321,,,,,2015_Nov_01_1025,G,facesParametric,22,59.6875524754,
./stim/MorphM6_02_orig.jpg,93,,,,,0,93,93,93,,,,,,,,,,,,,,,,,,,4.306640625,-8.37890625,1,0,0,1.53927016258,,,,,2015_Nov_01_1025,G,facesParametric,22,59.6875524754,
./stim/MorphF2_06_orig.jpg,94,,,,,0,94,94,94,,,,,,,,,,,,,,,,,,,4.306640625,-8.37890625,1,0,0,0.836657047272,,,,,2015_Nov_01_1025,G,facesParametric,22,59.6875524754,
./stim/MorphM1_02_orig.jpg,95,,,,,0,95,95,95,,,,,,,,,,,,,,,,,,,4.306640625,-8.37890625,0,0,1,2.98031878471,,,,,2015_Nov_01_1025,G,facesParametric,22,59.6875524754,
./stim/MorphF10_00_orig.jpg,96,,,,,0,96,96,96,,,,,,,,,,,,,,,,,,,4.306640625,-8.37890625,0,0,1,6.50176310539,,,,,2015_Nov_01_1025,G,facesParametric,22,59.6875524754,
./stim/MorphF6_00_orig.jpg,97,,,,,0,97,97,97,,,,,,,,,,,,,,,,,,,4.306640625,-8.37890625,0,0,1,0.869545936584,,,,,2015_Nov_01_1025,G,facesParametric,22,59.6875524754,
./stim/MorphF9_08_orig.jpg,98,,,,,0,98,98,98,,,,,,,,,,,,,,,,,,,4.306640625,-8.37890625,1,0,0,1.60763716698,,,,,2015_Nov_01_1025,G,facesParametric,22,59.6875524754,
./stim/MorphF5_06_orig.jpg,99,,,,,0,99,99,99,,,,,,,,,,,,,,,,,,,4.306640625,-8.37890625,0,0,1,2.37853693962,,,,,2015_Nov_01_1025,G,facesParametric,22,59.6875524754,
./stim/MorphF1_08_orig.jpg,100,,,,,0,100,100,100,,,,,,,,,,,,,,,,,,,4.306640625,-8.37890625,1,0,0,1.64181208611,,,,,2015_Nov_01_1025,G,facesParametric,22,59.6875524754,
./stim/MorphF2_08_orig.jpg,101,,,,,0,101,101,101,,,,,,,,,,,,,,,,,,,4.306640625,-8.37890625,1,0,0,1.15504097939,,,,,2015_Nov_01_1025,G,facesParametric,22,59.6875524754,
./stim/MorphF5_04_orig.jpg,102,,,,,0,102,102,102,,,,,,,,,,,,,,,,,,,4.306640625,-8.37890625,0,0,1,3.3341319561,,,,,2015_Nov_01_1025,G,facesParametric,22,59.6875524754,
./stim/MorphF8_07_orig.jpg,103,,,,,0,103,103,103,,,,,,,,,,,,,,,,,,,4.306640625,-8.37890625,1,0,0,3.01331305504,,,,,2015_Nov_01_1025,G,facesParametric,22,59.6875524754,
./stim/MorphF10_06_orig.jpg,104,,,,,0,104,104,104,,,,,,,,,,,,,,,,,,,4.306640625,-8.37890625,1,0,0,0.769695043564,,,,,2015_Nov_01_1025,G,facesParametric,22,59.6875524754,
./stim/MorphM5_04_orig.jpg,105,,,,,0,105,105,105,,,,,,,,,,,,,,,,,,,4.306640625,-8.37890625,1,0,0,3.1638469696,,,,,2015_Nov_01_1025,G,facesParametric,22,59.6875524754,
./stim/MorphM1_04_orig.jpg,106,,,,,0,106,106,106,,,,,,,,,,,,,,,,,,,4.306640625,-8.37890625,0,0,1,1.74144911766,,,,,2015_Nov_01_1025,G,facesParametric,22,59.6875524754,
./stim/MorphF9_09_orig.jpg,107,,,,,0,107,107,107,,,,,,,,,,,,,,,,,,,4.306640625,-8.37890625,1,0,0,1.90957808495,,,,,2015_Nov_01_1025,G,facesParametric,22,59.6875524754,
./stim/MorphF10_08_orig.jpg,108,,,,,0,108,108,108,,,,,,,,,,,,,,,,,,,4.306640625,-8.37890625,1,0,0,0.86993098259,,,,,2015_Nov_01_1025,G,facesParametric,22,59.6875524754,
./stim/MorphM8_02_orig.jpg,109,,,,,0,109,109,109,,,,,,,,,,,,,,,,,,,4.306640625,-8.37890625,1,0,0,0.820109844208,,,,,2015_Nov_01_1025,G,facesParametric,22,59.6875524754,
./stim/MorphM2_09_orig.jpg,110,,,,,0,110,110,110,,,,,,,,,,,,,,,,,,,4.306640625,-8.37890625,1,0,0,0.685831069946,,,,,2015_Nov_01_1025,G,facesParametric,22,59.6875524754,
./stim/MorphM5_08_orig.jpg,111,,,,,0,111,111,111,,,,,,,,,,,,,,,,,,,4.306640625,-8.37890625,1,0,0,1.33927702904,,,,,2015_Nov_01_1025,G,facesParametric,22,59.6875524754,
./stim/MorphM2_08_orig.jpg,112,,,,,0,112,112,112,,,,,,,,,,,,,,,,,,,4.306640625,-8.37890625,1,0,0,0.803544998169,,,,,2015_Nov_01_1025,G,facesParametric,22,59.6875524754,
./stim/MorphF6_08_orig.jpg,113,,,,,0,113,113,113,,,,,,,,,,,,,,,,,,,4.306640625,-8.37890625,1,0,0,0.786380767822,,,,,2015_Nov_01_1025,G,facesParametric,22,59.6875524754,
./stim/MorphM3_08_orig.jpg,114,,,,,0,114,114,114,,,,,,,,,,,,,,,,,,,4.306640625,-8.37890625,1,0,0,0.802962064743,,,,,2015_Nov_01_1025,G,facesParametric,22,59.6875524754,
./stim/MorphF7_07_orig.jpg,115,,,,,0,115,115,115,,,,,,,,,,,,,,,,,,,4.306640625,-8.37890625,1,0,0,0.685675859451,,,,,2015_Nov_01_1025,G,facesParametric,22,59.6875524754,
./stim/MorphM10_02_orig.jpg,116,,,,,0,116,116,116,,,,,,,,,,,,,,,,,,,4.306640625,-8.37890625,1,0,0,1.67487716675,,,,,2015_Nov_01_1025,G,facesParametric,22,59.6875524754,
./stim/MorphF9_02_orig.jpg,117,,,,,0,117,117,117,,,,,,,,,,,,,,,,,,,4.306640625,-8.37890625,0,0,1,1.39115309715,,,,,2015_Nov_01_1025,G,facesParametric,22,59.6875524754,
./stim/MorphM2_06_orig.jpg,118,,,,,0,118,118,118,,,,,,,,,,,,,,,,,,,4.306640625,-8.37890625,0,0,1,2.12594389915,,,,,2015_Nov_01_1025,G,facesParametric,22,59.6875524754,
./stim/MorphM3_01_orig.jpg,119,,,,,0,119,119,119,,,,,,,,,,,,,,,,,,,4.306640625,-8.37890625,1,0,0,1.74200510979,,,,,2015_Nov_01_1025,G,facesParametric,22,59.6875524754,
./stim/MorphF5_03_orig.jpg,120,,,,,0,120,120,120,,,,,,,,,,,,,,,,,,,4.306640625,-8.37890625,0,0,1,1.16975593567,,,,,2015_Nov_01_1025,G,facesParametric,22,59.6875524754,
./stim/MorphF7_09_orig.jpg,121,,,,,0,121,121,121,,,,,,,,,,,,,,,,,,,4.306640625,-8.37890625,1,0,0,1.0721051693,,,,,2015_Nov_01_1025,G,facesParametric,22,59.6875524754,
./stim/MorphF6_02_orig.jpg,122,,,,,0,122,122,122,,,,,,,,,,,,,,,,,,,4.306640625,-8.37890625,0,0,1,1.72554993629,,,,,2015_Nov_01_1025,G,facesParametric,22,59.6875524754,
./stim/MorphM2_10_orig.jpg,123,,,,,0,123,123,123,,,,,,,,,,,,,,,,,,,4.306640625,-8.37890625,1,0,0,2.49510502815,,,,,2015_Nov_01_1025,G,facesParametric,22,59.6875524754,
./stim/MorphF9_03_orig.jpg,124,,,,,0,124,124,124,,,,,,,,,,,,,,,,,,,4.306640625,-8.37890625,0,0,1,2.02657389641,,,,,2015_Nov_01_1025,G,facesParametric,22,59.6875524754,
./stim/MorphM4_09_orig.jpg,125,,,,,0,125,125,125,,,,,,,,,,,,,,,,,,,4.306640625,-8.37890625,1,0,0,2.54611897469,,,,,2015_Nov_01_1025,G,facesParametric,22,59.6875524754,
./stim/MorphF7_02_orig.jpg,126,,,,,0,126,126,126,,,,,,,,,,,,,,,,,,,4.74609375,-8.7890625,1,0,0,3.28348302841,,,,,2015_Nov_01_1025,G,facesParametric,22,59.6875524754,
./stim/MorphF5_09_orig.jpg,127,,,,,0,127,127,127,,,,,,,,,,,,,,,,,,,4.74609375,-8.7890625,1,0,0,1.75856804848,,,,,2015_Nov_01_1025,G,facesParametric,22,59.6875524754,
./stim/MorphF1_10_orig.jpg,128,,,,,0,128,128,128,,,,,,,,,,,,,,,,,,,4.74609375,-8.7890625,1,0,0,0.870445013046,,,,,2015_Nov_01_1025,G,facesParametric,22,59.6875524754,
./stim/MorphM3_05_orig.jpg,129,,,,,0,129,129,129,,,,,,,,,,,,,,,,,,,4.74609375,-8.7890625,1,0,0,0.81992316246,,,,,2015_Nov_01_1025,G,facesParametric,22,59.6875524754,
./stim/MorphM6_01_orig.jpg,130,,,,,0,130,130,130,,,,,,,,,,,,,,,,,,,4.74609375,-8.7890625,0,0,1,1.30588889122,,,,,2015_Nov_01_1025,G,facesParametric,22,59.6875524754,
./stim/MorphF7_05_orig.jpg,131,,,,,0,131,131,131,,,,,,,,,,,,,,,,,,,4.74609375,-8.7890625,1,0,0,3.43455910683,,,,,2015_Nov_01_1025,G,facesParametric,22,59.6875524754,
./stim/MorphM5_01_orig.jpg,132,,,,,0,132,132,132,,,,,,,,,,,,,,,,,,,4.74609375,-8.7890625,0,0,1,1.59142804146,,,,,2015_Nov_01_1025,G,facesParametric,22,59.6875524754,
./stim/MorphF7_03_orig.jpg,133,,,,,0,133,133,133,,,,,,,,,,,,,,,,,,,4.74609375,-8.7890625,0,0,1,1.42289400101,,,,,2015_Nov_01_1025,G,facesParametric,22,59.6875524754,
./stim/MorphF4_04_orig.jpg,134,,,,,0,134,134,134,,,,,,,,,,,,,,,,,,,4.74609375,-8.7890625,0,0,1,1.25585699081,,,,,2015_Nov_01_1025,G,facesParametric,22,59.6875524754,
./stim/MorphF7_04_orig.jpg,135,,,,,0,135,135,135,,,,,,,,,,,,,,,,,,,4.74609375,-8.7890625,0,0,1,1.07050991058,,,,,2015_Nov_01_1025,G,facesParametric,22,59.6875524754,
./stim/MorphF3_09_orig.jpg,136,,,,,0,136,136,136,,,,,,,,,,,,,,,,,,,4.74609375,-8.7890625,1,0,0,1.13793992996,,,,,2015_Nov_01_1025,G,facesParametric,22,59.6875524754,
./stim/MorphM8_10_orig.jpg,137,,,,,0,137,137,137,,,,,,,,,,,,,,,,,,,4.74609375,-8.7890625,1,0,0,0.735891103745,,,,,2015_Nov_01_1025,G,facesParametric,22,59.6875524754,
./stim/MorphF5_10_orig.jpg,138,,,,,0,138,138,138,,,,,,,,,,,,,,,,,,,4.74609375,-8.7890625,1,0,0,0.76998591423,,,,,2015_Nov_01_1025,G,facesParametric,22,59.6875524754,
./stim/MorphF1_09_orig.jpg,139,,,,,0,139,139,139,,,,,,,,,,,,,,,,,,,4.74609375,-8.7890625,1,0,0,0.818228006363,,,,,2015_Nov_01_1025,G,facesParametric,22,59.6875524754,
./stim/MorphM3_02_orig.jpg,140,,,,,0,140,140,140,,,,,,,,,,,,,,,,,,,4.74609375,-8.7890625,1,0,0,0.652964115143,,,,,2015_Nov_01_1025,G,facesParametric,22,59.6875524754,
./stim/MorphM7_07_orig.jpg,141,,,,,0,141,141,141,,,,,,,,,,,,,,,,,,,4.74609375,-8.7890625,1,0,0,0.601831197739,,,,,2015_Nov_01_1025,G,facesParametric,22,59.6875524754,
./stim/MorphF1_07_orig.jpg,142,,,,,0,142,142,142,,,,,,,,,,,,,,,,,,,4.74609375,-8.7890625,1,0,0,0.820128917694,,,,,2015_Nov_01_1025,G,facesParametric,22,59.6875524754,
./stim/MorphF2_09_orig.jpg,143,,,,,0,143,143,143,,,,,,,,,,,,,,,,,,,4.74609375,-8.7890625,1,0,0,1.0706949234,,,,,2015_Nov_01_1025,G,facesParametric,22,59.6875524754,
./stim/MorphF7_10_orig.jpg,144,,,,,0,144,144,144,,,,,,,,,,,,,,,,,,,4.74609375,-8.7890625,1,0,0,0.953414201736,,,,,2015_Nov_01_1025,G,facesParametric,22,59.6875524754,
./stim/MorphM3_09_orig.jpg,145,,,,,0,145,145,145,,,,,,,,,,,,,,,,,,,4.74609375,-8.7890625,1,0,0,0.736447095871,,,,,2015_Nov_01_1025,G,facesParametric,22,59.6875524754,
./stim/MorphF2_10_orig.jpg,146,,,,,0,146,146,146,,,,,,,,,,,,,,,,,,,4.74609375,-8.7890625,1,0,0,0.700805902481,,,,,2015_Nov_01_1025,G,facesParametric,22,59.6875524754,
./stim/MorphM10_06_orig.jpg,147,,,,,0,147,147,147,,,,,,,,,,,,,,,,,,,4.74609375,-8.7890625,1,0,0,0.683341026306,,,,,2015_Nov_01_1025,G,facesParametric,22,59.6875524754,
./stim/MorphF9_01_orig.jpg,148,,,,,0,148,148,148,,,,,,,,,,,,,,,,,,,4.74609375,-8.7890625,0,0,1,1.30551195145,,,,,2015_Nov_01_1025,G,facesParametric,22,59.6875524754,
./stim/MorphF6_07_orig.jpg,149,,,,,0,149,149,149,,,,,,,,,,,,,,,,,,,4.74609375,-8.7890625,1,0,0,1.39113783836,,,,,2015_Nov_01_1025,G,facesParametric,22,59.6875524754,
./stim/MorphM10_10_orig.jpg,150,,,,,0,150,150,150,,,,,,,,,,,,,,,,,,,4.74609375,-8.7890625,1,0,0,1.10367512703,,,,,2015_Nov_01_1025,G,facesParametric,22,59.6875524754,
./stim/MorphM1_09_orig.jpg,151,,,,,0,151,151,151,,,,,,,,,,,,,,,,,,,4.74609375,-8.7890625,1,0,0,0.801566839218,,,,,2015_Nov_01_1025,G,facesParametric,22,59.6875524754,
./stim/MorphM5_03_orig.jpg,152,,,,,0,152,152,152,,,,,,,,,,,,,,,,,,,4.74609375,-8.7890625,1,0,0,0.868337869644,,,,,2015_Nov_01_1025,G,facesParametric,22,59.6875524754,
./stim/MorphM6_06_orig.jpg,153,,,,,0,153,153,153,,,,,,,,,,,,,,,,,,,4.74609375,-8.7890625,1,0,0,0.73460483551,,,,,2015_Nov_01_1025,G,facesParametric,22,59.6875524754,
./stim/MorphM7_02_orig.jpg,154,,,,,0,154,154,154,,,,,,,,,,,,,,,,,,,4.74609375,-8.7890625,1,0,0,0.669225931168,,,,,2015_Nov_01_1025,G,facesParametric,22,59.6875524754,
./stim/MorphF3_04_orig.jpg,155,,,,,0,155,155,155,,,,,,,,,,,,,,,,,,,4.74609375,-8.7890625,1,0,0,1.22116398811,,,,,2015_Nov_01_1025,G,facesParametric,22,59.6875524754,
./stim/MorphM8_01_orig.jpg,156,,,,,0,156,156,156,,,,,,,,,,,,,,,,,,,4.74609375,-8.7890625,1,0,0,1.25484800339,,,,,2015_Nov_01_1025,G,facesParametric,22,59.6875524754,
./stim/MorphF5_05_orig.jpg,157,,,,,0,157,157,157,,,,,,,,,,,,,,,,,,,4.74609375,-8.7890625,1,0,0,0.986109018326,,,,,2015_Nov_01_1025,G,facesParametric,22,59.6875524754,
./stim/MorphF6_05_orig.jpg,158,,,,,0,158,158,158,,,,,,,,,,,,,,,,,,,4.74609375,-8.7890625,1,0,0,0.787349939346,,,,,2015_Nov_01_1025,G,facesParametric,22,59.6875524754,
./stim/MorphM9_09_orig.jpg,159,,,,,0,159,159,159,,,,,,,,,,,,,,,,,,,4.74609375,-8.7890625,1,0,0,0.718666791916,,,,,2015_Nov_01_1025,G,facesParametric,22,59.6875524754,
./stim/MorphM8_07_orig.jpg,160,,,,,0,160,160,160,,,,,,,,,,,,,,,,,,,4.74609375,-8.7890625,1,0,0,2.07687306404,,,,,2015_Nov_01_1025,G,facesParametric,22,59.6875524754,
./stim/MorphM7_04_orig.jpg,161,,,,,0,161,161,161,,,,,,,,,,,,,,,,,,,4.74609375,-8.7890625,1,0,0,0.751497983932,,,,,2015_Nov_01_1025,G,facesParametric,22,59.6875524754,
./stim/MorphM2_03_orig.jpg,162,,,,,0,162,162,162,,,,,,,,,,,,,,,,,,,4.74609375,-8.7890625,0,0,1,1.69167709351,,,,,2015_Nov_01_1025,G,facesParametric,22,59.6875524754,
./stim/MorphF6_06_orig.jpg,163,,,,,0,163,163,163,,,,,,,,,,,,,,,,,,,4.74609375,-8.7890625,1,0,0,1.27274394035,,,,,2015_Nov_01_1025,G,facesParametric,22,59.6875524754,
./stim/MorphM6_03_orig.jpg,164,,,,,0,164,164,164,,,,,,,,,,,,,,,,,,,4.74609375,-8.7890625,0,0,1,2.04308509827,,,,,2015_Nov_01_1025,G,facesParametric,22,59.6875524754,
./stim/MorphF10_09_orig.jpg,165,,,,,0,165,165,165,,,,,,,,,,,,,,,,,,,4.74609375,-8.7890625,1,0,0,0.685953855515,,,,,2015_Nov_01_1025,G,facesParametric,22,59.6875524754,
./stim/MorphM2_02_orig.jpg,166,,,,,0,166,166,166,,,,,,,,,,,,,,,,,,,4.74609375,-8.7890625,0,0,1,1.13853001595,,,,,2015_Nov_01_1025,G,facesParametric,22,59.6875524754,
./stim/MorphF9_10_orig.jpg,167,,,,,0,167,167,167,,,,,,,,,,,,,,,,,,,4.74609375,-8.7890625,1,0,0,0.752282857895,,,,,2015_Nov_01_1025,G,facesParametric,22,59.6875524754,
./stim/MorphF5_07_orig.jpg,168,,,,,0,168,168,168,,,,,,,,,,,,,,,,,,,4.74609375,-8.7890625,1,0,0,0.920362949371,,,,,2015_Nov_01_1025,G,facesParametric,22,59.6875524754,
./stim/MorphF8_01_orig.jpg,169,,,,,0,169,169,169,,,,,,,,,,,,,,,,,,,4.74609375,-8.7890625,0,0,1,2.0081808567,,,,,2015_Nov_01_1025,G,facesParametric,22,59.6875524754,
./stim/MorphF1_02_orig.jpg,170,,,,,0,170,170,170,,,,,,,,,,,,,,,,,,,4.74609375,-8.7890625,0,0,1,1.00470900536,,,,,2015_Nov_01_1025,G,facesParametric,22,59.6875524754,
./stim/MorphF8_10_orig.jpg,171,,,,,0,171,171,171,,,,,,,,,,,,,,,,,,,4.74609375,-8.7890625,1,0,0,0.702590942383,,,,,2015_Nov_01_1025,G,facesParametric,22,59.6875524754,
./stim/MorphF6_03_orig.jpg,172,,,,,0,172,172,172,,,,,,,,,,,,,,,,,,,4.74609375,-8.7890625,1,0,0,0.869814872742,,,,,2015_Nov_01_1025,G,facesParametric,22,59.6875524754,
./stim/MorphF4_01_orig.jpg,173,,,,,0,173,173,173,,,,,,,,,,,,,,,,,,,4.74609375,-8.7890625,0,0,1,1.10432910919,,,,,2015_Nov_01_1025,G,facesParametric,22,59.6875524754,
./stim/MorphF10_07_orig.jpg,174,,,,,0,174,174,174,,,,,,,,,,,,,,,,,,,4.74609375,-8.7890625,1,0,0,0.753160953522,,,,,2015_Nov_01_1025,G,facesParametric,22,59.6875524754,
./stim/MorphM9_01_orig.jpg,175,,,,,0,175,175,175,,,,,,,,,,,,,,,,,,,4.74609375,-8.7890625,0,0,1,0.801139831543,,,,,2015_Nov_01_1025,G,facesParametric,22,59.6875524754,
./stim/MorphF4_00_orig.jpg,176,,,,,0,176,176,176,,,,,,,,,,,,,,,,,,,4.74609375,-8.7890625,0,0,1,0.735967874527,,,,,2015_Nov_01_1025,G,facesParametric,22,59.6875524754,
./stim/MorphM6_05_orig.jpg,177,,,,,0,177,177,177,,,,,,,,,,,,,,,,,,,4.74609375,-8.7890625,1,0,0,1.43995094299,,,,,2015_Nov_01_1025,G,facesParametric,22,59.6875524754,
./stim/MorphF8_00_orig.jpg,178,,,,,0,178,178,178,,,,,,,,,,,,,,,,,,,4.74609375,-8.7890625,0,0,1,0.803555011749,,,,,2015_Nov_01_1025,G,facesParametric,22,59.6875524754,
./stim/MorphM10_05_orig.jpg,179,,,,,0,179,179,179,,,,,,,,,,,,,,,,,,,4.74609375,-8.7890625,1,0,0,0.819873809814,,,,,2015_Nov_01_1025,G,facesParametric,22,59.6875524754,
./stim/MorphF6_01_orig.jpg,180,,,,,0,180,180,180,,,,,,,,,,,,,,,,,,,4.74609375,-8.7890625,0,0,1,1.62456202507,,,,,2015_Nov_01_1025,G,facesParametric,22,59.6875524754,
./stim/MorphM3_04_orig.jpg,181,,,,,0,181,181,181,,,,,,,,,,,,,,,,,,,4.74609375,-8.7890625,1,0,0,1.37424302101,,,,,2015_Nov_01_1025,G,facesParametric,22,59.6875524754,
./stim/MorphM6_08_orig.jpg,182,,,,,0,182,182,182,,,,,,,,,,,,,,,,,,,4.74609375,-8.7890625,1,0,0,1.27212309837,,,,,2015_Nov_01_1025,G,facesParametric,22,59.6875524754,
./stim/MorphM9_06_orig.jpg,183,,,,,0,183,183,183,,,,,,,,,,,,,,,,,,,4.74609375,-8.7890625,1,0,0,2.54463291168,,,,,2015_Nov_01_1025,G,facesParametric,22,59.6875524754,
./stim/MorphF10_04_orig.jpg,184,,,,,0,184,184,184,,,,,,,,,,,,,,,,,,,4.74609375,-8.7890625,1,0,0,0.937548875809,,,,,2015_Nov_01_1025,G,facesParametric,22,59.6875524754,
./stim/MorphM8_09_orig.jpg,185,,,,,0,185,185,185,,,,,,,,,,,,,,,,,,,4.74609375,-8.7890625,1,0,0,0.76969408989,,,,,2015_Nov_01_1025,G,facesParametric,22,59.6875524754,
./stim/MorphM3_03_orig.jpg,186,,,,,0,186,186,186,,,,,,,,,,,,,,,,,,,4.74609375,-8.7890625,1,0,0,0.83479309082,,,,,2015_Nov_01_1025,G,facesParametric,22,59.6875524754,
./stim/MorphM7_05_orig.jpg,187,,,,,0,187,187,187,,,,,,,,,,,,,,,,,,,4.74609375,-8.7890625,1,0,0,0.585830926895,,,,,2015_Nov_01_1025,G,facesParametric,22,59.6875524754,
./stim/MorphM2_05_orig.jpg,188,,,,,0,188,188,188,,,,,,,,,,,,,,,,,,,4.74609375,-8.7890625,1,0,0,0.767262220383,,,,,2015_Nov_01_1025,G,facesParametric,22,59.6875524754,
./stim/MorphF3_08_orig.jpg,189,,,,,0,189,189,189,,,,,,,,,,,,,,,,,,,4.74609375,-8.7890625,1,0,0,0.668961048126,,,,,2015_Nov_01_1025,G,facesParametric,22,59.6875524754,
./stim/MorphF8_03_orig.jpg,190,,,,,0,190,190,190,,,,,,,,,,,,,,,,,,,4.74609375,-8.7890625,1,0,0,0.836293935776,,,,,2015_Nov_01_1025,G,facesParametric,22,59.6875524754,
./stim/MorphM5_06_orig.jpg,191,,,,,0,191,191,191,,,,,,,,,,,,,,,,,,,4.8046875,-8.61328125,1,0,0,1.55605578423,,,,,2015_Nov_01_1025,G,facesParametric,22,59.6875524754,
./stim/MorphF1_01_orig.jpg,192,,,,,0,192,192,192,,,,,,,,,,,,,,,,,,,4.8046875,-8.61328125,1,0,0,0.953753948212,,,,,2015_Nov_01_1025,G,facesParametric,22,59.6875524754,
./stim/MorphF7_06_orig.jpg,193,,,,,0,193,193,193,,,,,,,,,,,,,,,,,,,4.8046875,-8.61328125,1,0,0,0.836721897125,,,,,2015_Nov_01_1025,G,facesParametric,22,59.6875524754,
./stim/MorphF2_05_orig.jpg,194,,,,,0,194,194,194,,,,,,,,,,,,,,,,,,,4.8046875,-8.61328125,1,0,0,0.802211999893,,,,,2015_Nov_01_1025,G,facesParametric,22,59.6875524754,
./stim/MorphM3_07_orig.jpg,195,,,,,0,195,195,195,,,,,,,,,,,,,,,,,,,4.8046875,-8.61328125,1,0,0,0.650786876678,,,,,2015_Nov_01_1025,G,facesParametric,22,59.6875524754,
./stim/MorphF9_07_orig.jpg,196,,,,,0,196,196,196,,,,,,,,,,,,,,,,,,,4.8046875,-8.61328125,1,0,0,0.8032310009,,,,,2015_Nov_01_1025,G,facesParametric,22,59.6875524754,
./stim/MorphF10_01_orig.jpg,197,,,,,0,197,197,197,,,,,,,,,,,,,,,,,,,4.8046875,-8.61328125,0,0,1,1.33920311928,,,,,2015_Nov_01_1025,G,facesParametric,22,59.6875524754,
./stim/MorphF4_03_orig.jpg,198,,,,,0,198,198,198,,,,,,,,,,,,,,,,,,,4.8046875,-8.61328125,0,0,1,0.752707004547,,,,,2015_Nov_01_1025,G,facesParametric,22,59.6875524754,
./stim/MorphF5_00_orig.jpg,199,,,,,0,199,199,199,,,,,,,,,,,,,,,,,,,4.8046875,-8.61328125,0,0,1,2.68049097061,,,,,2015_Nov_01_1025,G,facesParametric,22,59.6875524754,
./stim/MorphF8_09_orig.jpg,200,,,,,0,200,200,200,,,,,,,,,,,,,,,,,,,4.8046875,-8.61328125,1,0,0,1.25584793091,,,,,2015_Nov_01_1025,G,facesParametric,22,59.6875524754,
./stim/MorphM5_00_orig.jpg,201,,,,,0,201,201,201,,,,,,,,,,,,,,,,,,,4.8046875,-8.61328125,1,0,0,1.18784308434,,,,,2015_Nov_01_1025,G,facesParametric,22,59.6875524754,
./stim/MorphM3_00_orig.jpg,202,,,,,0,202,202,202,,,,,,,,,,,,,,,,,,,4.8046875,-8.61328125,1,0,0,0.735450983047,,,,,2015_Nov_01_1025,G,facesParametric,22,59.6875524754,
./stim/MorphM2_04_orig.jpg,203,,,,,0,203,203,203,,,,,,,,,,,,,,,,,,,4.8046875,-8.61328125,1,0,0,0.669981002808,,,,,2015_Nov_01_1025,G,facesParametric,22,59.6875524754,
./stim/MorphF1_04_orig.jpg,204,,,,,0,204,204,204,,,,,,,,,,,,,,,,,,,4.8046875,-8.61328125,1,0,0,0.919612884521,,,,,2015_Nov_01_1025,G,facesParametric,22,59.6875524754,
./stim/MorphM4_02_orig.jpg,205,,,,,0,205,205,205,,,,,,,,,,,,,,,,,,,4.8046875,-8.61328125,0,0,1,1.92586898804,,,,,2015_Nov_01_1025,G,facesParametric,22,59.6875524754,
./stim/MorphM9_07_orig.jpg,206,,,,,0,206,206,206,,,,,,,,,,,,,,,,,,,4.8046875,-8.61328125,1,0,0,1.45735192299,,,,,2015_Nov_01_1025,G,facesParametric,22,59.6875524754,
./stim/MorphF2_00_orig.jpg,207,,,,,0,207,207,207,,,,,,,,,,,,,,,,,,,4.8046875,-8.61328125,0,0,1,1.45674014091,,,,,2015_Nov_01_1025,G,facesParametric,22,59.6875524754,
./stim/MorphF3_07_orig.jpg,208,,,,,0,208,208,208,,,,,,,,,,,,,,,,,,,4.8046875,-8.61328125,1,0,0,1.37306308746,,,,,2015_Nov_01_1025,G,facesParametric,22,59.6875524754,
./stim/MorphF8_06_orig.jpg,209,,,,,0,209,209,209,,,,,,,,,,,,,,,,,,,4.8046875,-8.61328125,1,0,0,1.47347784042,,,,,2015_Nov_01_1025,G,facesParametric,22,59.6875524754,
./stim/MorphM2_07_orig.jpg,210,,,,,0,210,210,210,,,,,,,,,,,,,,,,,,,4.8046875,-8.61328125,1,0,0,0.851735115051,,,,,2015_Nov_01_1025,G,facesParametric,22,59.6875524754,
./stim/MorphM9_08_orig.jpg,211,,,,,0,211,211,211,,,,,,,,,,,,,,,,,,,4.8046875,-8.61328125,1,0,0,0.837311029434,,,,,2015_Nov_01_1025,G,facesParametric,22,59.6875524754,
./stim/MorphF10_10_orig.jpg,212,,,,,0,212,212,212,,,,,,,,,,,,,,,,,,,4.8046875,-8.61328125,1,0,0,0.651654958725,,,,,2015_Nov_01_1025,G,facesParametric,22,59.6875524754,
./stim/MorphF1_00_orig.jpg,213,,,,,0,213,213,213,,,,,,,,,,,,,,,,,,,4.8046875,-8.61328125,0,0,1,2.11163115501,,,,,2015_Nov_01_1025,G,facesParametric,22,59.6875524754,
./stim/MorphM1_03_orig.jpg,214,,,,,0,214,214,214,,,,,,,,,,,,,,,,,,,4.8046875,-8.61328125,0,0,1,1.48994112015,,,,,2015_Nov_01_1025,G,facesParametric,22,59.6875524754,
./stim/MorphM5_05_orig.jpg,215,,,,,0,215,215,215,,,,,,,,,,,,,,,,,,,4.8046875,-8.61328125,1,0,0,1.50604701042,,,,,2015_Nov_01_1025,G,facesParametric,22,59.6875524754,
./stim/MorphF8_02_orig.jpg,216,,,,,0,216,216,216,,,,,,,,,,,,,,,,,,,4.8046875,-8.61328125,0,0,1,1.45693588257,,,,,2015_Nov_01_1025,G,facesParametric,22,59.6875524754,
./stim/MorphF3_01_orig.jpg,217,,,,,0,217,217,217,,,,,,,,,,,,,,,,,,,4.8046875,-8.61328125,0,0,1,1.63979792595,,,,,2015_Nov_01_1025,G,facesParametric,22,59.6875524754,
./stim/MorphM2_00_orig.jpg,218,,,,,0,218,218,218,,,,,,,,,,,,,,,,,,,4.8046875,-8.61328125,0,0,1,0.820089101791,,,,,2015_Nov_01_1025,G,facesParametric,22,59.6875524754,
./stim/MorphF5_01_orig.jpg,219,,,,,0,219,219,219,,,,,,,,,,,,,,,,,,,4.8046875,-8.61328125,0,0,1,2.10850811005,,,,,2015_Nov_01_1025,G,facesParametric,22,59.6875524754,
,,,,,,,,,,,,,,,,,,,,,,,,,,,,,,,,,,return,6.20080113411,,,2015_Nov_01_1025,G,facesParametric,22,59.6875524754,
./stim/MorphF2_01_orig.jpg,0,,,,,,,,,0,0,0,0,,,,,,,,,,,,,,,4.8046875,-8.61328125,0,0,1,2.85000014305,,,,,2015_Nov_01_1025,G,facesParametric,22,59.6875524754,
./stim/MorphM10_08_orig.jpg,1,,,,,,,,,0,1,1,1,,,,,,,,,,,,,,,4.8046875,-8.61328125,1,0,0,0.920027017593,,,,,2015_Nov_01_1025,G,facesParametric,22,59.6875524754,
./stim/MorphF10_04_orig.jpg,2,,,,,,,,,0,2,2,2,,,,,,,,,,,,,,,4.8046875,-8.61328125,1,0,0,0.333269119263,,,,,2015_Nov_01_1025,G,facesParametric,22,59.6875524754,
./stim/MorphM2_03_orig.jpg,3,,,,,,,,,0,3,3,3,,,,,,,,,,,,,,,4.8046875,-8.61328125,1,0,0,0.769973993301,,,,,2015_Nov_01_1025,G,facesParametric,22,59.6875524754,
./stim/MorphF7_04_orig.jpg,4,,,,,,,,,0,4,4,4,,,,,,,,,,,,,,,4.8046875,-8.61328125,1,0,0,0.618802785873,,,,,2015_Nov_01_1025,G,facesParametric,22,59.6875524754,
./stim/MorphM2_05_orig.jpg,5,,,,,,,,,0,5,5,5,,,,,,,,,,,,,,,4.8046875,-8.61328125,1,0,0,0.736659765244,,,,,2015_Nov_01_1025,G,facesParametric,22,59.6875524754,
./stim/MorphF10_07_orig.jpg,6,,,,,,,,,0,6,6,6,,,,,,,,,,,,,,,4.8046875,-8.61328125,1,0,0,0.63387799263,,,,,2015_Nov_01_1025,G,facesParametric,22,59.6875524754,
./stim/MorphM8_01_orig.jpg,7,,,,,,,,,0,7,7,7,,,,,,,,,,,,,,,4.8046875,-8.61328125,1,0,0,0.719474077225,,,,,2015_Nov_01_1025,G,facesParametric,22,59.6875524754,
./stim/MorphF1_08_orig.jpg,8,,,,,,,,,0,8,8,8,,,,,,,,,,,,,,,4.8046875,-8.61328125,1,0,0,0.770190000534,,,,,2015_Nov_01_1025,G,facesParametric,22,59.6875524754,
./stim/MorphM6_05_orig.jpg,9,,,,,,,,,0,9,9,9,,,,,,,,,,,,,,,4.8046875,-8.61328125,1,0,0,0.684223890305,,,,,2015_Nov_01_1025,G,facesParametric,22,59.6875524754,
./stim/MorphM10_01_orig.jpg,10,,,,,,,,,0,10,10,10,,,,,,,,,,,,,,,4.8046875,-8.61328125,1,0,0,1.47283792496,,,,,2015_Nov_01_1025,G,facesParametric,22,59.6875524754,
./stim/MorphF9_06_orig.jpg,11,,,,,,,,,0,11,11,11,,,,,,,,,,,,,,,4.8046875,-8.61328125,1,0,0,0.752680063248,,,,,2015_Nov_01_1025,G,facesParametric,22,59.6875524754,
./stim/MorphF4_06_orig.jpg,12,,,,,,,,,0,12,12,12,,,,,,,,,,,,,,,4.8046875,-8.61328125,0,0,1,1.67303586006,,,,,2015_Nov_01_1025,G,facesParametric,22,59.6875524754,
./stim/MorphM2_10_orig.jpg,13,,,,,,,,,0,13,13,13,,,,,,,,,,,,,,,4.8046875,-8.61328125,1,0,0,0.970200061798,,,,,2015_Nov_01_1025,G,facesParametric,22,59.6875524754,
./stim/MorphF8_03_orig.jpg,14,,,,,,,,,0,14,14,14,,,,,,,,,,,,,,,4.8046875,-8.61328125,1,0,0,1.02024412155,,,,,2015_Nov_01_1025,G,facesParametric,22,59.6875524754,
./stim/MorphM3_05_orig.jpg,15,,,,,,,,,0,15,15,15,,,,,,,,,,,,,,,4.8046875,-8.61328125,1,0,0,0.836508989334,,,,,2015_Nov_01_1025,G,facesParametric,22,59.6875524754,
./stim/MorphF4_03_orig.jpg,16,,,,,,,,,0,16,16,16,,,,,,,,,,,,,,,4.8046875,-8.61328125,0,0,1,1.06905603409,,,,,2015_Nov_01_1025,G,facesParametric,22,59.6875524754,
./stim/MorphF2_09_orig.jpg,17,,,,,,,,,0,17,17,17,,,,,,,,,,,,,,,4.8046875,-8.61328125,1,0,0,0.987951040268,,,,,2015_Nov_01_1025,G,facesParametric,22,59.6875524754,
./stim/MorphM5_03_orig.jpg,18,,,,,,,,,0,18,18,18,,,,,,,,,,,,,,,4.8046875,-8.61328125,1,0,0,1.00413203239,,,,,2015_Nov_01_1025,G,facesParametric,22,59.6875524754,
./stim/MorphF6_08_orig.jpg,19,,,,,,,,,0,19,19,19,,,,,,,,,,,,,,,4.8046875,-8.61328125,1,0,0,0.735924005508,,,,,2015_Nov_01_1025,G,facesParametric,22,59.6875524754,
./stim/MorphM2_00_orig.jpg,20,,,,,,,,,0,20,20,20,,,,,,,,,,,,,,,4.8046875,-8.61328125,0,0,1,1.17231798172,,,,,2015_Nov_01_1025,G,facesParametric,22,59.6875524754,
./stim/MorphF7_09_orig.jpg,21,,,,,,,,,0,21,21,21,,,,,,,,,,,,,,,4.8046875,-8.61328125,1,0,0,1.12158083916,,,,,2015_Nov_01_1025,G,facesParametric,22,59.6875524754,
./stim/MorphM9_07_orig.jpg,22,,,,,,,,,0,22,22,22,,,,,,,,,,,,,,,4.8046875,-8.61328125,1,0,0,0.836634874344,,,,,2015_Nov_01_1025,G,facesParametric,22,59.6875524754,
./stim/MorphM3_00_orig.jpg,23,,,,,,,,,0,23,23,23,,,,,,,,,,,,,,,4.8046875,-8.61328125,1,0,0,0.669348955154,,,,,2015_Nov_01_1025,G,facesParametric,22,59.6875524754,
./stim/MorphM2_04_orig.jpg,24,,,,,,,,,0,24,24,24,,,,,,,,,,,,,,,4.8046875,-8.61328125,1,0,0,1.32318997383,,,,,2015_Nov_01_1025,G,facesParametric,22,59.6875524754,
./stim/MorphM7_06_orig.jpg,25,,,,,,,,,0,25,25,25,,,,,,,,,,,,,,,4.8046875,-8.61328125,1,0,0,0.618468046188,,,,,2015_Nov_01_1025,G,facesParametric,22,59.6875524754,
./stim/MorphM5_08_orig.jpg,26,,,,,,,,,0,26,26,26,,,,,,,,,,,,,,,4.8046875,-8.61328125,1,0,0,0.736037969589,,,,,2015_Nov_01_1025,G,facesParametric,22,59.6875524754,
./stim/MorphM4_09_orig.jpg,27,,,,,,,,,0,27,27,27,,,,,,,,,,,,,,,4.8046875,-8.61328125,1,0,0,0.618775129318,,,,,2015_Nov_01_1025,G,facesParametric,22,59.6875524754,
./stim/MorphF3_06_orig.jpg,28,,,,,,,,,0,28,28,28,,,,,,,,,,,,,,,4.8046875,-8.61328125,1,0,0,0.737342119217,,,,,2015_Nov_01_1025,G,facesParametric,22,59.6875524754,
./stim/MorphF4_07_orig.jpg,29,,,,,,,,,0,29,29,29,,,,,,,,,,,,,,,4.8046875,-8.61328125,1,0,0,0.869276046753,,,,,2015_Nov_01_1025,G,facesParametric,22,59.6875524754,
./stim/MorphF3_05_orig.jpg,30,,,,,,,,,0,30,30,30,,,,,,,,,,,,,,,4.8046875,-8.61328125,1,0,0,0.853576898575,,,,,2015_Nov_01_1025,G,facesParametric,22,59.6875524754,
./stim/MorphM4_00_orig.jpg,31,,,,,,,,,0,31,31,31,,,,,,,,,,,,,,,4.8046875,-8.61328125,1,0,0,0.718508005142,,,,,2015_Nov_01_1025,G,facesParametric,22,59.6875524754,
./stim/MorphF7_02_orig.jpg,32,,,,,,,,,0,32,32,32,,,,,,,,,,,,,,,4.8046875,-8.61328125,1,0,0,0.902277946472,,,,,2015_Nov_01_1025,G,facesParametric,22,59.6875524754,
./stim/MorphF9_07_orig.jpg,33,,,,,,,,,0,33,33,33,,,,,,,,,,,,,,,4.8046875,-8.61328125,1,0,0,0.81911611557,,,,,2015_Nov_01_1025,G,facesParametric,22,59.6875524754,
./stim/MorphF2_00_orig.jpg,34,,,,,,,,,0,34,34,34,,,,,,,,,,,,,,,4.8046875,-8.61328125,0,0,1,2.07610201836,,,,,2015_Nov_01_1025,G,facesParametric,22,59.6875524754,
./stim/MorphM2_06_orig.jpg,35,,,,,,,,,0,35,35,35,,,,,,,,,,,,,,,4.8046875,-8.61328125,1,0,0,1.35461306572,,,,,2015_Nov_01_1025,G,facesParametric,22,59.6875524754,
./stim/MorphF8_08_orig.jpg,36,,,,,,,,,0,36,36,36,,,,,,,,,,,,,,,4.8046875,-8.61328125,1,0,0,1.08795785904,,,,,2015_Nov_01_1025,G,facesParametric,22,59.6875524754,
./stim/MorphF7_10_orig.jpg,37,,,,,,,,,0,37,37,37,,,,,,,,,,,,,,,4.8046875,-8.61328125,1,0,0,0.602449893951,,,,,2015_Nov_01_1025,G,facesParametric,22,59.6875524754,
./stim/MorphF2_08_orig.jpg,38,,,,,,,,,0,38,38,38,,,,,,,,,,,,,,,4.8046875,-8.61328125,1,0,0,0.71922492981,,,,,2015_Nov_01_1025,G,facesParametric,22,59.6875524754,
./stim/MorphM3_04_orig.jpg,39,,,,,,,,,0,39,39,39,,,,,,,,,,,,,,,4.8046875,-8.61328125,1,0,0,0.735949039459,,,,,2015_Nov_01_1025,G,facesParametric,22,59.6875524754,
./stim/MorphF1_02_orig.jpg,40,,,,,,,,,0,40,40,40,,,,,,,,,,,,,,,4.8046875,-8.61328125,0,0,1,1.38884186745,,,,,2015_Nov_01_1025,G,facesParametric,22,59.6875524754,
./stim/MorphF9_04_orig.jpg,41,,,,,,,,,0,41,41,41,,,,,,,,,,,,,,,4.8046875,-8.61328125,0,0,1,3.53440904617,,,,,2015_Nov_01_1025,G,facesParametric,22,59.6875524754,
./stim/MorphM4_06_orig.jpg,42,,,,,,,,,0,42,42,42,,,,,,,,,,,,,,,4.8046875,-8.61328125,1,0,0,1.12145900726,,,,,2015_Nov_01_1025,G,facesParametric,22,59.6875524754,
./stim/MorphM1_08_orig.jpg,43,,,,,,,,,0,43,43,43,,,,,,,,,,,,,,,4.8046875,-8.61328125,1,0,0,0.753200054169,,,,,2015_Nov_01_1025,G,facesParametric,22,59.6875524754,
./stim/MorphF3_04_orig.jpg,44,,,,,,,,,0,44,44,44,,,,,,,,,,,,,,,4.8046875,-8.61328125,1,0,0,0.767462015152,,,,,2015_Nov_01_1025,G,facesParametric,22,59.6875524754,
./stim/MorphF10_02_orig.jpg,45,,,,,,,,,0,45,45,45,,,,,,,,,,,,,,,4.8046875,-8.61328125,1,0,0,1.05462312698,,,,,2015_Nov_01_1025,G,facesParametric,22,59.6875524754,
./stim/MorphF4_05_orig.jpg,46,,,,,,,,,0,46,46,46,,,,,,,,,,,,,,,4.8046875,-8.61328125,0,0,1,2.26043009758,,,,,2015_Nov_01_1025,G,facesParametric,22,59.6875524754,
./stim/MorphM3_08_orig.jpg,47,,,,,,,,,0,47,47,47,,,,,,,,,,,,,,,4.8046875,-8.61328125,1,0,0,1.37310099602,,,,,2015_Nov_01_1025,G,facesParametric,22,59.6875524754,
./stim/MorphM7_04_orig.jpg,48,,,,,,,,,0,48,48,48,,,,,,,,,,,,,,,4.8046875,-8.61328125,1,0,0,1.03590893745,,,,,2015_Nov_01_1025,G,facesParametric,22,59.6875524754,
./stim/MorphF10_08_orig.jpg,49,,,,,,,,,0,49,49,49,,,,,,,,,,,,,,,4.8046875,-8.61328125,1,0,0,0.735681056976,,,,,2015_Nov_01_1025,G,facesParametric,22,59.6875524754,
./stim/MorphM10_09_orig.jpg,50,,,,,,,,,0,50,50,50,,,,,,,,,,,,,,,4.8046875,-8.61328125,1,0,0,0.568659067154,,,,,2015_Nov_01_1025,G,facesParametric,22,59.6875524754,
./stim/MorphF1_10_orig.jpg,51,,,,,,,,,0,51,51,51,,,,,,,,,,,,,,,4.8046875,-8.61328125,1,0,0,0.702450037003,,,,,2015_Nov_01_1025,G,facesParametric,22,59.6875524754,
./stim/MorphF10_06_orig.jpg,52,,,,,,,,,0,52,52,52,,,,,,,,,,,,,,,4.8046875,-8.61328125,1,0,0,0.618840932846,,,,,2015_Nov_01_1025,G,facesParametric,22,59.6875524754,
./stim/MorphM5_10_orig.jpg,53,,,,,,,,,0,53,53,53,,,,,,,,,,,,,,,4.8046875,-8.61328125,1,0,0,0.685994148254,,,,,2015_Nov_01_1025,G,facesParametric,22,59.6875524754,
./stim/MorphF2_06_orig.jpg,54,,,,,,,,,0,54,54,54,,,,,,,,,,,,,,,4.8046875,-8.61328125,1,0,0,0.719616174698,,,,,2015_Nov_01_1025,G,facesParametric,22,59.6875524754,
./stim/MorphF4_01_orig.jpg,55,,,,,,,,,0,55,55,55,,,,,,,,,,,,,,,4.8046875,-8.61328125,0,0,1,1.1380879879,,,,,2015_Nov_01_1025,G,facesParametric,22,59.6875524754,
./stim/MorphM9_04_orig.jpg,56,,,,,,,,,0,56,56,56,,,,,,,,,,,,,,,4.8046875,-8.61328125,1,0,0,1.20515203476,,,,,2015_Nov_01_1025,G,facesParametric,22,59.6875524754,
./stim/MorphM3_01_orig.jpg,57,,,,,,,,,0,57,57,57,,,,,,,,,,,,,,,4.8046875,-8.61328125,1,0,0,0.987581968307,,,,,2015_Nov_01_1025,G,facesParametric,22,59.6875524754,
./stim/MorphF8_06_orig.jpg,58,,,,,,,,,0,58,58,58,,,,,,,,,,,,,,,4.8046875,-8.61328125,1,0,0,1.45709681511,,,,,2015_Nov_01_1025,G,facesParametric,22,59.6875524754,
./stim/MorphM7_01_orig.jpg,59,,,,,,,,,0,59,59,59,,,,,,,,,,,,,,,4.8046875,-8.61328125,1,0,0,0.617354154587,,,,,2015_Nov_01_1025,G,facesParametric,22,59.6875524754,
./stim/MorphF3_01_orig.jpg,60,,,,,,,,,0,60,60,60,,,,,,,,,,,,,,,4.8046875,-8.61328125,0,0,1,1.99242019653,,,,,2015_Nov_01_1025,G,facesParametric,22,59.6875524754,
./stim/MorphF6_09_orig.jpg,61,,,,,,,,,0,61,61,61,,,,,,,,,,,,,,,4.8046875,-8.61328125,1,0,0,2.34539890289,,,,,2015_Nov_01_1025,G,facesParametric,22,59.6875524754,
./stim/MorphM4_10_orig.jpg,62,,,,,,,,,0,62,62,62,,,,,,,,,,,,,,,4.8046875,-8.61328125,1,0,0,0.750961065292,,,,,2015_Nov_01_1025,G,facesParametric,22,59.6875524754,
./stim/MorphF7_07_orig.jpg,63,,,,,,,,,0,63,63,63,,,,,,,,,,,,,,,4.8046875,-8.61328125,1,0,0,0.669231891632,,,,,2015_Nov_01_1025,G,facesParametric,22,59.6875524754,
./stim/MorphM3_02_orig.jpg,64,,,,,,,,,0,64,64,64,,,,,,,,,,,,,,,4.8046875,-8.61328125,1,0,0,0.71941781044,,,,,2015_Nov_01_1025,G,facesParametric,22,59.6875524754,
./stim/MorphF8_09_orig.jpg,65,,,,,,,,,0,65,65,65,,,,,,,,,,,,,,,4.8046875,-8.61328125,1,0,0,0.819953918457,,,,,2015_Nov_01_1025,G,facesParametric,22,59.6875524754,
./stim/MorphM5_00_orig.jpg,66,,,,,,,,,0,66,66,66,,,,,,,,,,,,,,,4.8046875,-8.61328125,1,0,0,1.27245783806,,,,,2015_Nov_01_1025,G,facesParametric,22,59.6875524754,
./stim/MorphF3_09_orig.jpg,67,,,,,,,,,0,67,67,67,,,,,,,,,,,,,,,4.8046875,-8.61328125,1,0,0,0.719405889511,,,,,2015_Nov_01_1025,G,facesParametric,22,59.6875524754,
./stim/MorphF2_05_orig.jpg,68,,,,,,,,,0,68,68,68,,,,,,,,,,,,,,,4.8046875,-8.61328125,1,0,0,0.736441850662,,,,,2015_Nov_01_1025,G,facesParametric,22,59.6875524754,
./stim/MorphM3_09_orig.jpg,69,,,,,,,,,0,69,69,69,,,,,,,,,,,,,,,4.8046875,-8.61328125,1,0,0,0.66881108284,,,,,2015_Nov_01_1025,G,facesParametric,22,59.6875524754,
./stim/MorphM1_02_orig.jpg,70,,,,,,,,,0,70,70,70,,,,,,,,,,,,,,,4.8046875,-8.61328125,0,0,1,1.38951182365,,,,,2015_Nov_01_1025,G,facesParametric,22,59.6875524754,
./stim/MorphF6_01_orig.jpg,71,,,,,,,,,0,71,71,71,,,,,,,,,,,,,,,4.8046875,-8.61328125,0,0,1,1.18742418289,,,,,2015_Nov_01_1025,G,facesParametric,22,59.6875524754,
./stim/MorphF8_01_orig.jpg,72,,,,,,,,,0,72,72,72,,,,,,,,,,,,,,,4.8046875,-8.61328125,0,0,1,0.769605875015,,,,,2015_Nov_01_1025,G,facesParametric,22,59.6875524754,
./stim/MorphM8_05_orig.jpg,73,,,,,,,,,0,73,73,73,,,,,,,,,,,,,,,4.8046875,-8.61328125,1,0,0,1.12149095535,,,,,2015_Nov_01_1025,G,facesParametric,22,59.6875524754,
./stim/MorphM1_07_orig.jpg,74,,,,,,,,,0,74,74,74,,,,,,,,,,,,,,,4.8046875,-8.61328125,1,0,0,1.10414195061,,,,,2015_Nov_01_1025,G,facesParametric,22,59.6875524754,
./stim/MorphF5_03_orig.jpg,75,,,,,,,,,0,75,75,75,,,,,,,,,,,,,,,4.8046875,-8.61328125,0,0,1,1.08783507347,,,,,2015_Nov_01_1025,G,facesParametric,22,59.6875524754,
./stim/MorphM9_02_orig.jpg,76,,,,,,,,,0,76,76,76,,,,,,,,,,,,,,,4.8046875,-8.61328125,0,0,1,1.03702116013,,,,,2015_Nov_01_1025,G,facesParametric,22,59.6875524754,
./stim/MorphM8_09_orig.jpg,77,,,,,,,,,0,77,77,77,,,,,,,,,,,,,,,4.8046875,-8.61328125,1,0,0,0.921113014221,,,,,2015_Nov_01_1025,G,facesParametric,22,59.6875524754,
./stim/MorphM5_05_orig.jpg,78,,,,,,,,,0,78,78,78,,,,,,,,,,,,,,,4.8046875,-8.61328125,1,0,0,1.00203990936,,,,,2015_Nov_01_1025,G,facesParametric,22,59.6875524754,
./stim/MorphF2_03_orig.jpg,79,,,,,,,,,0,79,79,79,,,,,,,,,,,,,,,4.8046875,-8.61328125,1,0,0,0.769501209259,,,,,2015_Nov_01_1025,G,facesParametric,22,59.6875524754,
./stim/MorphF7_00_orig.jpg,80,,,,,,,,,0,80,80,80,,,,,,,,,,,,,,,4.8046875,-8.61328125,1,0,0,0.635934829712,,,,,2015_Nov_01_1025,G,facesParametric,22,59.6875524754,
./stim/MorphM9_00_orig.jpg,81,,,,,,,,,0,81,81,81,,,,,,,,,,,,,,,4.8046875,-8.61328125,0,0,1,1.30618000031,,,,,2015_Nov_01_1025,G,facesParametric,22,59.6875524754,
./stim/MorphF8_04_orig.jpg,82,,,,,,,,,0,82,82,82,,,,,,,,,,,,,,,4.8046875,-8.61328125,1,0,0,2.36215496063,,,,,2015_Nov_01_1025,G,facesParametric,22,59.6875524754,
./stim/MorphF9_08_orig.jpg,83,,,,,,,,,0,83,83,83,,,,,,,,,,,,,,,4.8046875,-8.61328125,1,0,0,0.918032884598,,,,,2015_Nov_01_1025,G,facesParametric,22,59.6875524754,
./stim/MorphF6_10_orig.jpg,84,,,,,,,,,0,84,84,84,,,,,,,,,,,,,,,4.8046875,-8.61328125,1,0,0,0.854209899902,,,,,2015_Nov_01_1025,G,facesParametric,22,59.6875524754,
./stim/MorphM5_07_orig.jpg,85,,,,,,,,,0,85,85,85,,,,,,,,,,,,,,,4.8046875,-8.61328125,1,0,0,0.76943397522,,,,,2015_Nov_01_1025,G,facesParametric,22,59.6875524754,
./stim/MorphM1_10_orig.jpg,86,,,,,,,,,0,86,86,86,,,,,,,,,,,,,,,4.8046875,-8.61328125,1,0,0,0.685137987137,,,,,2015_Nov_01_1025,G,facesParametric,22,59.6875524754,
./stim/MorphF1_07_orig.jpg,87,,,,,,,,,0,87,87,87,,,,,,,,,,,,,,,4.8046875,-8.61328125,1,0,0,0.734993219376,,,,,2015_Nov_01_1025,G,facesParametric,22,59.6875524754,
./stim/MorphM6_01_orig.jpg,88,,,,,,,,,0,88,88,88,,,,,,,,,,,,,,,4.8046875,-8.61328125,0,0,1,2.10833001137,,,,,2015_Nov_01_1025,G,facesParametric,22,59.6875524754,
./stim/MorphF3_03_orig.jpg,89,,,,,,,,,0,89,89,89,,,,,,,,,,,,,,,4.8046875,-8.61328125,1,0,0,3.1485619545,,,,,2015_Nov_01_1025,G,facesParametric,22,59.6875524754,
./stim/MorphM2_01_orig.jpg,90,,,,,,,,,0,90,90,90,,,,,,,,,,,,,,,4.8046875,-8.61328125,0,0,1,2.12746787071,,,,,2015_Nov_01_1025,G,facesParametric,22,59.6875524754,
./stim/MorphF9_02_orig.jpg,91,,,,,,,,,0,91,91,91,,,,,,,,,,,,,,,4.8046875,-8.61328125,0,0,1,0.818636894226,,,,,2015_Nov_01_1025,G,facesParametric,22,59.6875524754,
./stim/MorphF5_10_orig.jpg,92,,,,,,,,,0,92,92,92,,,,,,,,,,,,,,,4.8046875,-8.61328125,1,0,0,1.17222499847,,,,,2015_Nov_01_1025,G,facesParametric,22,59.6875524754,
./stim/MorphM1_09_orig.jpg,93,,,,,,,,,0,93,93,93,,,,,,,,,,,,,,,4.8046875,-8.61328125,1,0,0,2.64659404755,,,,,2015_Nov_01_1025,G,facesParametric,22,59.6875524754,
./stim/MorphF7_06_orig.jpg,94,,,,,,,,,0,94,94,94,,,,,,,,,,,,,,,4.8046875,-8.61328125,1,0,0,2.66359901428,,,,,2015_Nov_01_1025,G,facesParametric,22,59.6875524754,
./stim/MorphF1_09_orig.jpg,95,,,,,,,,,0,95,95,95,,,,,,,,,,,,,,,4.8046875,-8.61328125,1,0,0,2.86597108841,,,,,2015_Nov_01_1025,G,facesParametric,22,59.6875524754,
./stim/MorphF2_04_orig.jpg,96,,,,,,,,,0,96,96,96,,,,,,,,,,,,,,,4.8046875,-8.61328125,1,0,0,0.735032081604,,,,,2015_Nov_01_1025,G,facesParametric,22,59.6875524754,
./stim/MorphM8_10_orig.jpg,97,,,,,,,,,0,97,97,97,,,,,,,,,,,,,,,4.8046875,-8.61328125,1,0,0,0.719742059708,,,,,2015_Nov_01_1025,G,facesParametric,22,59.6875524754,
./stim/MorphF9_05_orig.jpg,98,,,,,,,,,0,98,98,98,,,,,,,,,,,,,,,4.8046875,-8.61328125,0,0,1,1.35613083839,,,,,2015_Nov_01_1025,G,facesParametric,22,59.6875524754,
./stim/MorphM4_07_orig.jpg,99,,,,,,,,,0,99,99,99,,,,,,,,,,,,,,,4.8046875,-8.61328125,1,0,0,1.10318613052,,,,,2015_Nov_01_1025,G,facesParametric,22,59.6875524754,
./stim/MorphF3_08_orig.jpg,100,,,,,,,,,0,100,100,100,,,,,,,,,,,,,,,4.8046875,-8.61328125,1,0,0,0.903867006302,,,,,2015_Nov_01_1025,G,facesParametric,22,59.6875524754,
./stim/MorphM10_00_orig.jpg,101,,,,,,,,,0,101,101,101,,,,,,,,,,,,,,,4.8046875,-8.61328125,0,0,1,1.42300319672,,,,,2015_Nov_01_1025,G,facesParametric,22,59.6875524754,
./stim/MorphF5_08_orig.jpg,102,,,,,,,,,0,102,102,102,,,,,,,,,,,,,,,4.8046875,-8.61328125,1,0,0,1.37166595459,,,,,2015_Nov_01_1025,G,facesParametric,22,59.6875524754,
./stim/MorphM6_06_orig.jpg,103,,,,,,,,,0,103,103,103,,,,,,,,,,,,,,,4.8046875,-8.61328125,1,0,0,2.49603891373,,,,,2015_Nov_01_1025,G,facesParametric,22,59.6875524754,
./stim/MorphF7_08_orig.jpg,104,,,,,,,,,0,104,104,104,,,,,,,,,,,,,,,4.8046875,-8.61328125,1,0,0,2.98092389107,,,,,2015_Nov_01_1025,G,facesParametric,22,59.6875524754,
./stim/MorphM4_02_orig.jpg,105,,,,,,,,,0,105,105,105,,,,,,,,,,,,,,,4.8046875,-8.61328125,1,0,0,0.703118085861,,,,,2015_Nov_01_1025,G,facesParametric,22,59.6875524754,
./stim/MorphM2_07_orig.jpg,106,,,,,,,,,0,106,106,106,,,,,,,,,,,,,,,4.8046875,-8.61328125,1,0,0,4.03754091263,,,,,2015_Nov_01_1025,G,facesParametric,22,59.6875524754,
./stim/MorphF1_06_orig.jpg,107,,,,,,,,,0,107,107,107,,,,,,,,,,,,,,,4.8046875,-8.61328125,1,0,0,4.45691609383,,,,,2015_Nov_01_1025,G,facesParametric,22,59.6875524754,
./stim/MorphF6_00_orig.jpg,108,,,,,,,,,0,108,108,108,,,,,,,,,,,,,,,4.8046875,-8.61328125,0,0,1,3.09796690941,,,,,2015_Nov_01_1025,G,facesParametric,22,59.6875524754,
./stim/MorphM4_05_orig.jpg,109,,,,,,,,,0,109,109,109,,,,,,,,,,,,,,,4.8046875,-8.61328125,1,0,0,0.987629890442,,,,,2015_Nov_01_1025,G,facesParametric,22,59.6875524754,
./stim/MorphM10_07_orig.jpg,110,,,,,,,,,0,110,110,110,,,,,,,,,,,,,,,4.8046875,-8.61328125,1,0,0,0.751700162888,,,,,2015_Nov_01_1025,G,facesParametric,22,59.6875524754,
./stim/MorphF5_00_orig.jpg,111,,,,,,,,,0,111,111,111,,,,,,,,,,,,,,,4.8046875,-8.61328125,0,0,1,2.19456505775,,,,,2015_Nov_01_1025,G,facesParametric,22,59.6875524754,
./stim/MorphF2_10_orig.jpg,112,,,,,,,,,0,112,112,112,,,,,,,,,,,,,,,4.8046875,-8.61328125,1,0,0,0.869939088821,,,,,2015_Nov_01_1025,G,facesParametric,22,59.6875524754,
./stim/MorphF10_00_orig.jpg,113,,,,,,,,,0,113,113,113,,,,,,,,,,,,,,,4.8046875,-8.61328125,0,0,1,1.55752110481,,,,,2015_Nov_01_1025,G,facesParametric,22,59.6875524754,
./stim/MorphM3_10_orig.jpg,114,,,,,,,,,0,114,114,114,,,,,,,,,,,,,,,4.8046875,-8.61328125,1,0,0,0.987292051315,,,,,2015_Nov_01_1025,G,facesParametric,22,59.6875524754,
./stim/MorphM9_09_orig.jpg,115,,,,,,,,,0,115,115,115,,,,,,,,,,,,,,,4.8046875,-8.61328125,1,0,0,0.753047943115,,,,,2015_Nov_01_1025,G,facesParametric,22,59.6875524754,
./stim/MorphM5_09_orig.jpg,116,,,,,,,,,0,116,116,116,,,,,,,,,,,,,,,4.8046875,-8.61328125,1,0,0,0.718623876572,,,,,2015_Nov_01_1025,G,facesParametric,22,59.6875524754,
./stim/MorphM10_02_orig.jpg,117,,,,,,,,,0,117,117,117,,,,,,,,,,,,,,,4.8046875,-8.61328125,1,0,0,1.40440011024,,,,,2015_Nov_01_1025,G,facesParametric,22,59.6875524754,
./stim/MorphM9_10_orig.jpg,118,,,,,,,,,0,118,118,118,,,,,,,,,,,,,,,4.8046875,-8.61328125,1,0,0,0.750674962997,,,,,2015_Nov_01_1025,G,facesParametric,22,59.6875524754,
./stim/MorphM6_10_orig.jpg,119,,,,,,,,,0,119,119,119,,,,,,,,,,,,,,,4.8046875,-8.61328125,1,0,0,0.702476024628,,,,,2015_Nov_01_1025,G,facesParametric,22,59.6875524754,
./stim/MorphM10_06_orig.jpg,120,,,,,,,,,0,120,120,120,,,,,,,,,,,,,,,4.8046875,-8.61328125,1,0,0,0.802851915359,,,,,2015_Nov_01_1025,G,facesParametric,22,59.6875524754,
./stim/MorphF4_09_orig.jpg,121,,,,,,,,,0,121,121,121,,,,,,,,,,,,,,,4.8046875,-8.61328125,1,0,0,1.02106285095,,,,,2015_Nov_01_1025,G,facesParametric,22,59.6875524754,
./stim/MorphM3_03_orig.jpg,122,,,,,,,,,0,122,122,122,,,,,,,,,,,,,,,4.8046875,-8.61328125,1,0,0,1.69142413139,,,,,2015_Nov_01_1025,G,facesParametric,22,59.6875524754,
./stim/MorphF4_04_orig.jpg,123,,,,,,,,,0,123,123,123,,,,,,,,,,,,,,,4.8046875,-8.61328125,0,0,1,1.72455501556,,,,,2015_Nov_01_1025,G,facesParametric,22,59.6875524754,
./stim/MorphF6_03_orig.jpg,124,,,,,,,,,0,124,124,124,,,,,,,,,,,,,,,4.8046875,-8.61328125,0,0,1,1.95847201347,,,,,2015_Nov_01_1025,G,facesParametric,22,59.6875524754,
./stim/MorphF1_04_orig.jpg,125,,,,,,,,,0,125,125,125,,,,,,,,,,,,,,,4.8046875,-8.61328125,1,0,0,1.9094581604,,,,,2015_Nov_01_1025,G,facesParametric,22,59.6875524754,
./stim/MorphM6_02_orig.jpg,126,,,,,,,,,0,126,126,126,,,,,,,,,,,,,,,4.8046875,-8.61328125,0,0,1,2.52902007103,,,,,2015_Nov_01_1025,G,facesParametric,22,59.6875524754,
./stim/MorphF7_03_orig.jpg,127,,,,,,,,,0,127,127,127,,,,,,,,,,,,,,,4.8046875,-8.61328125,0,0,1,2.64580106735,,,,,2015_Nov_01_1025,G,facesParametric,22,59.6875524754,
./stim/MorphF9_03_orig.jpg,128,,,,,,,,,0,128,128,128,,,,,,,,,,,,,,,4.8046875,-8.61328125,0,0,1,1.30665707588,,,,,2015_Nov_01_1025,G,facesParametric,22,59.6875524754,
./stim/MorphF5_05_orig.jpg,129,,,,,,,,,0,129,129,129,,,,,,,,,,,,,,,4.8046875,-8.61328125,0,0,1,1.20474791527,,,,,2015_Nov_01_1025,G,facesParametric,22,59.6875524754,
./stim/MorphF9_09_orig.jpg,130,,,,,,,,,0,130,130,130,,,,,,,,,,,,,,,4.8046875,-8.61328125,1,0,0,2.57773685455,,,,,2015_Nov_01_1025,G,facesParametric,22,59.6875524754,
./stim/MorphM6_09_orig.jpg,131,,,,,,,,,0,131,131,131,,,,,,,,,,,,,,,4.8046875,-8.61328125,1,0,0,0.803431987762,,,,,2015_Nov_01_1025,G,facesParametric,22,59.6875524754,
./stim/MorphF10_05_orig.jpg,132,,,,,,,,,0,132,132,132,,,,,,,,,,,,,,,4.8046875,-8.61328125,1,0,0,0.98726606369,,,,,2015_Nov_01_1025,G,facesParametric,22,59.6875524754,
./stim/MorphF4_08_orig.jpg,133,,,,,,,,,0,133,133,133,,,,,,,,,,,,,,,4.8046875,-8.61328125,1,0,0,0.954388141632,,,,,2015_Nov_01_1025,G,facesParametric,22,59.6875524754,
./stim/MorphF9_00_orig.jpg,134,,,,,,,,,0,134,134,134,,,,,,,,,,,,,,,4.8046875,-8.61328125,0,0,1,1.55676102638,,,,,2015_Nov_01_1025,G,facesParametric,22,59.6875524754,
./stim/MorphM10_03_orig.jpg,135,,,,,,,,,0,135,135,135,,,,,,,,,,,,,,,4.8046875,-8.61328125,1,0,0,2.67883896828,,,,,2015_Nov_01_1025,G,facesParametric,22,59.6875524754,
./stim/MorphF6_06_orig.jpg,136,,,,,,,,,0,136,136,136,,,,,,,,,,,,,,,4.8046875,-8.61328125,1,0,0,0.819880008698,,,,,2015_Nov_01_1025,G,facesParametric,22,59.6875524754,
./stim/MorphM7_00_orig.jpg,137,,,,,,,,,0,137,137,137,,,,,,,,,,,,,,,4.8046875,-8.61328125,1,0,0,0.735380172729,,,,,2015_Nov_01_1025,G,facesParametric,22,59.6875524754,
./stim/MorphF6_05_orig.jpg,138,,,,,,,,,0,138,138,138,,,,,,,,,,,,,,,4.8046875,-8.61328125,1,0,0,1.47368502617,,,,,2015_Nov_01_1025,G,facesParametric,22,59.6875524754,
./stim/MorphM6_03_orig.jpg,139,,,,,,,,,0,139,139,139,,,,,,,,,,,,,,,4.8046875,-8.61328125,1,0,0,0.734891891479,,,,,2015_Nov_01_1025,G,facesParametric,22,59.6875524754,
./stim/MorphF9_10_orig.jpg,140,,,,,,,,,0,140,140,140,,,,,,,,,,,,,,,4.8046875,-8.61328125,1,0,0,0.65247297287,,,,,2015_Nov_01_1025,G,facesParametric,22,59.6875524754,
./stim/MorphF4_10_orig.jpg,141,,,,,,,,,0,141,141,141,,,,,,,,,,,,,,,4.8046875,-8.61328125,1,0,0,0.870237827301,,,,,2015_Nov_01_1025,G,facesParametric,22,59.6875524754,
./stim/MorphM8_00_orig.jpg,142,,,,,,,,,0,142,142,142,,,,,,,,,,,,,,,4.8046875,-8.61328125,1,0,0,0.937546014786,,,,,2015_Nov_01_1025,G,facesParametric,22,59.6875524754,
./stim/MorphM6_07_orig.jpg,143,,,,,,,,,0,143,143,143,,,,,,,,,,,,,,,4.8046875,-8.61328125,1,0,0,0.753807067871,,,,,2015_Nov_01_1025,G,facesParametric,22,59.6875524754,
./stim/MorphF4_02_orig.jpg,144,,,,,,,,,0,144,144,144,,,,,,,,,,,,,,,4.8046875,-8.61328125,0,0,1,1.3207681179,,,,,2015_Nov_01_1025,G,facesParametric,22,59.6875524754,
./stim/MorphF1_01_orig.jpg,145,,,,,,,,,0,145,145,145,,,,,,,,,,,,,,,4.8046875,-8.61328125,1,0,0,2.44482803345,,,,,2015_Nov_01_1025,G,facesParametric,22,59.6875524754,
./stim/MorphM8_02_orig.jpg,146,,,,,,,,,0,146,146,146,,,,,,,,,,,,,,,4.8046875,-8.61328125,1,0,0,3.68583297729,,,,,2015_Nov_01_1025,G,facesParametric,22,59.6875524754,
./stim/MorphF8_00_orig.jpg,147,,,,,,,,,0,147,147,147,,,,,,,,,,,,,,,4.8046875,-8.61328125,0,0,1,1.07145881653,,,,,2015_Nov_01_1025,G,facesParametric,22,59.6875524754,
./stim/MorphF1_05_orig.jpg,148,,,,,,,,,0,148,148,148,,,,,,,,,,,,,,,4.8046875,-8.61328125,1,0,0,0.837521076202,,,,,2015_Nov_01_1025,G,facesParametric,22,59.6875524754,
./stim/MorphM1_05_orig.jpg,149,,,,,,,,,0,149,149,149,,,,,,,,,,,,,,,4.8046875,-8.61328125,1,0,0,0.868067979813,,,,,2015_Nov_01_1025,G,facesParametric,22,59.6875524754,
./stim/MorphM4_08_orig.jpg,150,,,,,,,,,0,150,150,150,,,,,,,,,,,,,,,4.8046875,-8.61328125,1,0,0,0.869901895523,,,,,2015_Nov_01_1025,G,facesParametric,22,59.6875524754,
./stim/MorphM8_04_orig.jpg,151,,,,,,,,,0,151,151,151,,,,,,,,,,,,,,,4.8046875,-8.61328125,1,0,0,1.13823413849,,,,,2015_Nov_01_1025,G,facesParametric,22,59.6875524754,
./stim/MorphF8_10_orig.jpg,152,,,,,,,,,0,152,152,152,,,,,,,,,,,,,,,4.8046875,-8.61328125,1,0,0,0.702807188034,,,,,2015_Nov_01_1025,G,facesParametric,22,59.6875524754,
./stim/MorphM1_01_orig.jpg,153,,,,,,,,,0,153,153,153,,,,,,,,,,,,,,,4.8046875,-8.61328125,1,0,0,0.685573101044,,,,,2015_Nov_01_1025,G,facesParametric,22,59.6875524754,
./stim/MorphF2_07_orig.jpg,154,,,,,,,,,0,154,154,154,,,,,,,,,,,,,,,4.8046875,-8.61328125,1,0,0,0.669317007065,,,,,2015_Nov_01_1025,G,facesParametric,22,59.6875524754,
./stim/MorphF10_09_orig.jpg,155,,,,,,,,,0,155,155,155,,,,,,,,,,,,,,,4.8046875,-8.61328125,1,0,0,0.818660020828,,,,,2015_Nov_01_1025,G,facesParametric,22,59.6875524754,
./stim/MorphF5_06_orig.jpg,156,,,,,,,,,0,156,156,156,,,,,,,,,,,,,,,4.8046875,-8.61328125,1,0,0,0.685863018036,,,,,2015_Nov_01_1025,G,facesParametric,22,59.6875524754,
./stim/MorphF10_03_orig.jpg,157,,,,,,,,,0,157,157,157,,,,,,,,,,,,,,,4.8046875,-8.61328125,1,0,0,0.650371074677,,,,,2015_Nov_01_1025,G,facesParametric,22,59.6875524754,
./stim/MorphM7_02_orig.jpg,158,,,,,,,,,0,158,158,158,,,,,,,,,,,,,,,4.8046875,-8.61328125,1,0,0,1.40615606308,,,,,2015_Nov_01_1025,G,facesParametric,22,59.6875524754,
./stim/MorphM5_02_orig.jpg,159,,,,,,,,,0,159,159,159,,,,,,,,,,,,,,,4.8046875,-8.61328125,1,0,0,0.703363895416,,,,,2015_Nov_01_1025,G,facesParametric,22,59.6875524754,
./stim/MorphF5_02_orig.jpg,160,,,,,,,,,0,160,160,160,,,,,,,,,,,,,,,4.8046875,-8.61328125,1,0,0,1.08734416962,,,,,2015_Nov_01_1025,G,facesParametric,22,59.6875524754,
./stim/MorphF10_01_orig.jpg,161,,,,,,,,,0,161,161,161,,,,,,,,,,,,,,,4.8046875,-8.61328125,0,0,1,2.27832198143,,,,,2015_Nov_01_1025,G,facesParametric,22,59.6875524754,
./stim/MorphF6_02_orig.jpg,162,,,,,,,,,0,162,162,162,,,,,,,,,,,,,,,4.8046875,-8.61328125,0,0,1,1.00426077843,,,,,2015_Nov_01_1025,G,facesParametric,22,59.6875524754,
./stim/MorphF1_00_orig.jpg,163,,,,,,,,,0,163,163,163,,,,,,,,,,,,,,,4.8046875,-8.61328125,1,0,0,0.768066883087,,,,,2015_Nov_01_1025,G,facesParametric,22,59.6875524754,
./stim/MorphF9_01_orig.jpg,164,,,,,,,,,0,164,164,164,,,,,,,,,,,,,,,4.8046875,-8.61328125,0,0,1,0.903837919235,,,,,2015_Nov_01_1025,G,facesParametric,22,59.6875524754,
./stim/MorphF2_02_orig.jpg,165,,,,,,,,,0,165,165,165,,,,,,,,,,,,,,,4.8046875,-8.61328125,1,0,0,0.717829942703,,,,,2015_Nov_01_1025,G,facesParametric,22,59.6875524754,
./stim/MorphM6_08_orig.jpg,166,,,,,,,,,0,166,166,166,,,,,,,,,,,,,,,4.8046875,-8.61328125,1,0,0,0.734086036682,,,,,2015_Nov_01_1025,G,facesParametric,22,59.6875524754,
./stim/MorphF4_00_orig.jpg,167,,,,,,,,,0,167,167,167,,,,,,,,,,,,,,,4.8046875,-8.61328125,0,0,1,0.987694978714,,,,,2015_Nov_01_1025,G,facesParametric,22,59.6875524754,
./stim/MorphM1_06_orig.jpg,168,,,,,,,,,0,168,168,168,,,,,,,,,,,,,,,4.8046875,-8.61328125,1,0,0,0.786551952362,,,,,2015_Nov_01_1025,G,facesParametric,22,59.6875524754,
./stim/MorphM10_05_orig.jpg,169,,,,,,,,,0,169,169,169,,,,,,,,,,,,,,,4.8046875,-8.61328125,1,0,0,0.652323007584,,,,,2015_Nov_01_1025,G,facesParametric,22,59.6875524754,
./stim/MorphF5_09_orig.jpg,170,,,,,,,,,0,170,170,170,,,,,,,,,,,,,,,4.8046875,-8.61328125,1,0,0,0.668073892593,,,,,2015_Nov_01_1025,G,facesParametric,22,59.6875524754,
./stim/MorphM5_01_orig.jpg,171,,,,,,,,,0,171,171,171,,,,,,,,,,,,,,,4.8046875,-8.61328125,1,0,0,0.618949890137,,,,,2015_Nov_01_1025,G,facesParametric,22,59.6875524754,
./stim/MorphM6_04_orig.jpg,172,,,,,,,,,0,172,172,172,,,,,,,,,,,,,,,4.8046875,-8.61328125,1,0,0,0.769602775574,,,,,2015_Nov_01_1025,G,facesParametric,22,59.6875524754,
./stim/MorphM4_04_orig.jpg,173,,,,,,,,,0,173,173,173,,,,,,,,,,,,,,,4.8046875,-8.61328125,1,0,0,0.686052083969,,,,,2015_Nov_01_1025,G,facesParametric,22,59.6875524754,
./stim/MorphM9_06_orig.jpg,174,,,,,,,,,0,174,174,174,,,,,,,,,,,,,,,4.8046875,-8.61328125,1,0,0,0.97058391571,,,,,2015_Nov_01_1025,G,facesParametric,22,59.6875524754,
./stim/MorphM10_04_orig.jpg,175,,,,,,,,,0,175,175,175,,,,,,,,,,,,,,,4.8046875,-8.61328125,1,0,0,1.10513305664,,,,,2015_Nov_01_1025,G,facesParametric,22,59.6875524754,
./stim/MorphF7_01_orig.jpg,176,,,,,,,,,0,176,176,176,,,,,,,,,,,,,,,4.8046875,-8.61328125,1,0,0,1.30612277985,,,,,2015_Nov_01_1025,G,facesParametric,22,59.6875524754,
./stim/MorphM1_03_orig.jpg,177,,,,,,,,,0,177,177,177,,,,,,,,,,,,,,,4.8046875,-8.61328125,1,0,0,0.752897977829,,,,,2015_Nov_01_1025,G,facesParametric,22,59.6875524754,
./stim/MorphF3_02_orig.jpg,178,,,,,,,,,0,178,178,178,,,,,,,,,,,,,,,4.8046875,-8.61328125,1,0,0,1.1533870697,,,,,2015_Nov_01_1025,G,facesParametric,22,59.6875524754,
./stim/MorphF6_04_orig.jpg,179,,,,,,,,,0,179,179,179,,,,,,,,,,,,,,,4.8046875,-8.61328125,1,0,0,1.75737595558,,,,,2015_Nov_01_1025,G,facesParametric,22,59.6875524754,
./stim/MorphM9_08_orig.jpg,180,,,,,,,,,0,180,180,180,,,,,,,,,,,,,,,4.8046875,-8.61328125,1,0,0,0.633322954178,,,,,2015_Nov_01_1025,G,facesParametric,22,59.6875524754,
./stim/MorphM7_10_orig.jpg,181,,,,,,,,,0,181,181,181,,,,,,,,,,,,,,,4.8046875,-8.61328125,1,0,0,2.88157105446,,,,,2015_Nov_01_1025,G,facesParametric,22,59.6875524754,
./stim/MorphF10_10_orig.jpg,182,,,,,,,,,0,182,182,182,,,,,,,,,,,,,,,4.8046875,-8.61328125,1,0,0,0.784511089325,,,,,2015_Nov_01_1025,G,facesParametric,22,59.6875524754,
./stim/MorphF6_07_orig.jpg,183,,,,,,,,,0,183,183,183,,,,,,,,,,,,,,,4.8046875,-8.61328125,1,0,0,0.752078056335,,,,,2015_Nov_01_1025,G,facesParametric,22,59.6875524754,
./stim/MorphF8_05_orig.jpg,184,,,,,,,,,0,184,184,184,,,,,,,,,,,,,,,4.8046875,-8.61328125,1,0,0,0.61918592453,,,,,2015_Nov_01_1025,G,facesParametric,22,59.6875524754,
./stim/MorphM6_00_orig.jpg,185,,,,,,,,,0,185,185,185,,,,,,,,,,,,,,,4.8046875,-8.61328125,1,0,0,0.619035005569,,,,,2015_Nov_01_1025,G,facesParametric,22,59.6875524754,
./stim/MorphM2_02_orig.jpg,186,,,,,,,,,0,186,186,186,,,,,,,,,,,,,,,4.8046875,-8.61328125,1,0,0,1.05445313454,,,,,2015_Nov_01_1025,G,facesParametric,22,59.6875524754,
./stim/MorphM8_06_orig.jpg,187,,,,,,,,,0,187,187,187,,,,,,,,,,,,,,,4.8046875,-8.61328125,1,0,0,0.685515880585,,,,,2015_Nov_01_1025,G,facesParametric,22,59.6875524754,
./stim/MorphM3_06_orig.jpg,188,,,,,,,,,0,188,188,188,,,,,,,,,,,,,,,4.8046875,-8.61328125,1,0,0,0.652943849564,,,,,2015_Nov_01_1025,G,facesParametric,22,59.6875524754,
./stim/MorphM9_03_orig.jpg,189,,,,,,,,,0,189,189,189,,,,,,,,,,,,,,,4.8046875,-8.61328125,1,0,0,1.10448408127,,,,,2015_Nov_01_1025,G,facesParametric,22,59.6875524754,
./stim/MorphM1_04_orig.jpg,190,,,,,,,,,0,190,190,190,,,,,,,,,,,,,,,4.8046875,-8.61328125,1,0,0,1.45683097839,,,,,2015_Nov_01_1025,G,facesParametric,22,59.6875524754,
./stim/MorphM2_09_orig.jpg,191,,,,,,,,,0,191,191,191,,,,,,,,,,,,,,,4.8046875,-8.61328125,1,0,0,0.669425964355,,,,,2015_Nov_01_1025,G,facesParametric,22,59.6875524754,
./stim/MorphF3_07_orig.jpg,192,,,,,,,,,0,192,192,192,,,,,,,,,,,,,,,4.8046875,-8.61328125,1,0,0,0.853312015533,,,,,2015_Nov_01_1025,G,facesParametric,22,59.6875524754,
./stim/MorphF5_01_orig.jpg,193,,,,,,,,,0,193,193,193,,,,,,,,,,,,,,,4.8046875,-8.61328125,1,0,0,1.80750894547,,,,,2015_Nov_01_1025,G,facesParametric,22,59.6875524754,
./stim/MorphM9_01_orig.jpg,194,,,,,,,,,0,194,194,194,,,,,,,,,,,,,,,4.8046875,-8.61328125,1,0,0,1.59063601494,,,,,2015_Nov_01_1025,G,facesParametric,22,59.6875524754,
./stim/MorphM7_08_orig.jpg,195,,,,,,,,,0,195,195,195,,,,,,,,,,,,,,,4.8046875,-8.61328125,1,0,0,0.652546882629,,,,,2015_Nov_01_1025,G,facesParametric,22,59.6875524754,
./stim/MorphM5_04_orig.jpg,196,,,,,,,,,0,196,196,196,,,,,,,,,,,,,,,4.8046875,-8.61328125,1,0,0,2.07474017143,,,,,2015_Nov_01_1025,G,facesParametric,22,59.6875524754,
./stim/MorphM9_05_orig.jpg,197,,,,,,,,,0,197,197,197,,,,,,,,,,,,,,,4.8046875,-8.61328125,1,0,0,1.44000792503,,,,,2015_Nov_01_1025,G,facesParametric,22,59.6875524754,
./stim/MorphM7_09_orig.jpg,198,,,,,,,,,0,198,198,198,,,,,,,,,,,,,,,4.8046875,-8.61328125,1,0,0,0.685842037201,,,,,2015_Nov_01_1025,G,facesParametric,22,59.6875524754,
./stim/MorphM8_07_orig.jpg,199,,,,,,,,,0,199,199,199,,,,,,,,,,,,,,,4.8046875,-8.61328125,1,0,0,0.73631310463,,,,,2015_Nov_01_1025,G,facesParametric,22,59.6875524754,
./stim/MorphM5_06_orig.jpg,200,,,,,,,,,0,200,200,200,,,,,,,,,,,,,,,4.8046875,-8.61328125,1,0,0,0.71763420105,,,,,2015_Nov_01_1025,G,facesParametric,22,59.6875524754,
./stim/MorphM10_10_orig.jpg,201,,,,,,,,,0,201,201,201,,,,,,,,,,,,,,,4.8046875,-8.61328125,1,0,0,0.585187911987,,,,,2015_Nov_01_1025,G,facesParametric,22,59.6875524754,
./stim/MorphF7_05_orig.jpg,202,,,,,,,,,0,202,202,202,,,,,,,,,,,,,,,4.8046875,-8.61328125,1,0,0,0.819863080978,,,,,2015_Nov_01_1025,G,facesParametric,22,59.6875524754,
./stim/MorphF5_07_orig.jpg,203,,,,,,,,,0,203,203,203,,,,,,,,,,,,,,,4.8046875,-8.61328125,1,0,0,0.701701879501,,,,,2015_Nov_01_1025,G,facesParametric,22,59.6875524754,
./stim/MorphF1_03_orig.jpg,204,,,,,,,,,0,204,204,204,,,,,,,,,,,,,,,4.8046875,-8.61328125,0,0,1,1.94174790382,,,,,2015_Nov_01_1025,G,facesParametric,22,59.6875524754,
./stim/MorphM4_01_orig.jpg,205,,,,,,,,,0,205,205,205,,,,,,,,,,,,,,,4.8046875,-8.61328125,0,0,1,1.95846199989,,,,,2015_Nov_01_1025,G,facesParametric,22,59.6875524754,
./stim/MorphM8_03_orig.jpg,206,,,,,,,,,0,206,206,206,,,,,,,,,,,,,,,4.8046875,-8.61328125,1,0,0,0.685368061066,,,,,2015_Nov_01_1025,G,facesParametric,22,59.6875524754,
./stim/MorphM1_00_orig.jpg,207,,,,,,,,,0,207,207,207,,,,,,,,,,,,,,,4.8046875,-8.61328125,0,0,1,1.1385679245,,,,,2015_Nov_01_1025,G,facesParametric,22,59.6875524754,
./stim/MorphM7_07_orig.jpg,208,,,,,,,,,0,208,208,208,,,,,,,,,,,,,,,4.8046875,-8.61328125,1,0,0,0.666794061661,,,,,2015_Nov_01_1025,G,facesParametric,22,59.6875524754,
./stim/MorphM4_03_orig.jpg,209,,,,,,,,,0,209,209,209,,,,,,,,,,,,,,,4.8046875,-8.61328125,1,0,0,0.853604078293,,,,,2015_Nov_01_1025,G,facesParametric,22,59.6875524754,
./stim/MorphM7_03_orig.jpg,210,,,,,,,,,0,210,210,210,,,,,,,,,,,,,,,4.8046875,-8.61328125,1,0,0,0.568372011185,,,,,2015_Nov_01_1025,G,facesParametric,22,59.6875524754,
./stim/MorphF3_00_orig.jpg,211,,,,,,,,,0,211,211,211,,,,,,,,,,,,,,,4.8046875,-8.61328125,1,0,0,0.669588088989,,,,,2015_Nov_01_1025,G,facesParametric,22,59.6875524754,
./stim/MorphM7_05_orig.jpg,212,,,,,,,,,0,212,212,212,,,,,,,,,,,,,,,4.8046875,-8.61328125,1,0,0,1.47354316711,,,,,2015_Nov_01_1025,G,facesParametric,22,59.6875524754,
./stim/MorphF8_07_orig.jpg,213,,,,,,,,,0,213,213,213,,,,,,,,,,,,,,,4.8046875,-8.61328125,1,0,0,0.733670949936,,,,,2015_Nov_01_1025,G,facesParametric,22,59.6875524754,
./stim/MorphM8_08_orig.jpg,214,,,,,,,,,0,214,214,214,,,,,,,,,,,,,,,4.8046875,-8.61328125,1,0,0,0.685808181763,,,,,2015_Nov_01_1025,G,facesParametric,22,59.6875524754,
./stim/MorphM3_07_orig.jpg,215,,,,,,,,,0,215,215,215,,,,,,,,,,,,,,,4.8046875,-8.61328125,1,0,0,1.10519814491,,,,,2015_Nov_01_1025,G,facesParametric,22,59.6875524754,
./stim/MorphF5_04_orig.jpg,216,,,,,,,,,0,216,216,216,,,,,,,,,,,,,,,4.8046875,-8.61328125,1,0,0,0.685554027557,,,,,2015_Nov_01_1025,G,facesParametric,22,59.6875524754,
./stim/MorphF3_10_orig.jpg,217,,,,,,,,,0,217,217,217,,,,,,,,,,,,,,,4.8046875,-8.61328125,1,0,0,0.65206694603,,,,,2015_Nov_01_1025,G,facesParametric,22,59.6875524754,
./stim/MorphF8_02_orig.jpg,218,,,,,,,,,0,218,218,218,,,,,,,,,,,,,,,4.8046875,-8.61328125,1,0,0,0.935988903046,,,,,2015_Nov_01_1025,G,facesParametric,22,59.6875524754,
./stim/MorphM2_08_orig.jpg,219,,,,,,,,,0,219,219,219,,,,,,,,,,,,,,,4.8046875,-8.61328125,1,0,0,0.618852138519,,,,,2015_Nov_01_1025,G,facesParametric,22,59.6875524754,
,,,,,,,,,,,,,,,,,,,,,,,,,,,,,,,,,,,,return,26.0402498245,2015_Nov_01_1025,G,facesParametric,22,59.6875524754,
