img,num,basicLoop.thisRepN,basicLoop.thisTrialN,basicLoop.thisN,basicLoop.thisIndex,trials.thisRepN,trials.thisTrialN,trials.thisN,trials.thisIndex,trials2.thisRepN,trials2.thisTrialN,trials2.thisN,trials2.thisIndex,key_resp_2.keys,key_resp_2.rt,basicRating1.response,basicRating1.rt,basicRating2.response,basicRating2.rt,basicRating3.response,basicRating3.rt,basicRating4.response,basicRating4.rt,key_resp_3.keys,key_resp_3.rt,key_resp_4.keys,key_resp_4.rt,mouseResp.x,mouseResp.y,mouseResp.leftButton,mouseResp.midButton,mouseResp.rightButton,mouseResp.time,key_resp_5.keys,key_resp_5.rt,key_resp_7.keys,key_resp_7.rt,date,group,expName,participant,frameRate,
,,,,,,,,,,,,,,return,31.3439509869,,,,,,,,,,,,,,,,,,,,,,,2015_Nov_05_1149,G,facesParametric,23,59.3986359414,
./basicStim/09F_NE_C.jpg,,0,0,0,41,,,,,,,,,,,None,None,ANG,4.181,SUP,4.183,None,None,,,,,,,,,,,,,,,2015_Nov_05_1149,G,facesParametric,23,59.3986359414,
./basicStim/34M_SP_O.jpg,,0,1,1,75,,,,,,,,,,,HAP,2.621,None,None,None,None,None,None,,,,,,,,,,,,,,,2015_Nov_05_1149,G,facesParametric,23,59.3986359414,
./basicStim/23M_NE_C.jpg,,0,2,2,55,,,,,,,,,,,None,None,None,None,None,None,NTR,3.387,,,,,,,,,,,,,,,2015_Nov_05_1149,G,facesParametric,23,59.3986359414,
./basicStim/03F_DI_O.jpg,,0,3,3,15,,,,,,,,,,,None,None,None,None,DIS,1.953,None,None,,,,,,,,,,,,,,,2015_Nov_05_1149,G,facesParametric,23,59.3986359414,
./basicStim/06F_NE_C.jpg,,0,4,4,27,,,,,,,,,,,None,None,None,None,None,None,NTR,5.748,,,,,,,,,,,,,,,2015_Nov_05_1149,G,facesParametric,23,59.3986359414,
./basicStim/24M_AN_O.jpg,,0,5,5,56,,,,,,,,,,,None,None,ANG,3.816,None,None,None,None,,,,,,,,,,,,,,,2015_Nov_05_1149,G,facesParametric,23,59.3986359414,
./basicStim/09F_SP_O.jpg,,0,6,6,40,,,,,,,,,,,None,None,None,None,SUP,4.658,None,None,,,,,,,,,,,,,,,2015_Nov_05_1149,G,facesParametric,23,59.3986359414,
./basicStim/36M_AN_O.jpg,,0,7,7,77,,,,,,,,,,,None,None,ANG,3.426,None,None,None,None,,,,,,,,,,,,,,,2015_Nov_05_1149,G,facesParametric,23,59.3986359414,
./basicStim/28M_FE_O.jpg,,0,8,8,65,,,,,,,,,,,None,None,FEA,3.224,None,None,None,None,,,,,,,,,,,,,,,2015_Nov_05_1149,G,facesParametric,23,59.3986359414,
./basicStim/28M_AN_O.jpg,,0,9,9,63,,,,,,,,,,,None,None,ANG,5.255,None,None,None,None,,,,,,,,,,,,,,,2015_Nov_05_1149,G,facesParametric,23,59.3986359414,
./basicStim/09F_HA_O.jpg,,0,10,10,38,,,,,,,,,,,HAP,1.77,None,None,None,None,None,None,,,,,,,,,,,,,,,2015_Nov_05_1149,G,facesParametric,23,59.3986359414,
./basicStim/23M_FE_O.jpg,,0,11,11,51,,,,,,,,,,,None,None,None,None,None,None,NTR,4.49,,,,,,,,,,,,,,,2015_Nov_05_1149,G,facesParametric,23,59.3986359414,
./basicStim/24M_SP_O.jpg,,0,12,12,61,,,,,,,,,,,None,None,None,None,None,None,NTR,5.032,,,,,,,,,,,,,,,2015_Nov_05_1149,G,facesParametric,23,59.3986359414,
./basicStim/02F_AN_O.jpg,,0,13,13,7,,,,,,,,,,,None,None,ANG,3.724,None,None,None,None,,,,,,,,,,,,,,,2015_Nov_05_1149,G,facesParametric,23,59.3986359414,
./basicStim/23M_SP_O.jpg,,0,14,14,54,,,,,,,,,,,None,None,None,None,SUP,4.812,None,None,,,,,,,,,,,,,,,2015_Nov_05_1149,G,facesParametric,23,59.3986359414,
./basicStim/21M_SP_O.jpg,,0,15,15,47,,,,,,,,,,,None,None,None,None,SUP,2.854,None,None,,,,,,,,,,,,,,,2015_Nov_05_1149,G,facesParametric,23,59.3986359414,
./basicStim/24M_NE_C.jpg,,0,16,16,62,,,,,,,,,,,None,None,None,None,None,None,NTR,2.334,,,,,,,,,,,,,,,2015_Nov_05_1149,G,facesParametric,23,59.3986359414,
./basicStim/36M_HA_O.jpg,,0,17,17,80,,,,,,,,,,,HAP,1.249,None,None,None,None,None,None,,,,,,,,,,,,,,,2015_Nov_05_1149,G,facesParametric,23,59.3986359414,
./basicStim/36M_SA_C.jpg,,0,18,18,81,,,,,,,,,,,SAD,2.636,None,None,None,None,None,None,,,,,,,,,,,,,,,2015_Nov_05_1149,G,facesParametric,23,59.3986359414,
./basicStim/36M_NE_C.jpg,,0,19,19,83,,,,,,,,,,,None,None,None,None,None,None,NTR,2.064,,,,,,,,,,,,,,,2015_Nov_05_1149,G,facesParametric,23,59.3986359414,
./basicStim/36M_SP_O.jpg,,0,20,20,82,,,,,,,,,,,None,None,None,None,SUP,2.333,None,None,,,,,,,,,,,,,,,2015_Nov_05_1149,G,facesParametric,23,59.3986359414,
./basicStim/03F_SA_C.jpg,,0,21,21,18,,,,,,,,,,,None,None,None,None,None,None,NTR,16.326,,,,,,,,,,,,,,,2015_Nov_05_1149,G,facesParametric,23,59.3986359414,
./basicStim/01F_HA_O.jpg,,0,22,22,3,,,,,,,,,,,HAP,1.599,None,None,None,None,None,None,,,,,,,,,,,,,,,2015_Nov_05_1149,G,facesParametric,23,59.3986359414,
./basicStim/07F_SA_C.jpg,,0,23,23,32,,,,,,,,,,,None,None,FEA,2.019,None,None,None,None,,,,,,,,,,,,,,,2015_Nov_05_1149,G,facesParametric,23,59.3986359414,
./basicStim/23M_AN_O.jpg,,0,24,24,49,,,,,,,,,,,None,None,ANG,2.787,None,None,None,None,,,,,,,,,,,,,,,2015_Nov_05_1149,G,facesParametric,23,59.3986359414,
./basicStim/02F_HA_O.jpg,,0,25,25,10,,,,,,,,,,,HAP,1.338,None,None,None,None,None,None,,,,,,,,,,,,,,,2015_Nov_05_1149,G,facesParametric,23,59.3986359414,
./basicStim/07F_DI_O.jpg,,0,26,26,29,,,,,,,,,,,None,None,None,None,DIS,1.613,None,None,,,,,,,,,,,,,,,2015_Nov_05_1149,G,facesParametric,23,59.3986359414,
./basicStim/07F_AN_O.jpg,,0,27,27,28,,,,,,,,,,,None,None,ANG,1.318,None,None,None,None,,,,,,,,,,,,,,,2015_Nov_05_1149,G,facesParametric,23,59.3986359414,
./basicStim/02F_SP_O.jpg,,0,28,28,12,,,,,,,,,,,None,None,None,None,SUP,1.603,None,None,,,,,,,,,,,,,,,2015_Nov_05_1149,G,facesParametric,23,59.3986359414,
./basicStim/28M_HA_O.jpg,,0,29,29,66,,,,,,,,,,,HAP,1.467,None,None,None,None,None,None,,,,,,,,,,,,,,,2015_Nov_05_1149,G,facesParametric,23,59.3986359414,
./basicStim/03F_AN_O.jpg,,0,30,30,14,,,,,,,,,,,None,None,ANG,3.486,None,None,None,None,,,,,,,,,,,,,,,2015_Nov_05_1149,G,facesParametric,23,59.3986359414,
./basicStim/24M_DI_O.jpg,,0,31,31,57,,,,,,,,,,,SAD,1.185,None,None,None,None,None,None,,,,,,,,,,,,,,,2015_Nov_05_1149,G,facesParametric,23,59.3986359414,
./basicStim/21M_HA_O.jpg,,0,32,32,45,,,,,,,,,,,HAP,1.195,None,None,None,None,None,None,,,,,,,,,,,,,,,2015_Nov_05_1149,G,facesParametric,23,59.3986359414,
./basicStim/03F_HA_O.jpg,,0,33,33,17,,,,,,,,,,,HAP,0.674,None,None,None,None,None,None,,,,,,,,,,,,,,,2015_Nov_05_1149,G,facesParametric,23,59.3986359414,
./basicStim/28M_SA_C.jpg,,0,34,34,67,,,,,,,,,,,SAD,5.961,None,None,None,None,None,None,,,,,,,,,,,,,,,2015_Nov_05_1149,G,facesParametric,23,59.3986359414,
./basicStim/02F_SA_C.jpg,,0,35,35,11,,,,,,,,,,,SAD,1.603,None,None,None,None,None,None,,,,,,,,,,,,,,,2015_Nov_05_1149,G,facesParametric,23,59.3986359414,
./basicStim/36M_DI_O.jpg,,0,36,36,78,,,,,,,,,,,None,None,None,None,DIS,2.03,None,None,,,,,,,,,,,,,,,2015_Nov_05_1149,G,facesParametric,23,59.3986359414,
./basicStim/03F_FE_O.jpg,,0,37,37,16,,,,,,,,,,,None,None,FEA,3.792,None,None,None,None,,,,,,,,,,,,,,,2015_Nov_05_1149,G,facesParametric,23,59.3986359414,
./basicStim/01F_FE_O.jpg,,0,38,38,2,,,,,,,,,,,None,None,FEA,2.307,None,None,None,None,,,,,,,,,,,,,,,2015_Nov_05_1149,G,facesParametric,23,59.3986359414,
./basicStim/01F_NE_C.jpg,,0,39,39,6,,,,,,,,,,,None,None,None,None,None,None,NTR,2.112,,,,,,,,,,,,,,,2015_Nov_05_1149,G,facesParametric,23,59.3986359414,
./basicStim/23M_HA_O.jpg,,0,40,40,52,,,,,,,,,,,HAP,1.886,None,None,None,None,None,None,,,,,,,,,,,,,,,2015_Nov_05_1149,G,facesParametric,23,59.3986359414,
./basicStim/02F_NE_C.jpg,,0,41,41,13,,,,,,,,,,,None,None,None,None,None,None,NTR,2.3,,,,,,,,,,,,,,,2015_Nov_05_1149,G,facesParametric,23,59.3986359414,
./basicStim/02F_FE_O.jpg,,0,42,42,9,,,,,,,,,,,None,None,None,None,SUP,4.226,None,None,,,,,,,,,,,,,,,2015_Nov_05_1149,G,facesParametric,23,59.3986359414,
./basicStim/36M_FE_O.jpg,,0,43,43,79,,,,,,,,,,,None,None,None,None,DIS,4.115,None,None,,,,,,,,,,,,,,,2015_Nov_05_1149,G,facesParametric,23,59.3986359414,
./basicStim/21M_SA_C.jpg,,0,44,44,46,,,,,,,,,,,None,None,FEA,7.96,None,None,None,None,,,,,,,,,,,,,,,2015_Nov_05_1149,G,facesParametric,23,59.3986359414,
./basicStim/23M_SA_C.jpg,,0,45,45,53,,,,,,,,,,,SAD,5.588,None,None,None,None,None,None,,,,,,,,,,,,,,,2015_Nov_05_1149,G,facesParametric,23,59.3986359414,
./basicStim/09F_SA_C.jpg,,0,46,46,39,,,,,,,,,,,SAD,3.125,None,None,None,None,None,None,,,,,,,,,,,,,,,2015_Nov_05_1149,G,facesParametric,23,59.3986359414,
./basicStim/03F_NE_C.jpg,,0,47,47,20,,,,,,,,,,,None,None,None,None,None,None,NTR,1.273,,,,,,,,,,,,,,,2015_Nov_05_1149,G,facesParametric,23,59.3986359414,
./basicStim/21M_AN_O.jpg,,0,48,48,42,,,,,,,,,,,None,None,ANG,2.324,None,None,None,None,,,,,,,,,,,,,,,2015_Nov_05_1149,G,facesParametric,23,59.3986359414,
./basicStim/21M_DI_O.jpg,,0,49,49,43,,,,,,,,,,,None,None,None,None,DIS,2.517,None,None,,,,,,,,,,,,,,,2015_Nov_05_1149,G,facesParametric,23,59.3986359414,
./basicStim/34M_NE_C.jpg,,0,50,50,76,,,,,,,,,,,None,None,None,None,None,None,NTR,1.61,,,,,,,,,,,,,,,2015_Nov_05_1149,G,facesParametric,23,59.3986359414,
./basicStim/06F_HA_O.jpg,,0,51,51,24,,,,,,,,,,,HAP,1.035,None,None,None,None,None,None,,,,,,,,,,,,,,,2015_Nov_05_1149,G,facesParametric,23,59.3986359414,
./basicStim/07F_SP_O.jpg,,0,52,52,33,,,,,,,,,,,None,None,None,None,SUP,2.497,None,None,,,,,,,,,,,,,,,2015_Nov_05_1149,G,facesParametric,23,59.3986359414,
./basicStim/34M_DI_O.jpg,,0,53,53,71,,,,,,,,,,,None,None,None,None,SUP,4.225,None,None,,,,,,,,,,,,,,,2015_Nov_05_1149,G,facesParametric,23,59.3986359414,
./basicStim/34M_SA_C.jpg,,0,54,54,74,,,,,,,,,,,SAD,3.863,None,None,None,None,None,None,,,,,,,,,,,,,,,2015_Nov_05_1149,G,facesParametric,23,59.3986359414,
./basicStim/03F_SP_O.jpg,,0,55,55,19,,,,,,,,,,,None,None,None,None,SUP,3.059,None,None,,,,,,,,,,,,,,,2015_Nov_05_1149,G,facesParametric,23,59.3986359414,
./basicStim/01F_SP_O.jpg,,0,56,56,5,,,,,,,,,,,None,None,FEA,4.476,None,None,None,None,,,,,,,,,,,,,,,2015_Nov_05_1149,G,facesParametric,23,59.3986359414,
./basicStim/09F_AN_O.jpg,,0,57,57,35,,,,,,,,,,,None,None,ANG,3.804,None,None,None,None,,,,,,,,,,,,,,,2015_Nov_05_1149,G,facesParametric,23,59.3986359414,
./basicStim/24M_HA_O.jpg,,0,58,58,59,,,,,,,,,,,HAP,2.168,None,None,None,None,None,None,,,,,,,,,,,,,,,2015_Nov_05_1149,G,facesParametric,23,59.3986359414,
./basicStim/24M_SA_C.jpg,,0,59,59,60,,,,,,,,,,,SAD,1.563,None,None,None,None,None,None,,,,,,,,,,,,,,,2015_Nov_05_1149,G,facesParametric,23,59.3986359414,
./basicStim/21M_NE_C.jpg,,0,60,60,48,,,,,,,,,,,None,None,None,None,None,None,NTR,1.781,,,,,,,,,,,,,,,2015_Nov_05_1149,G,facesParametric,23,59.3986359414,
./basicStim/23M_DI_O.jpg,,0,61,61,50,,,,,,,,,,,SAD,3.465,None,None,None,None,None,None,,,,,,,,,,,,,,,2015_Nov_05_1149,G,facesParametric,23,59.3986359414,
./basicStim/07F_NE_C.jpg,,0,62,62,34,,,,,,,,,,,None,None,None,None,None,None,NTR,2.147,,,,,,,,,,,,,,,2015_Nov_05_1149,G,facesParametric,23,59.3986359414,
./basicStim/01F_DI_O.jpg,,0,63,63,1,,,,,,,,,,,None,None,None,None,DIS,2.807,None,None,,,,,,,,,,,,,,,2015_Nov_05_1149,G,facesParametric,23,59.3986359414,
./basicStim/09F_DI_O.jpg,,0,64,64,36,,,,,,,,,,,None,None,None,None,DIS,0.74,None,None,,,,,,,,,,,,,,,2015_Nov_05_1149,G,facesParametric,23,59.3986359414,
./basicStim/34M_FE_O.jpg,,0,65,65,72,,,,,,,,,,,None,None,FEA,4.897,None,None,None,None,,,,,,,,,,,,,,,2015_Nov_05_1149,G,facesParametric,23,59.3986359414,
./basicStim/28M_SP_O.jpg,,0,66,66,68,,,,,,,,,,,None,None,FEA,3.342,None,None,None,None,,,,,,,,,,,,,,,2015_Nov_05_1149,G,facesParametric,23,59.3986359414,
./basicStim/07F_HA_O.jpg,,0,67,67,31,,,,,,,,,,,HAP,1.129,None,None,None,None,None,None,,,,,,,,,,,,,,,2015_Nov_05_1149,G,facesParametric,23,59.3986359414,
./basicStim/09F_FE_O.jpg,,0,68,68,37,,,,,,,,,,,None,None,None,None,DIS,4.511,None,None,,,,,,,,,,,,,,,2015_Nov_05_1149,G,facesParametric,23,59.3986359414,
./basicStim/07F_FE_O.jpg,,0,69,69,30,,,,,,,,,,,None,None,None,None,DIS,2.617,None,None,,,,,,,,,,,,,,,2015_Nov_05_1149,G,facesParametric,23,59.3986359414,
./basicStim/06F_SP_O.jpg,,0,70,70,26,,,,,,,,,,,None,None,None,None,SUP,2.852,None,None,,,,,,,,,,,,,,,2015_Nov_05_1149,G,facesParametric,23,59.3986359414,
./basicStim/34M_HA_O.jpg,,0,71,71,73,,,,,,,,,,,HAP,1.058,None,None,None,None,None,None,,,,,,,,,,,,,,,2015_Nov_05_1149,G,facesParametric,23,59.3986359414,
./basicStim/06F_SA_C.jpg,,0,72,72,25,,,,,,,,,,,SAD,5.67,None,None,None,None,None,None,,,,,,,,,,,,,,,2015_Nov_05_1149,G,facesParametric,23,59.3986359414,
./basicStim/06F_AN_O.jpg,,0,73,73,21,,,,,,,,,,,None,None,None,None,DIS,4.055,None,None,,,,,,,,,,,,,,,2015_Nov_05_1149,G,facesParametric,23,59.3986359414,
./basicStim/01F_SA_C.jpg,,0,74,74,4,,,,,,,,,,,SAD,2.316,None,None,None,None,None,None,,,,,,,,,,,,,,,2015_Nov_05_1149,G,facesParametric,23,59.3986359414,
./basicStim/24M_FE_O.jpg,,0,75,75,58,,,,,,,,,,,SAD,3.072,None,None,None,None,None,None,,,,,,,,,,,,,,,2015_Nov_05_1149,G,facesParametric,23,59.3986359414,
./basicStim/06F_DI_O.jpg,,0,76,76,22,,,,,,,,,,,None,None,None,None,DIS,1.724,None,None,,,,,,,,,,,,,,,2015_Nov_05_1149,G,facesParametric,23,59.3986359414,
./basicStim/34M_AN_O.jpg,,0,77,77,70,,,,,,,,,,,None,None,ANG,1.446,None,None,None,None,,,,,,,,,,,,,,,2015_Nov_05_1149,G,facesParametric,23,59.3986359414,
./basicStim/01F_AN_O.jpg,,0,78,78,0,,,,,,,,,,,None,None,ANG,0.556,None,None,None,None,,,,,,,,,,,,,,,2015_Nov_05_1149,G,facesParametric,23,59.3986359414,
./basicStim/02F_DI_O.jpg,,0,79,79,8,,,,,,,,,,,None,None,ANG,0.777,None,None,None,None,,,,,,,,,,,,,,,2015_Nov_05_1149,G,facesParametric,23,59.3986359414,
./basicStim/06F_FE_O.jpg,,0,80,80,23,,,,,,,,,,,None,None,FEA,2.064,None,None,None,None,,,,,,,,,,,,,,,2015_Nov_05_1149,G,facesParametric,23,59.3986359414,
./basicStim/28M_NE_C.jpg,,0,81,81,69,,,,,,,,,,,None,None,None,None,None,None,NTR,1.505,,,,,,,,,,,,,,,2015_Nov_05_1149,G,facesParametric,23,59.3986359414,
./basicStim/21M_FE_O.jpg,,0,82,82,44,,,,,,,,,,,None,None,None,None,SUP,5.685,None,None,,,,,,,,,,,,,,,2015_Nov_05_1149,G,facesParametric,23,59.3986359414,
./basicStim/28M_DI_O.jpg,,0,83,83,64,,,,,,,,,,,None,None,None,None,DIS,1.325,None,None,,,,,,,,,,,,,,,2015_Nov_05_1149,G,facesParametric,23,59.3986359414,
,,,,,,,,,,,,,,,,,,,,,,,,return,75.1691961288,,,,,,,,,,,,,2015_Nov_05_1149,G,facesParametric,23,59.3986359414,
,,,,,,,,,,,,,,return,27.8037641048,,,,,,,,,,,,,,,,,,,,,,,2015_Nov_05_1149,G,facesParametric,23,59.3986359414,
,,,,,,,,,,,,,,,,,,,,,,,,return,8.24559807777,,,,,,,,,,,,,2015_Nov_05_1149,G,facesParametric,23,59.3986359414,
,,,,,,,,,,,,,,,,,,,,,,,,,,return,5.76519489288,,,,,,,,,,,2015_Nov_05_1149,G,facesParametric,23,59.3986359414,
./stim/MorphM3_03_orig.jpg,0,,,,,0,0,0,0,,,,,,,,,,,,,,,,,,,-23.115234375,-11.806640625,0,0,1,4.12529110909,,,,,2015_Nov_05_1149,G,facesParametric,23,59.3986359414,
./stim/MorphM2_08_orig.jpg,1,,,,,0,1,1,1,,,,,,,,,,,,,,,,,,,-23.115234375,-11.806640625,0,0,1,1.94198989868,,,,,2015_Nov_05_1149,G,facesParametric,23,59.3986359414,
./stim/MorphM1_01_orig.jpg,2,,,,,0,2,2,2,,,,,,,,,,,,,,,,,,,-23.115234375,-11.806640625,1,0,0,2.24468708038,,,,,2015_Nov_05_1149,G,facesParametric,23,59.3986359414,
./stim/MorphM8_08_orig.jpg,3,,,,,0,3,3,3,,,,,,,,,,,,,,,,,,,-23.115234375,-11.806640625,1,0,0,4.79237508774,,,,,2015_Nov_05_1149,G,facesParametric,23,59.3986359414,
./stim/MorphF5_06_orig.jpg,4,,,,,0,4,4,4,,,,,,,,,,,,,,,,,,,-23.115234375,-11.806640625,1,0,0,2.09176683426,,,,,2015_Nov_05_1149,G,facesParametric,23,59.3986359414,
./stim/MorphF4_03_orig.jpg,5,,,,,0,5,5,5,,,,,,,,,,,,,,,,,,,-23.115234375,-11.806640625,1,0,0,1.18847608566,,,,,2015_Nov_05_1149,G,facesParametric,23,59.3986359414,
./stim/MorphF2_04_orig.jpg,6,,,,,0,6,6,6,,,,,,,,,,,,,,,,,,,-23.115234375,-11.806640625,1,0,0,1.50711584091,,,,,2015_Nov_05_1149,G,facesParametric,23,59.3986359414,
./stim/MorphM1_00_orig.jpg,7,,,,,0,7,7,7,,,,,,,,,,,,,,,,,,,-23.115234375,-11.806640625,1,0,0,2.59617900848,,,,,2015_Nov_05_1149,G,facesParametric,23,59.3986359414,
./stim/MorphF3_10_orig.jpg,8,,,,,0,8,8,8,,,,,,,,,,,,,,,,,,,-23.115234375,-11.806640625,0,0,1,1.55741000175,,,,,2015_Nov_05_1149,G,facesParametric,23,59.3986359414,
./stim/MorphM3_05_orig.jpg,9,,,,,0,9,9,9,,,,,,,,,,,,,,,,,,,-23.115234375,-11.806640625,0,0,1,1.00429201126,,,,,2015_Nov_05_1149,G,facesParametric,23,59.3986359414,
./stim/MorphF6_00_orig.jpg,10,,,,,0,10,10,10,,,,,,,,,,,,,,,,,,,-23.115234375,-11.806640625,0,0,1,0.869478940964,,,,,2015_Nov_05_1149,G,facesParametric,23,59.3986359414,
./stim/MorphF5_03_orig.jpg,11,,,,,0,11,11,11,,,,,,,,,,,,,,,,,,,-23.115234375,-11.806640625,1,0,0,1.05458116531,,,,,2015_Nov_05_1149,G,facesParametric,23,59.3986359414,
./stim/MorphM4_10_orig.jpg,12,,,,,0,12,12,12,,,,,,,,,,,,,,,,,,,-23.115234375,-11.806640625,0,0,1,1.10481095314,,,,,2015_Nov_05_1149,G,facesParametric,23,59.3986359414,
./stim/MorphM8_04_orig.jpg,13,,,,,0,13,13,13,,,,,,,,,,,,,,,,,,,-23.115234375,-11.806640625,1,0,0,2.94853210449,,,,,2015_Nov_05_1149,G,facesParametric,23,59.3986359414,
./stim/MorphM5_00_orig.jpg,14,,,,,0,14,14,14,,,,,,,,,,,,,,,,,,,-23.115234375,-11.806640625,1,0,0,1.84257292747,,,,,2015_Nov_05_1149,G,facesParametric,23,59.3986359414,
./stim/MorphF2_07_orig.jpg,15,,,,,0,15,15,15,,,,,,,,,,,,,,,,,,,-23.115234375,-11.806640625,1,0,0,1.45710206032,,,,,2015_Nov_05_1149,G,facesParametric,23,59.3986359414,
./stim/MorphM3_09_orig.jpg,16,,,,,0,16,16,16,,,,,,,,,,,,,,,,,,,-23.115234375,-11.806640625,0,0,1,1.65578508377,,,,,2015_Nov_05_1149,G,facesParametric,23,59.3986359414,
./stim/MorphM5_08_orig.jpg,17,,,,,0,17,17,17,,,,,,,,,,,,,,,,,,,-23.115234375,-11.806640625,0,0,1,1.1878349781,,,,,2015_Nov_05_1149,G,facesParametric,23,59.3986359414,
./stim/MorphM8_03_orig.jpg,18,,,,,0,18,18,18,,,,,,,,,,,,,,,,,,,-23.115234375,-11.806640625,0,0,1,1.74181103706,,,,,2015_Nov_05_1149,G,facesParametric,23,59.3986359414,
./stim/MorphM7_05_orig.jpg,19,,,,,0,19,19,19,,,,,,,,,,,,,,,,,,,-23.115234375,-11.806640625,0,0,1,0.734475851059,,,,,2015_Nov_05_1149,G,facesParametric,23,59.3986359414,
./stim/MorphF2_02_orig.jpg,20,,,,,0,20,20,20,,,,,,,,,,,,,,,,,,,-23.115234375,-11.806640625,0,0,1,1.54043507576,,,,,2015_Nov_05_1149,G,facesParametric,23,59.3986359414,
./stim/MorphM4_07_orig.jpg,21,,,,,0,21,21,21,,,,,,,,,,,,,,,,,,,-23.115234375,-11.806640625,0,0,1,0.887537956238,,,,,2015_Nov_05_1149,G,facesParametric,23,59.3986359414,
./stim/MorphM2_02_orig.jpg,22,,,,,0,22,22,22,,,,,,,,,,,,,,,,,,,-23.115234375,-11.806640625,1,0,0,1.35482597351,,,,,2015_Nov_05_1149,G,facesParametric,23,59.3986359414,
./stim/MorphM9_00_orig.jpg,23,,,,,0,23,23,23,,,,,,,,,,,,,,,,,,,-23.115234375,-11.806640625,1,0,0,1.08858990669,,,,,2015_Nov_05_1149,G,facesParametric,23,59.3986359414,
./stim/MorphF5_04_orig.jpg,24,,,,,0,24,24,24,,,,,,,,,,,,,,,,,,,-23.115234375,-11.806640625,1,0,0,1.64046120644,,,,,2015_Nov_05_1149,G,facesParametric,23,59.3986359414,
./stim/MorphM8_05_orig.jpg,25,,,,,0,25,25,25,,,,,,,,,,,,,,,,,,,-23.115234375,-11.806640625,0,0,1,1.07206201553,,,,,2015_Nov_05_1149,G,facesParametric,23,59.3986359414,
./stim/MorphF1_01_orig.jpg,26,,,,,0,26,26,26,,,,,,,,,,,,,,,,,,,-23.115234375,-11.806640625,0,0,1,0.987265110016,,,,,2015_Nov_05_1149,G,facesParametric,23,59.3986359414,
./stim/MorphF7_02_orig.jpg,27,,,,,0,27,27,27,,,,,,,,,,,,,,,,,,,-23.115234375,-11.806640625,0,0,1,1.30595993996,,,,,2015_Nov_05_1149,G,facesParametric,23,59.3986359414,
./stim/MorphM10_10_orig.jpg,28,,,,,0,28,28,28,,,,,,,,,,,,,,,,,,,-23.115234375,-11.806640625,0,0,1,0.954554080963,,,,,2015_Nov_05_1149,G,facesParametric,23,59.3986359414,
./stim/MorphF3_06_orig.jpg,29,,,,,0,29,29,29,,,,,,,,,,,,,,,,,,,-23.115234375,-11.806640625,0,0,1,1.03707480431,,,,,2015_Nov_05_1149,G,facesParametric,23,59.3986359414,
./stim/MorphM5_06_orig.jpg,30,,,,,0,30,30,30,,,,,,,,,,,,,,,,,,,-23.115234375,-11.806640625,0,0,1,0.71710896492,,,,,2015_Nov_05_1149,G,facesParametric,23,59.3986359414,
./stim/MorphF5_07_orig.jpg,31,,,,,0,31,31,31,,,,,,,,,,,,,,,,,,,-23.115234375,-11.806640625,0,0,1,1.0050508976,,,,,2015_Nov_05_1149,G,facesParametric,23,59.3986359414,
./stim/MorphM2_00_orig.jpg,32,,,,,0,32,32,32,,,,,,,,,,,,,,,,,,,-23.115234375,-11.806640625,0,0,1,1.16960883141,,,,,2015_Nov_05_1149,G,facesParametric,23,59.3986359414,
./stim/MorphF9_08_orig.jpg,33,,,,,0,33,33,33,,,,,,,,,,,,,,,,,,,-23.115234375,-11.806640625,0,0,1,0.886494159698,,,,,2015_Nov_05_1149,G,facesParametric,23,59.3986359414,
./stim/MorphF3_04_orig.jpg,34,,,,,0,34,34,34,,,,,,,,,,,,,,,,,,,-23.115234375,-11.806640625,0,0,1,1.20339298248,,,,,2015_Nov_05_1149,G,facesParametric,23,59.3986359414,
./stim/MorphF10_05_orig.jpg,35,,,,,0,35,35,35,,,,,,,,,,,,,,,,,,,-23.115234375,-11.806640625,0,0,1,1.60773682594,,,,,2015_Nov_05_1149,G,facesParametric,23,59.3986359414,
./stim/MorphM10_08_orig.jpg,36,,,,,0,36,36,36,,,,,,,,,,,,,,,,,,,-23.115234375,-11.806640625,0,0,1,0.701905012131,,,,,2015_Nov_05_1149,G,facesParametric,23,59.3986359414,
./stim/MorphF3_07_orig.jpg,37,,,,,0,37,37,37,,,,,,,,,,,,,,,,,,,-23.115234375,-11.806640625,0,0,1,0.768854141235,,,,,2015_Nov_05_1149,G,facesParametric,23,59.3986359414,
./stim/MorphF6_01_orig.jpg,38,,,,,0,38,38,38,,,,,,,,,,,,,,,,,,,-23.115234375,-11.806640625,0,0,1,1.35598087311,,,,,2015_Nov_05_1149,G,facesParametric,23,59.3986359414,
./stim/MorphM6_08_orig.jpg,39,,,,,0,39,39,39,,,,,,,,,,,,,,,,,,,-23.115234375,-11.806640625,0,0,1,2.3098731041,,,,,2015_Nov_05_1149,G,facesParametric,23,59.3986359414,
./stim/MorphF5_08_orig.jpg,40,,,,,0,40,40,40,,,,,,,,,,,,,,,,,,,-23.115234375,-11.806640625,0,0,1,1.82376003265,,,,,2015_Nov_05_1149,G,facesParametric,23,59.3986359414,
./stim/MorphM5_02_orig.jpg,41,,,,,0,41,41,41,,,,,,,,,,,,,,,,,,,-23.115234375,-11.806640625,0,0,1,0.667763948441,,,,,2015_Nov_05_1149,G,facesParametric,23,59.3986359414,
./stim/MorphF1_04_orig.jpg,42,,,,,0,42,42,42,,,,,,,,,,,,,,,,,,,-23.115234375,-11.806640625,1,0,0,2.93170690536,,,,,2015_Nov_05_1149,G,facesParametric,23,59.3986359414,
./stim/MorphM9_08_orig.jpg,43,,,,,0,43,43,43,,,,,,,,,,,,,,,,,,,-23.115234375,-11.806640625,0,0,1,1.1886548996,,,,,2015_Nov_05_1149,G,facesParametric,23,59.3986359414,
./stim/MorphM3_10_orig.jpg,44,,,,,0,44,44,44,,,,,,,,,,,,,,,,,,,-23.115234375,-11.806640625,0,0,1,0.75341796875,,,,,2015_Nov_05_1149,G,facesParametric,23,59.3986359414,
./stim/MorphM1_10_orig.jpg,45,,,,,0,45,45,45,,,,,,,,,,,,,,,,,,,-23.115234375,-11.806640625,0,0,1,0.769259929657,,,,,2015_Nov_05_1149,G,facesParametric,23,59.3986359414,
./stim/MorphF8_00_orig.jpg,46,,,,,0,46,46,46,,,,,,,,,,,,,,,,,,,-23.115234375,-11.806640625,1,0,0,2.93172597885,,,,,2015_Nov_05_1149,G,facesParametric,23,59.3986359414,
./stim/MorphF7_07_orig.jpg,47,,,,,0,47,47,47,,,,,,,,,,,,,,,,,,,-23.115234375,-11.806640625,1,0,0,1.57398295403,,,,,2015_Nov_05_1149,G,facesParametric,23,59.3986359414,
./stim/MorphM2_03_orig.jpg,48,,,,,0,48,48,48,,,,,,,,,,,,,,,,,,,-23.115234375,-11.806640625,1,0,0,0.937418937683,,,,,2015_Nov_05_1149,G,facesParametric,23,59.3986359414,
./stim/MorphM10_01_orig.jpg,49,,,,,0,49,49,49,,,,,,,,,,,,,,,,,,,-23.115234375,-11.806640625,1,0,0,0.886792182922,,,,,2015_Nov_05_1149,G,facesParametric,23,59.3986359414,
./stim/MorphF8_04_orig.jpg,50,,,,,0,50,50,50,,,,,,,,,,,,,,,,,,,-23.115234375,-11.806640625,1,0,0,1.42305612564,,,,,2015_Nov_05_1149,G,facesParametric,23,59.3986359414,
./stim/MorphM1_02_orig.jpg,51,,,,,0,51,51,51,,,,,,,,,,,,,,,,,,,-23.115234375,-11.806640625,1,0,0,2.66391396523,,,,,2015_Nov_05_1149,G,facesParametric,23,59.3986359414,
./stim/MorphM10_03_orig.jpg,52,,,,,0,52,52,52,,,,,,,,,,,,,,,,,,,-23.115234375,-11.806640625,0,0,1,0.903232097626,,,,,2015_Nov_05_1149,G,facesParametric,23,59.3986359414,
./stim/MorphF9_03_orig.jpg,53,,,,,0,53,53,53,,,,,,,,,,,,,,,,,,,-23.115234375,-11.806640625,1,0,0,1.32161092758,,,,,2015_Nov_05_1149,G,facesParametric,23,59.3986359414,
./stim/MorphF2_08_orig.jpg,54,,,,,0,54,54,54,,,,,,,,,,,,,,,,,,,-23.115234375,-11.806640625,0,0,1,1.03622102737,,,,,2015_Nov_05_1149,G,facesParametric,23,59.3986359414,
./stim/MorphF9_00_orig.jpg,55,,,,,0,55,55,55,,,,,,,,,,,,,,,,,,,-23.115234375,-11.806640625,1,0,0,1.18955898285,,,,,2015_Nov_05_1149,G,facesParametric,23,59.3986359414,
./stim/MorphM6_04_orig.jpg,56,,,,,0,56,56,56,,,,,,,,,,,,,,,,,,,-23.115234375,-11.806640625,1,0,0,1.40561318398,,,,,2015_Nov_05_1149,G,facesParametric,23,59.3986359414,
./stim/MorphF10_08_orig.jpg,57,,,,,0,57,57,57,,,,,,,,,,,,,,,,,,,-23.115234375,-11.806640625,0,0,1,0.920395851135,,,,,2015_Nov_05_1149,G,facesParametric,23,59.3986359414,
./stim/MorphF1_07_orig.jpg,58,,,,,0,58,58,58,,,,,,,,,,,,,,,,,,,-23.115234375,-11.806640625,0,0,1,1.15513396263,,,,,2015_Nov_05_1149,G,facesParametric,23,59.3986359414,
./stim/MorphF5_02_orig.jpg,59,,,,,0,59,59,59,,,,,,,,,,,,,,,,,,,-23.115234375,-11.806640625,1,0,0,1.0880420208,,,,,2015_Nov_05_1149,G,facesParametric,23,59.3986359414,
./stim/MorphF4_05_orig.jpg,60,,,,,0,60,60,60,,,,,,,,,,,,,,,,,,,-23.115234375,-11.806640625,0,0,1,2.7622089386,,,,,2015_Nov_05_1149,G,facesParametric,23,59.3986359414,
./stim/MorphM7_10_orig.jpg,61,,,,,0,61,61,61,,,,,,,,,,,,,,,,,,,-23.115234375,-11.806640625,0,0,1,0.736217021942,,,,,2015_Nov_05_1149,G,facesParametric,23,59.3986359414,
./stim/MorphF6_04_orig.jpg,62,,,,,0,62,62,62,,,,,,,,,,,,,,,,,,,-23.115234375,-11.806640625,0,0,1,0.836708784103,,,,,2015_Nov_05_1149,G,facesParametric,23,59.3986359414,
./stim/MorphF5_05_orig.jpg,63,,,,,0,63,63,63,,,,,,,,,,,,,,,,,,,-23.115234375,-11.806640625,0,0,1,0.669059038162,,,,,2015_Nov_05_1149,G,facesParametric,23,59.3986359414,
./stim/MorphF10_04_orig.jpg,64,,,,,0,64,64,64,,,,,,,,,,,,,,,,,,,-23.115234375,-11.806640625,0,0,1,1.17181897163,,,,,2015_Nov_05_1149,G,facesParametric,23,59.3986359414,
./stim/MorphF1_03_orig.jpg,65,,,,,0,65,65,65,,,,,,,,,,,,,,,,,,,-23.115234375,-11.806640625,1,0,0,1.52356100082,,,,,2015_Nov_05_1149,G,facesParametric,23,59.3986359414,
./stim/MorphF9_05_orig.jpg,66,,,,,0,66,66,66,,,,,,,,,,,,,,,,,,,-23.115234375,-11.806640625,1,0,0,1.17213511467,,,,,2015_Nov_05_1149,G,facesParametric,23,59.3986359414,
./stim/MorphM6_05_orig.jpg,67,,,,,0,67,67,67,,,,,,,,,,,,,,,,,,,-23.115234375,-11.806640625,1,0,0,0.769687175751,,,,,2015_Nov_05_1149,G,facesParametric,23,59.3986359414,
./stim/MorphM2_07_orig.jpg,68,,,,,0,68,68,68,,,,,,,,,,,,,,,,,,,-23.115234375,-11.806640625,1,0,0,2.12750196457,,,,,2015_Nov_05_1149,G,facesParametric,23,59.3986359414,
./stim/MorphF10_06_orig.jpg,69,,,,,0,69,69,69,,,,,,,,,,,,,,,,,,,-23.115234375,-11.806640625,0,0,1,1.64047813416,,,,,2015_Nov_05_1149,G,facesParametric,23,59.3986359414,
./stim/MorphF1_00_orig.jpg,70,,,,,0,70,70,70,,,,,,,,,,,,,,,,,,,-23.115234375,-11.806640625,1,0,0,1.23913812637,,,,,2015_Nov_05_1149,G,facesParametric,23,59.3986359414,
./stim/MorphF5_09_orig.jpg,71,,,,,0,71,71,71,,,,,,,,,,,,,,,,,,,-23.115234375,-11.806640625,0,0,1,1.0044760704,,,,,2015_Nov_05_1149,G,facesParametric,23,59.3986359414,
./stim/MorphF1_10_orig.jpg,72,,,,,0,72,72,72,,,,,,,,,,,,,,,,,,,-23.115234375,-11.806640625,1,0,0,0.937491893768,,,,,2015_Nov_05_1149,G,facesParametric,23,59.3986359414,
./stim/MorphF9_09_orig.jpg,73,,,,,0,73,73,73,,,,,,,,,,,,,,,,,,,-23.115234375,-11.806640625,0,0,1,2.99835586548,,,,,2015_Nov_05_1149,G,facesParametric,23,59.3986359414,
./stim/MorphM7_02_orig.jpg,74,,,,,0,74,74,74,,,,,,,,,,,,,,,,,,,-23.115234375,-11.806640625,1,0,0,3.18309092522,,,,,2015_Nov_05_1149,G,facesParametric,23,59.3986359414,
./stim/MorphM8_00_orig.jpg,75,,,,,0,75,75,75,,,,,,,,,,,,,,,,,,,-23.115234375,-11.806640625,1,0,0,2.5129070282,,,,,2015_Nov_05_1149,G,facesParametric,23,59.3986359414,
./stim/MorphM5_05_orig.jpg,76,,,,,0,76,76,76,,,,,,,,,,,,,,,,,,,-23.115234375,-11.806640625,0,0,1,0.786349058151,,,,,2015_Nov_05_1149,G,facesParametric,23,59.3986359414,
./stim/MorphF3_00_orig.jpg,77,,,,,0,77,77,77,,,,,,,,,,,,,,,,,,,-23.115234375,-11.806640625,1,0,0,1.38976502419,,,,,2015_Nov_05_1149,G,facesParametric,23,59.3986359414,
./stim/MorphF9_04_orig.jpg,78,,,,,0,78,78,78,,,,,,,,,,,,,,,,,,,-23.115234375,-11.806640625,1,0,0,1.23919916153,,,,,2015_Nov_05_1149,G,facesParametric,23,59.3986359414,
./stim/MorphF4_08_orig.jpg,79,,,,,0,79,79,79,,,,,,,,,,,,,,,,,,,-23.115234375,-11.806640625,0,0,1,1.08774113655,,,,,2015_Nov_05_1149,G,facesParametric,23,59.3986359414,
./stim/MorphF6_07_orig.jpg,80,,,,,0,80,80,80,,,,,,,,,,,,,,,,,,,-23.115234375,-11.806640625,1,0,0,1.9765560627,,,,,2015_Nov_05_1149,G,facesParametric,23,59.3986359414,
./stim/MorphM3_01_orig.jpg,81,,,,,0,81,81,81,,,,,,,,,,,,,,,,,,,-23.115234375,-11.806640625,1,0,0,2.12715411186,,,,,2015_Nov_05_1149,G,facesParametric,23,59.3986359414,
./stim/MorphM7_06_orig.jpg,82,,,,,0,82,82,82,,,,,,,,,,,,,,,,,,,-23.115234375,-11.806640625,0,0,1,0.869816064835,,,,,2015_Nov_05_1149,G,facesParametric,23,59.3986359414,
./stim/MorphF9_01_orig.jpg,83,,,,,0,83,83,83,,,,,,,,,,,,,,,,,,,-23.115234375,-11.806640625,1,0,0,2.02663683891,,,,,2015_Nov_05_1149,G,facesParametric,23,59.3986359414,
./stim/MorphF7_09_orig.jpg,84,,,,,0,84,84,84,,,,,,,,,,,,,,,,,,,-23.115234375,-11.806640625,0,0,1,1.13840389252,,,,,2015_Nov_05_1149,G,facesParametric,23,59.3986359414,
./stim/MorphM10_07_orig.jpg,85,,,,,0,85,85,85,,,,,,,,,,,,,,,,,,,-23.115234375,-11.806640625,0,0,1,0.719418048859,,,,,2015_Nov_05_1149,G,facesParametric,23,59.3986359414,
./stim/MorphF8_08_orig.jpg,86,,,,,0,86,86,86,,,,,,,,,,,,,,,,,,,-23.115234375,-11.806640625,0,0,1,0.954124927521,,,,,2015_Nov_05_1149,G,facesParametric,23,59.3986359414,
./stim/MorphM1_07_orig.jpg,87,,,,,0,87,87,87,,,,,,,,,,,,,,,,,,,-23.115234375,-11.806640625,0,0,1,1.10464692116,,,,,2015_Nov_05_1149,G,facesParametric,23,59.3986359414,
./stim/MorphF8_03_orig.jpg,88,,,,,0,88,88,88,,,,,,,,,,,,,,,,,,,-23.115234375,-11.806640625,1,0,0,2.88133692741,,,,,2015_Nov_05_1149,G,facesParametric,23,59.3986359414,
./stim/MorphM6_01_orig.jpg,89,,,,,0,89,89,89,,,,,,,,,,,,,,,,,,,-23.115234375,-11.806640625,1,0,0,1.07117581367,,,,,2015_Nov_05_1149,G,facesParametric,23,59.3986359414,
./stim/MorphM1_04_orig.jpg,90,,,,,0,90,90,90,,,,,,,,,,,,,,,,,,,-23.115234375,-11.806640625,1,0,0,1.85919713974,,,,,2015_Nov_05_1149,G,facesParametric,23,59.3986359414,
./stim/MorphF6_09_orig.jpg,91,,,,,0,91,91,91,,,,,,,,,,,,,,,,,,,-23.115234375,-11.806640625,0,0,1,1.00454998016,,,,,2015_Nov_05_1149,G,facesParametric,23,59.3986359414,
./stim/MorphM8_07_orig.jpg,92,,,,,0,92,92,92,,,,,,,,,,,,,,,,,,,-23.115234375,-11.806640625,0,0,1,4.00247502327,,,,,2015_Nov_05_1149,G,facesParametric,23,59.3986359414,
./stim/MorphF10_00_orig.jpg,93,,,,,0,93,93,93,,,,,,,,,,,,,,,,,,,-23.115234375,-11.806640625,1,0,0,1.13844513893,,,,,2015_Nov_05_1149,G,facesParametric,23,59.3986359414,
./stim/MorphM7_09_orig.jpg,94,,,,,0,94,94,94,,,,,,,,,,,,,,,,,,,-23.115234375,-11.806640625,0,0,1,0.752649784088,,,,,2015_Nov_05_1149,G,facesParametric,23,59.3986359414,
./stim/MorphM10_06_orig.jpg,95,,,,,0,95,95,95,,,,,,,,,,,,,,,,,,,-23.115234375,-11.806640625,0,0,1,0.752608060837,,,,,2015_Nov_05_1149,G,facesParametric,23,59.3986359414,
./stim/MorphF4_06_orig.jpg,96,,,,,0,96,96,96,,,,,,,,,,,,,,,,,,,-23.115234375,-11.806640625,1,0,0,1.25579285622,,,,,2015_Nov_05_1149,G,facesParametric,23,59.3986359414,
./stim/MorphF8_01_orig.jpg,97,,,,,0,97,97,97,,,,,,,,,,,,,,,,,,,-23.115234375,-11.806640625,1,0,0,1.18838214874,,,,,2015_Nov_05_1149,G,facesParametric,23,59.3986359414,
./stim/MorphM10_09_orig.jpg,98,,,,,0,98,98,98,,,,,,,,,,,,,,,,,,,-23.115234375,-11.806640625,0,0,1,0.736164093018,,,,,2015_Nov_05_1149,G,facesParametric,23,59.3986359414,
./stim/MorphF2_06_orig.jpg,99,,,,,0,99,99,99,,,,,,,,,,,,,,,,,,,-23.115234375,-11.806640625,0,0,1,1.12198209763,,,,,2015_Nov_05_1149,G,facesParametric,23,59.3986359414,
./stim/MorphM9_07_orig.jpg,100,,,,,0,100,100,100,,,,,,,,,,,,,,,,,,,-23.115234375,-11.806640625,0,0,1,0.920555114746,,,,,2015_Nov_05_1149,G,facesParametric,23,59.3986359414,
./stim/MorphM10_00_orig.jpg,101,,,,,0,101,101,101,,,,,,,,,,,,,,,,,,,-23.115234375,-11.806640625,1,0,0,1.03739595413,,,,,2015_Nov_05_1149,G,facesParametric,23,59.3986359414,
./stim/MorphM5_01_orig.jpg,102,,,,,0,102,102,102,,,,,,,,,,,,,,,,,,,-23.115234375,-11.806640625,0,0,1,0.870540142059,,,,,2015_Nov_05_1149,G,facesParametric,23,59.3986359414,
./stim/MorphM2_05_orig.jpg,103,,,,,0,103,103,103,,,,,,,,,,,,,,,,,,,-23.115234375,-11.806640625,1,0,0,2.19496417046,,,,,2015_Nov_05_1149,G,facesParametric,23,59.3986359414,
./stim/MorphF10_07_orig.jpg,104,,,,,0,104,104,104,,,,,,,,,,,,,,,,,,,-23.115234375,-11.806640625,0,0,1,0.802676916122,,,,,2015_Nov_05_1149,G,facesParametric,23,59.3986359414,
./stim/MorphM4_01_orig.jpg,105,,,,,0,105,105,105,,,,,,,,,,,,,,,,,,,-23.115234375,-11.806640625,1,0,0,1.40657091141,,,,,2015_Nov_05_1149,G,facesParametric,23,59.3986359414,
./stim/MorphM5_07_orig.jpg,106,,,,,0,106,106,106,,,,,,,,,,,,,,,,,,,-23.115234375,-11.806640625,0,0,1,0.92035984993,,,,,2015_Nov_05_1149,G,facesParametric,23,59.3986359414,
./stim/MorphF2_10_orig.jpg,107,,,,,0,107,107,107,,,,,,,,,,,,,,,,,,,-23.115234375,-11.806640625,0,0,1,2.11049103737,,,,,2015_Nov_05_1149,G,facesParametric,23,59.3986359414,
./stim/MorphF5_10_orig.jpg,108,,,,,0,108,108,108,,,,,,,,,,,,,,,,,,,-23.115234375,-11.806640625,0,0,1,0.80366897583,,,,,2015_Nov_05_1149,G,facesParametric,23,59.3986359414,
./stim/MorphM5_09_orig.jpg,109,,,,,0,109,109,109,,,,,,,,,,,,,,,,,,,-23.115234375,-11.806640625,0,0,1,0.902894020081,,,,,2015_Nov_05_1149,G,facesParametric,23,59.3986359414,
./stim/MorphM3_04_orig.jpg,110,,,,,0,110,110,110,,,,,,,,,,,,,,,,,,,-23.115234375,-11.806640625,0,0,1,0.96919298172,,,,,2015_Nov_05_1149,G,facesParametric,23,59.3986359414,
./stim/MorphM6_06_orig.jpg,111,,,,,0,111,111,111,,,,,,,,,,,,,,,,,,,-23.115234375,-11.806640625,0,0,1,1.27145814896,,,,,2015_Nov_05_1149,G,facesParametric,23,59.3986359414,
./stim/MorphF2_05_orig.jpg,112,,,,,0,112,112,112,,,,,,,,,,,,,,,,,,,-23.115234375,-11.806640625,0,0,1,3.26674103737,,,,,2015_Nov_05_1149,G,facesParametric,23,59.3986359414,
./stim/MorphF7_00_orig.jpg,113,,,,,0,113,113,113,,,,,,,,,,,,,,,,,,,-23.115234375,-11.806640625,1,0,0,1.4066259861,,,,,2015_Nov_05_1149,G,facesParametric,23,59.3986359414,
./stim/MorphM6_03_orig.jpg,114,,,,,0,114,114,114,,,,,,,,,,,,,,,,,,,-23.115234375,-11.806640625,1,0,0,2.16058087349,,,,,2015_Nov_05_1149,G,facesParametric,23,59.3986359414,
./stim/MorphF2_03_orig.jpg,115,,,,,0,115,115,115,,,,,,,,,,,,,,,,,,,-23.115234375,-11.806640625,1,0,0,0.93594789505,,,,,2015_Nov_05_1149,G,facesParametric,23,59.3986359414,
./stim/MorphF4_01_orig.jpg,116,,,,,0,116,116,116,,,,,,,,,,,,,,,,,,,-23.115234375,-11.806640625,1,0,0,1.23927593231,,,,,2015_Nov_05_1149,G,facesParametric,23,59.3986359414,
./stim/MorphF1_08_orig.jpg,117,,,,,0,117,117,117,,,,,,,,,,,,,,,,,,,-23.115234375,-11.806640625,0,0,1,0.803413152695,,,,,2015_Nov_05_1149,G,facesParametric,23,59.3986359414,
./stim/MorphF4_09_orig.jpg,118,,,,,0,118,118,118,,,,,,,,,,,,,,,,,,,-23.115234375,-11.806640625,0,0,1,0.735382080078,,,,,2015_Nov_05_1149,G,facesParametric,23,59.3986359414,
./stim/MorphF10_01_orig.jpg,119,,,,,0,119,119,119,,,,,,,,,,,,,,,,,,,-23.115234375,-11.806640625,0,0,1,1.33923316002,,,,,2015_Nov_05_1149,G,facesParametric,23,59.3986359414,
./stim/MorphM8_10_orig.jpg,120,,,,,0,120,120,120,,,,,,,,,,,,,,,,,,,-23.115234375,-11.806640625,0,0,1,1.44043588638,,,,,2015_Nov_05_1149,G,facesParametric,23,59.3986359414,
./stim/MorphF6_10_orig.jpg,121,,,,,0,121,121,121,,,,,,,,,,,,,,,,,,,-23.115234375,-11.806640625,0,0,1,0.887056112289,,,,,2015_Nov_05_1149,G,facesParametric,23,59.3986359414,
./stim/MorphM8_01_orig.jpg,122,,,,,0,122,122,122,,,,,,,,,,,,,,,,,,,-23.115234375,-11.806640625,1,0,0,1.25577712059,,,,,2015_Nov_05_1149,G,facesParametric,23,59.3986359414,
./stim/MorphF7_01_orig.jpg,123,,,,,0,123,123,123,,,,,,,,,,,,,,,,,,,-23.115234375,-11.806640625,1,0,0,1.28709793091,,,,,2015_Nov_05_1149,G,facesParametric,23,59.3986359414,
./stim/MorphM9_02_orig.jpg,124,,,,,0,124,124,124,,,,,,,,,,,,,,,,,,,-23.115234375,-11.806640625,1,0,0,1.10508990288,,,,,2015_Nov_05_1149,G,facesParametric,23,59.3986359414,
./stim/MorphM8_06_orig.jpg,125,,,,,0,125,125,125,,,,,,,,,,,,,,,,,,,-23.115234375,-11.806640625,0,0,1,1.70603680611,,,,,2015_Nov_05_1149,G,facesParametric,23,59.3986359414,
./stim/MorphF6_02_orig.jpg,126,,,,,0,126,126,126,,,,,,,,,,,,,,,,,,,-23.115234375,-11.806640625,1,0,0,4.9766690731,,,,,2015_Nov_05_1149,G,facesParametric,23,59.3986359414,
./stim/MorphM5_10_orig.jpg,127,,,,,0,127,127,127,,,,,,,,,,,,,,,,,,,-23.115234375,-11.806640625,0,0,1,1.13841485977,,,,,2015_Nov_05_1149,G,facesParametric,23,59.3986359414,
./stim/MorphF5_00_orig.jpg,128,,,,,0,128,128,128,,,,,,,,,,,,,,,,,,,-23.115234375,-11.806640625,1,0,0,1.07129597664,,,,,2015_Nov_05_1149,G,facesParametric,23,59.3986359414,
./stim/MorphM3_02_orig.jpg,129,,,,,0,129,129,129,,,,,,,,,,,,,,,,,,,-23.115234375,-11.806640625,1,0,0,1.75706291199,,,,,2015_Nov_05_1149,G,facesParametric,23,59.3986359414,
./stim/MorphF9_10_orig.jpg,130,,,,,0,130,130,130,,,,,,,,,,,,,,,,,,,-23.115234375,-11.806640625,0,0,1,1.01928687096,,,,,2015_Nov_05_1149,G,facesParametric,23,59.3986359414,
./stim/MorphM7_08_orig.jpg,131,,,,,0,131,131,131,,,,,,,,,,,,,,,,,,,-23.115234375,-11.806640625,0,0,1,0.86997294426,,,,,2015_Nov_05_1149,G,facesParametric,23,59.3986359414,
./stim/MorphF10_09_orig.jpg,132,,,,,0,132,132,132,,,,,,,,,,,,,,,,,,,-23.115234375,-11.806640625,0,0,1,0.854029893875,,,,,2015_Nov_05_1149,G,facesParametric,23,59.3986359414,
./stim/MorphM1_08_orig.jpg,133,,,,,0,133,133,133,,,,,,,,,,,,,,,,,,,-23.115234375,-11.806640625,0,0,1,0.80042886734,,,,,2015_Nov_05_1149,G,facesParametric,23,59.3986359414,
./stim/MorphM2_06_orig.jpg,134,,,,,0,134,134,134,,,,,,,,,,,,,,,,,,,-23.115234375,-11.806640625,1,0,0,2.21065998077,,,,,2015_Nov_05_1149,G,facesParametric,23,59.3986359414,
./stim/MorphM9_10_orig.jpg,135,,,,,0,135,135,135,,,,,,,,,,,,,,,,,,,-23.115234375,-11.806640625,0,0,1,5.84778785706,,,,,2015_Nov_05_1149,G,facesParametric,23,59.3986359414,
./stim/MorphF3_01_orig.jpg,136,,,,,0,136,136,136,,,,,,,,,,,,,,,,,,,-23.115234375,-11.806640625,1,0,0,2.29461193085,,,,,2015_Nov_05_1149,G,facesParametric,23,59.3986359414,
./stim/MorphM7_04_orig.jpg,137,,,,,0,137,137,137,,,,,,,,,,,,,,,,,,,-23.115234375,-11.806640625,1,0,0,6.33414101601,,,,,2015_Nov_05_1149,G,facesParametric,23,59.3986359414,
./stim/MorphF7_04_orig.jpg,138,,,,,0,138,138,138,,,,,,,,,,,,,,,,,,,-23.115234375,-11.806640625,1,0,0,1.42312502861,,,,,2015_Nov_05_1149,G,facesParametric,23,59.3986359414,
./stim/MorphF10_10_orig.jpg,139,,,,,0,139,139,139,,,,,,,,,,,,,,,,,,,-23.115234375,-11.806640625,0,0,1,0.853478908539,,,,,2015_Nov_05_1149,G,facesParametric,23,59.3986359414,
./stim/MorphF7_10_orig.jpg,140,,,,,0,140,140,140,,,,,,,,,,,,,,,,,,,-23.115234375,-11.806640625,0,0,1,0.720329046249,,,,,2015_Nov_05_1149,G,facesParametric,23,59.3986359414,
./stim/MorphM4_08_orig.jpg,141,,,,,0,141,141,141,,,,,,,,,,,,,,,,,,,-23.115234375,-11.806640625,0,0,1,1.32224678993,,,,,2015_Nov_05_1149,G,facesParametric,23,59.3986359414,
./stim/MorphM2_09_orig.jpg,142,,,,,0,142,142,142,,,,,,,,,,,,,,,,,,,-23.115234375,-11.806640625,0,0,1,0.73597407341,,,,,2015_Nov_05_1149,G,facesParametric,23,59.3986359414,
./stim/MorphF9_07_orig.jpg,143,,,,,0,143,143,143,,,,,,,,,,,,,,,,,,,-23.115234375,-11.806640625,0,0,1,0.736134052277,,,,,2015_Nov_05_1149,G,facesParametric,23,59.3986359414,
./stim/MorphM6_09_orig.jpg,144,,,,,0,144,144,144,,,,,,,,,,,,,,,,,,,-23.115234375,-11.806640625,0,0,1,1.57386994362,,,,,2015_Nov_05_1149,G,facesParametric,23,59.3986359414,
./stim/MorphM10_04_orig.jpg,145,,,,,0,145,145,145,,,,,,,,,,,,,,,,,,,-23.115234375,-11.806640625,1,0,0,1.35541009903,,,,,2015_Nov_05_1149,G,facesParametric,23,59.3986359414,
./stim/MorphF2_01_orig.jpg,146,,,,,0,146,146,146,,,,,,,,,,,,,,,,,,,-23.115234375,-11.806640625,1,0,0,0.954540967941,,,,,2015_Nov_05_1149,G,facesParametric,23,59.3986359414,
./stim/MorphF8_09_orig.jpg,147,,,,,0,147,147,147,,,,,,,,,,,,,,,,,,,-23.115234375,-11.806640625,0,0,1,1.42307686806,,,,,2015_Nov_05_1149,G,facesParametric,23,59.3986359414,
./stim/MorphF10_02_orig.jpg,148,,,,,0,148,148,148,,,,,,,,,,,,,,,,,,,-23.115234375,-11.806640625,0,0,1,0.685570001602,,,,,2015_Nov_05_1149,G,facesParametric,23,59.3986359414,
./stim/MorphM6_00_orig.jpg,149,,,,,0,149,149,149,,,,,,,,,,,,,,,,,,,-23.115234375,-11.806640625,1,0,0,1.23733711243,,,,,2015_Nov_05_1149,G,facesParametric,23,59.3986359414,
./stim/MorphM8_09_orig.jpg,150,,,,,0,150,150,150,,,,,,,,,,,,,,,,,,,-23.115234375,-11.806640625,0,0,1,2.0582690239,,,,,2015_Nov_05_1149,G,facesParametric,23,59.3986359414,
./stim/MorphM1_03_orig.jpg,151,,,,,0,151,151,151,,,,,,,,,,,,,,,,,,,-23.115234375,-11.806640625,1,0,0,1.28930187225,,,,,2015_Nov_05_1149,G,facesParametric,23,59.3986359414,
./stim/MorphM4_02_orig.jpg,152,,,,,0,152,152,152,,,,,,,,,,,,,,,,,,,-23.115234375,-11.806640625,1,0,0,1.05252790451,,,,,2015_Nov_05_1149,G,facesParametric,23,59.3986359414,
./stim/MorphF7_06_orig.jpg,153,,,,,0,153,153,153,,,,,,,,,,,,,,,,,,,-23.115234375,-11.806640625,1,0,0,3.65115594864,,,,,2015_Nov_05_1149,G,facesParametric,23,59.3986359414,
./stim/MorphF3_03_orig.jpg,154,,,,,0,154,154,154,,,,,,,,,,,,,,,,,,,-23.115234375,-11.806640625,1,0,0,1.17098903656,,,,,2015_Nov_05_1149,G,facesParametric,23,59.3986359414,
./stim/MorphF6_08_orig.jpg,155,,,,,0,155,155,155,,,,,,,,,,,,,,,,,,,-23.115234375,-11.806640625,0,0,1,0.954148054123,,,,,2015_Nov_05_1149,G,facesParametric,23,59.3986359414,
./stim/MorphM1_09_orig.jpg,156,,,,,0,156,156,156,,,,,,,,,,,,,,,,,,,-23.115234375,-11.806640625,0,0,1,1.35617113113,,,,,2015_Nov_05_1149,G,facesParametric,23,59.3986359414,
./stim/MorphM6_10_orig.jpg,157,,,,,0,157,157,157,,,,,,,,,,,,,,,,,,,-23.115234375,-11.806640625,0,0,1,2.56140303612,,,,,2015_Nov_05_1149,G,facesParametric,23,59.3986359414,
./stim/MorphF4_02_orig.jpg,158,,,,,0,158,158,158,,,,,,,,,,,,,,,,,,,-23.115234375,-11.806640625,1,0,0,1.25460410118,,,,,2015_Nov_05_1149,G,facesParametric,23,59.3986359414,
./stim/MorphM4_00_orig.jpg,159,,,,,0,159,159,159,,,,,,,,,,,,,,,,,,,-23.115234375,-11.806640625,1,0,0,2.5128030777,,,,,2015_Nov_05_1149,G,facesParametric,23,59.3986359414,
./stim/MorphM7_00_orig.jpg,160,,,,,0,160,160,160,,,,,,,,,,,,,,,,,,,-23.115234375,-11.806640625,1,0,0,1.03810787201,,,,,2015_Nov_05_1149,G,facesParametric,23,59.3986359414,
./stim/MorphM9_01_orig.jpg,161,,,,,0,161,161,161,,,,,,,,,,,,,,,,,,,-23.115234375,-11.806640625,1,0,0,1.28899407387,,,,,2015_Nov_05_1149,G,facesParametric,23,59.3986359414,
./stim/MorphM7_03_orig.jpg,162,,,,,0,162,162,162,,,,,,,,,,,,,,,,,,,-23.115234375,-11.806640625,1,0,0,1.90984892845,,,,,2015_Nov_05_1149,G,facesParametric,23,59.3986359414,
./stim/MorphF1_02_orig.jpg,163,,,,,0,163,163,163,,,,,,,,,,,,,,,,,,,-23.115234375,-11.806640625,1,0,0,3.51750183105,,,,,2015_Nov_05_1149,G,facesParametric,23,59.3986359414,
./stim/MorphF8_02_orig.jpg,164,,,,,0,164,164,164,,,,,,,,,,,,,,,,,,,-23.115234375,-11.806640625,1,0,0,0.970855951309,,,,,2015_Nov_05_1149,G,facesParametric,23,59.3986359414,
./stim/MorphM2_04_orig.jpg,165,,,,,0,165,165,165,,,,,,,,,,,,,,,,,,,-23.115234375,-11.806640625,1,0,0,0.752389907837,,,,,2015_Nov_05_1149,G,facesParametric,23,59.3986359414,
./stim/MorphF3_08_orig.jpg,166,,,,,0,166,166,166,,,,,,,,,,,,,,,,,,,-23.115234375,-11.806640625,0,0,1,1.23924803734,,,,,2015_Nov_05_1149,G,facesParametric,23,59.3986359414,
./stim/MorphM5_03_orig.jpg,167,,,,,0,167,167,167,,,,,,,,,,,,,,,,,,,-23.115234375,-11.806640625,0,0,1,0.870017051697,,,,,2015_Nov_05_1149,G,facesParametric,23,59.3986359414,
./stim/MorphM3_00_orig.jpg,168,,,,,0,168,168,168,,,,,,,,,,,,,,,,,,,-23.115234375,-11.806640625,1,0,0,3.63565683365,,,,,2015_Nov_05_1149,G,facesParametric,23,59.3986359414,
./stim/MorphF8_06_orig.jpg,169,,,,,0,169,169,169,,,,,,,,,,,,,,,,,,,-23.115234375,-11.806640625,1,0,0,2.64712905884,,,,,2015_Nov_05_1149,G,facesParametric,23,59.3986359414,
./stim/MorphM9_06_orig.jpg,170,,,,,0,170,170,170,,,,,,,,,,,,,,,,,,,-23.115234375,-11.806640625,1,0,0,0.987251996994,,,,,2015_Nov_05_1149,G,facesParametric,23,59.3986359414,
./stim/MorphM10_02_orig.jpg,171,,,,,0,171,171,171,,,,,,,,,,,,,,,,,,,-23.115234375,-11.806640625,1,0,0,1.35675096512,,,,,2015_Nov_05_1149,G,facesParametric,23,59.3986359414,
./stim/MorphM9_05_orig.jpg,172,,,,,0,172,172,172,,,,,,,,,,,,,,,,,,,-23.115234375,-11.806640625,1,0,0,1.10234594345,,,,,2015_Nov_05_1149,G,facesParametric,23,59.3986359414,
./stim/MorphF10_03_orig.jpg,173,,,,,0,173,173,173,,,,,,,,,,,,,,,,,,,-23.115234375,-11.806640625,1,0,0,1.1888589859,,,,,2015_Nov_05_1149,G,facesParametric,23,59.3986359414,
./stim/MorphM7_01_orig.jpg,174,,,,,0,174,174,174,,,,,,,,,,,,,,,,,,,-23.115234375,-11.806640625,1,0,0,1.60600495338,,,,,2015_Nov_05_1149,G,facesParametric,23,59.3986359414,
./stim/MorphM6_07_orig.jpg,175,,,,,0,175,175,175,,,,,,,,,,,,,,,,,,,-23.115234375,-11.806640625,1,0,0,1.47332119942,,,,,2015_Nov_05_1149,G,facesParametric,23,59.3986359414,
./stim/MorphM4_06_orig.jpg,176,,,,,0,176,176,176,,,,,,,,,,,,,,,,,,,-23.115234375,-11.806640625,0,0,1,1.53946495056,,,,,2015_Nov_05_1149,G,facesParametric,23,59.3986359414,
./stim/MorphF9_06_orig.jpg,177,,,,,0,177,177,177,,,,,,,,,,,,,,,,,,,-23.115234375,-11.806640625,1,0,0,1.188601017,,,,,2015_Nov_05_1149,G,facesParametric,23,59.3986359414,
./stim/MorphF8_05_orig.jpg,178,,,,,0,178,178,178,,,,,,,,,,,,,,,,,,,-23.115234375,-11.806640625,1,0,0,0.92093706131,,,,,2015_Nov_05_1149,G,facesParametric,23,59.3986359414,
./stim/MorphM9_04_orig.jpg,179,,,,,0,179,179,179,,,,,,,,,,,,,,,,,,,-23.115234375,-11.806640625,1,0,0,1.95828104019,,,,,2015_Nov_05_1149,G,facesParametric,23,59.3986359414,
./stim/MorphF6_03_orig.jpg,180,,,,,0,180,180,180,,,,,,,,,,,,,,,,,,,-23.115234375,-11.806640625,1,0,0,1.1387450695,,,,,2015_Nov_05_1149,G,facesParametric,23,59.3986359414,
./stim/MorphF7_03_orig.jpg,181,,,,,0,181,181,181,,,,,,,,,,,,,,,,,,,-23.115234375,-11.806640625,1,0,0,1.18864989281,,,,,2015_Nov_05_1149,G,facesParametric,23,59.3986359414,
./stim/MorphM4_04_orig.jpg,182,,,,,0,182,182,182,,,,,,,,,,,,,,,,,,,-23.115234375,-11.806640625,1,0,0,4.18667817116,,,,,2015_Nov_05_1149,G,facesParametric,23,59.3986359414,
./stim/MorphF4_07_orig.jpg,183,,,,,0,183,183,183,,,,,,,,,,,,,,,,,,,-23.115234375,-11.806640625,0,0,1,1.23880410194,,,,,2015_Nov_05_1149,G,facesParametric,23,59.3986359414,
./stim/MorphF2_00_orig.jpg,184,,,,,0,184,184,184,,,,,,,,,,,,,,,,,,,-23.115234375,-11.806640625,1,0,0,1.18913006783,,,,,2015_Nov_05_1149,G,facesParametric,23,59.3986359414,
./stim/MorphM1_06_orig.jpg,185,,,,,0,185,185,185,,,,,,,,,,,,,,,,,,,-23.115234375,-11.806640625,1,0,0,1.15430092812,,,,,2015_Nov_05_1149,G,facesParametric,23,59.3986359414,
./stim/MorphF3_09_orig.jpg,186,,,,,0,186,186,186,,,,,,,,,,,,,,,,,,,-23.115234375,-11.806640625,0,0,1,1.05345392227,,,,,2015_Nov_05_1149,G,facesParametric,23,59.3986359414,
./stim/MorphF1_06_orig.jpg,187,,,,,0,187,187,187,,,,,,,,,,,,,,,,,,,-23.115234375,-11.806640625,1,0,0,1.48915410042,,,,,2015_Nov_05_1149,G,facesParametric,23,59.3986359414,
./stim/MorphF2_09_orig.jpg,188,,,,,0,188,188,188,,,,,,,,,,,,,,,,,,,-23.115234375,-11.806640625,0,0,1,0.968804836273,,,,,2015_Nov_05_1149,G,facesParametric,23,59.3986359414,
./stim/MorphF4_04_orig.jpg,189,,,,,0,189,189,189,,,,,,,,,,,,,,,,,,,-23.115234375,-11.806640625,1,0,0,1.30451512337,,,,,2015_Nov_05_1149,G,facesParametric,23,59.3986359414,
./stim/MorphF6_06_orig.jpg,190,,,,,0,190,190,190,,,,,,,,,,,,,,,,,,,-23.115234375,-11.806640625,1,0,0,1.67399406433,,,,,2015_Nov_05_1149,G,facesParametric,23,59.3986359414,
./stim/MorphM4_03_orig.jpg,191,,,,,0,191,191,191,,,,,,,,,,,,,,,,,,,-23.115234375,-11.806640625,0,0,1,1.97530603409,,,,,2015_Nov_05_1149,G,facesParametric,23,59.3986359414,
./stim/MorphF4_00_orig.jpg,192,,,,,0,192,192,192,,,,,,,,,,,,,,,,,,,-23.115234375,-11.806640625,1,0,0,2.02665400505,,,,,2015_Nov_05_1149,G,facesParametric,23,59.3986359414,
./stim/MorphM4_05_orig.jpg,193,,,,,0,193,193,193,,,,,,,,,,,,,,,,,,,-23.115234375,-11.806640625,0,0,1,1.15487909317,,,,,2015_Nov_05_1149,G,facesParametric,23,59.3986359414,
./stim/MorphF9_02_orig.jpg,194,,,,,0,194,194,194,,,,,,,,,,,,,,,,,,,-23.115234375,-11.806640625,1,0,0,2.12749385834,,,,,2015_Nov_05_1149,G,facesParametric,23,59.3986359414,
./stim/MorphF1_05_orig.jpg,195,,,,,0,195,195,195,,,,,,,,,,,,,,,,,,,-23.115234375,-11.806640625,1,0,0,0.903162002563,,,,,2015_Nov_05_1149,G,facesParametric,23,59.3986359414,
./stim/MorphM8_02_orig.jpg,196,,,,,0,196,196,196,,,,,,,,,,,,,,,,,,,-23.115234375,-11.806640625,1,0,0,1.77530384064,,,,,2015_Nov_05_1149,G,facesParametric,23,59.3986359414,
./stim/MorphM7_07_orig.jpg,197,,,,,0,197,197,197,,,,,,,,,,,,,,,,,,,-23.115234375,-11.806640625,0,0,1,0.802691936493,,,,,2015_Nov_05_1149,G,facesParametric,23,59.3986359414,
./stim/MorphM10_05_orig.jpg,198,,,,,0,198,198,198,,,,,,,,,,,,,,,,,,,-23.115234375,-11.806640625,0,0,1,0.700883150101,,,,,2015_Nov_05_1149,G,facesParametric,23,59.3986359414,
./stim/MorphF3_02_orig.jpg,199,,,,,0,199,199,199,,,,,,,,,,,,,,,,,,,-23.115234375,-11.806640625,1,0,0,1.45623707771,,,,,2015_Nov_05_1149,G,facesParametric,23,59.3986359414,
./stim/MorphM9_09_orig.jpg,200,,,,,0,200,200,200,,,,,,,,,,,,,,,,,,,-23.115234375,-11.806640625,0,0,1,1.17204499245,,,,,2015_Nov_05_1149,G,facesParametric,23,59.3986359414,
./stim/MorphM6_02_orig.jpg,201,,,,,0,201,201,201,,,,,,,,,,,,,,,,,,,-23.115234375,-11.806640625,1,0,0,2.7972869873,,,,,2015_Nov_05_1149,G,facesParametric,23,59.3986359414,
./stim/MorphM3_08_orig.jpg,202,,,,,0,202,202,202,,,,,,,,,,,,,,,,,,,-23.115234375,-11.806640625,0,0,1,1.2894449234,,,,,2015_Nov_05_1149,G,facesParametric,23,59.3986359414,
./stim/MorphF8_10_orig.jpg,203,,,,,0,203,203,203,,,,,,,,,,,,,,,,,,,-23.115234375,-11.806640625,0,0,1,0.700387954712,,,,,2015_Nov_05_1149,G,facesParametric,23,59.3986359414,
./stim/MorphF5_01_orig.jpg,204,,,,,0,204,204,204,,,,,,,,,,,,,,,,,,,-23.115234375,-11.806640625,1,0,0,0.952455997467,,,,,2015_Nov_05_1149,G,facesParametric,23,59.3986359414,
./stim/MorphM1_05_orig.jpg,205,,,,,0,205,205,205,,,,,,,,,,,,,,,,,,,-23.115234375,-11.806640625,1,0,0,2.16011786461,,,,,2015_Nov_05_1149,G,facesParametric,23,59.3986359414,
./stim/MorphM4_09_orig.jpg,206,,,,,0,206,206,206,,,,,,,,,,,,,,,,,,,-23.115234375,-11.806640625,0,0,1,0.903856039047,,,,,2015_Nov_05_1149,G,facesParametric,23,59.3986359414,
./stim/MorphF3_05_orig.jpg,207,,,,,0,207,207,207,,,,,,,,,,,,,,,,,,,-23.115234375,-11.806640625,1,0,0,1.37304401398,,,,,2015_Nov_05_1149,G,facesParametric,23,59.3986359414,
./stim/MorphF7_05_orig.jpg,208,,,,,0,208,208,208,,,,,,,,,,,,,,,,,,,-23.115234375,-11.806640625,0,0,1,1.08813405037,,,,,2015_Nov_05_1149,G,facesParametric,23,59.3986359414,
./stim/MorphM3_07_orig.jpg,209,,,,,0,209,209,209,,,,,,,,,,,,,,,,,,,-23.115234375,-11.806640625,0,0,1,0.836533784866,,,,,2015_Nov_05_1149,G,facesParametric,23,59.3986359414,
./stim/MorphF6_05_orig.jpg,210,,,,,0,210,210,210,,,,,,,,,,,,,,,,,,,-23.115234375,-11.806640625,1,0,0,1.55559515953,,,,,2015_Nov_05_1149,G,facesParametric,23,59.3986359414,
./stim/MorphF7_08_orig.jpg,211,,,,,0,211,211,211,,,,,,,,,,,,,,,,,,,-23.115234375,-11.806640625,0,0,1,1.64123606682,,,,,2015_Nov_05_1149,G,facesParametric,23,59.3986359414,
./stim/MorphM9_03_orig.jpg,212,,,,,0,212,212,212,,,,,,,,,,,,,,,,,,,-23.115234375,-11.806640625,1,0,0,0.937144994736,,,,,2015_Nov_05_1149,G,facesParametric,23,59.3986359414,
./stim/MorphF1_09_orig.jpg,213,,,,,0,213,213,213,,,,,,,,,,,,,,,,,,,-23.115234375,-11.806640625,1,0,0,1.10409712791,,,,,2015_Nov_05_1149,G,facesParametric,23,59.3986359414,
./stim/MorphF8_07_orig.jpg,214,,,,,0,214,214,214,,,,,,,,,,,,,,,,,,,-23.115234375,-11.806640625,1,0,0,1.74122405052,,,,,2015_Nov_05_1149,G,facesParametric,23,59.3986359414,
./stim/MorphM3_06_orig.jpg,215,,,,,0,215,215,215,,,,,,,,,,,,,,,,,,,-23.115234375,-11.806640625,0,0,1,0.904076099396,,,,,2015_Nov_05_1149,G,facesParametric,23,59.3986359414,
./stim/MorphM2_10_orig.jpg,216,,,,,0,216,216,216,,,,,,,,,,,,,,,,,,,-23.115234375,-11.806640625,0,0,1,0.870406150818,,,,,2015_Nov_05_1149,G,facesParametric,23,59.3986359414,
./stim/MorphM5_04_orig.jpg,217,,,,,0,217,217,217,,,,,,,,,,,,,,,,,,,-23.115234375,-11.806640625,1,0,0,2.07673001289,,,,,2015_Nov_05_1149,G,facesParametric,23,59.3986359414,
./stim/MorphF4_10_orig.jpg,218,,,,,0,218,218,218,,,,,,,,,,,,,,,,,,,-23.115234375,-11.806640625,0,0,1,0.753185033798,,,,,2015_Nov_05_1149,G,facesParametric,23,59.3986359414,
./stim/MorphM2_01_orig.jpg,219,,,,,0,219,219,219,,,,,,,,,,,,,,,,,,,-23.115234375,-11.806640625,1,0,0,3.66736984253,,,,,2015_Nov_05_1149,G,facesParametric,23,59.3986359414,
,,,,,,,,,,,,,,,,,,,,,,,,,,,,,,,,,,return,1.69286894798,,,2015_Nov_05_1149,G,facesParametric,23,59.3986359414,
./stim/MorphM6_06_orig.jpg,0,,,,,,,,,0,0,0,0,,,,,,,,,,,,,,,-23.056640625,-11.953125,1,0,0,2.57300901413,,,,,2015_Nov_05_1149,G,facesParametric,23,59.3986359414,
./stim/MorphF4_07_orig.jpg,1,,,,,,,,,0,1,1,1,,,,,,,,,,,,,,,-23.056640625,-11.953125,0,0,1,1.7413649559,,,,,2015_Nov_05_1149,G,facesParametric,23,59.3986359414,
./stim/MorphF5_09_orig.jpg,2,,,,,,,,,0,2,2,2,,,,,,,,,,,,,,,-23.056640625,-11.953125,0,0,1,0.803180932999,,,,,2015_Nov_05_1149,G,facesParametric,23,59.3986359414,
./stim/MorphF4_00_orig.jpg,3,,,,,,,,,0,3,3,3,,,,,,,,,,,,,,,-23.056640625,-11.953125,1,0,0,1.17202186584,,,,,2015_Nov_05_1149,G,facesParametric,23,59.3986359414,
./stim/MorphF2_05_orig.jpg,4,,,,,,,,,0,4,4,4,,,,,,,,,,,,,,,-23.056640625,-11.953125,0,0,1,1.6750600338,,,,,2015_Nov_05_1149,G,facesParametric,23,59.3986359414,
./stim/MorphF6_00_orig.jpg,5,,,,,,,,,0,5,5,5,,,,,,,,,,,,,,,-23.056640625,-11.953125,1,0,0,1.53945708275,,,,,2015_Nov_05_1149,G,facesParametric,23,59.3986359414,
./stim/MorphF10_01_orig.jpg,6,,,,,,,,,0,6,6,6,,,,,,,,,,,,,,,-23.056640625,-11.953125,0,0,1,1.00457906723,,,,,2015_Nov_05_1149,G,facesParametric,23,59.3986359414,
./stim/MorphM4_03_orig.jpg,7,,,,,,,,,0,7,7,7,,,,,,,,,,,,,,,-23.056640625,-11.953125,0,0,1,0.434395074844,,,,,2015_Nov_05_1149,G,facesParametric,23,59.3986359414,
./stim/MorphF6_08_orig.jpg,8,,,,,,,,,0,8,8,8,,,,,,,,,,,,,,,-23.056640625,-11.953125,1,0,0,2.16143989563,,,,,2015_Nov_05_1149,G,facesParametric,23,59.3986359414,
./stim/MorphM9_08_orig.jpg,9,,,,,,,,,0,9,9,9,,,,,,,,,,,,,,,-23.056640625,-11.953125,0,0,1,2.57934498787,,,,,2015_Nov_05_1149,G,facesParametric,23,59.3986359414,
./stim/MorphM7_03_orig.jpg,10,,,,,,,,,0,10,10,10,,,,,,,,,,,,,,,-23.056640625,-11.953125,1,0,0,1.15482282639,,,,,2015_Nov_05_1149,G,facesParametric,23,59.3986359414,
./stim/MorphM8_03_orig.jpg,11,,,,,,,,,0,11,11,11,,,,,,,,,,,,,,,-23.056640625,-11.953125,0,0,1,0.803395032883,,,,,2015_Nov_05_1149,G,facesParametric,23,59.3986359414,
./stim/MorphM1_07_orig.jpg,12,,,,,,,,,0,12,12,12,,,,,,,,,,,,,,,-23.056640625,-11.953125,1,0,0,1.72528600693,,,,,2015_Nov_05_1149,G,facesParametric,23,59.3986359414,
./stim/MorphM6_03_orig.jpg,13,,,,,,,,,0,13,13,13,,,,,,,,,,,,,,,-23.056640625,-11.953125,0,0,1,0.971432924271,,,,,2015_Nov_05_1149,G,facesParametric,23,59.3986359414,
./stim/MorphM4_09_orig.jpg,14,,,,,,,,,0,14,14,14,,,,,,,,,,,,,,,-23.056640625,-11.953125,0,0,1,0.903241157532,,,,,2015_Nov_05_1149,G,facesParametric,23,59.3986359414,
./stim/MorphM5_05_orig.jpg,15,,,,,,,,,0,15,15,15,,,,,,,,,,,,,,,-23.056640625,-11.953125,1,0,0,1.62436580658,,,,,2015_Nov_05_1149,G,facesParametric,23,59.3986359414,
./stim/MorphM6_10_orig.jpg,16,,,,,,,,,0,16,16,16,,,,,,,,,,,,,,,-23.056640625,-11.953125,0,0,1,4.54013895988,,,,,2015_Nov_05_1149,G,facesParametric,23,59.3986359414,
./stim/MorphM4_00_orig.jpg,17,,,,,,,,,0,17,17,17,,,,,,,,,,,,,,,-23.056640625,-11.953125,1,0,0,2.07732605934,,,,,2015_Nov_05_1149,G,facesParametric,23,59.3986359414,
./stim/MorphM5_01_orig.jpg,18,,,,,,,,,0,18,18,18,,,,,,,,,,,,,,,-23.056640625,-11.953125,1,0,0,1.37190794945,,,,,2015_Nov_05_1149,G,facesParametric,23,59.3986359414,
./stim/MorphF9_09_orig.jpg,19,,,,,,,,,0,19,19,19,,,,,,,,,,,,,,,-23.056640625,-11.953125,0,0,1,1.7076561451,,,,,2015_Nov_05_1149,G,facesParametric,23,59.3986359414,
./stim/MorphF7_08_orig.jpg,20,,,,,,,,,0,20,20,20,,,,,,,,,,,,,,,-23.056640625,-11.953125,0,0,1,2.11032295227,,,,,2015_Nov_05_1149,G,facesParametric,23,59.3986359414,
./stim/MorphF1_02_orig.jpg,21,,,,,,,,,0,21,21,21,,,,,,,,,,,,,,,-23.056640625,-11.953125,1,0,0,1.22210478783,,,,,2015_Nov_05_1149,G,facesParametric,23,59.3986359414,
./stim/MorphM5_07_orig.jpg,22,,,,,,,,,0,22,22,22,,,,,,,,,,,,,,,-23.056640625,-11.953125,0,0,1,0.937519073486,,,,,2015_Nov_05_1149,G,facesParametric,23,59.3986359414,
./stim/MorphF3_01_orig.jpg,23,,,,,,,,,0,23,23,23,,,,,,,,,,,,,,,-23.056640625,-11.953125,1,0,0,1.79184103012,,,,,2015_Nov_05_1149,G,facesParametric,23,59.3986359414,
./stim/MorphF1_07_orig.jpg,24,,,,,,,,,0,24,24,24,,,,,,,,,,,,,,,-23.056640625,-11.953125,0,0,1,1.1886920929,,,,,2015_Nov_05_1149,G,facesParametric,23,59.3986359414,
./stim/MorphM8_07_orig.jpg,25,,,,,,,,,0,25,25,25,,,,,,,,,,,,,,,-23.056640625,-11.953125,0,0,1,0.951599836349,,,,,2015_Nov_05_1149,G,facesParametric,23,59.3986359414,
./stim/MorphM3_05_orig.jpg,26,,,,,,,,,0,26,26,26,,,,,,,,,,,,,,,-23.056640625,-11.953125,0,0,1,1.10454082489,,,,,2015_Nov_05_1149,G,facesParametric,23,59.3986359414,
./stim/MorphM8_04_orig.jpg,27,,,,,,,,,0,27,27,27,,,,,,,,,,,,,,,-23.056640625,-11.953125,1,0,0,1.13848304749,,,,,2015_Nov_05_1149,G,facesParametric,23,59.3986359414,
./stim/MorphM2_08_orig.jpg,28,,,,,,,,,0,28,28,28,,,,,,,,,,,,,,,-23.056640625,-11.953125,0,0,1,3.21673083305,,,,,2015_Nov_05_1149,G,facesParametric,23,59.3986359414,
./stim/MorphM8_00_orig.jpg,29,,,,,,,,,0,29,29,29,,,,,,,,,,,,,,,-23.056640625,-11.953125,1,0,0,1.10406088829,,,,,2015_Nov_05_1149,G,facesParametric,23,59.3986359414,
./stim/MorphM4_10_orig.jpg,30,,,,,,,,,0,30,30,30,,,,,,,,,,,,,,,-23.056640625,-11.953125,0,0,1,1.15501594543,,,,,2015_Nov_05_1149,G,facesParametric,23,59.3986359414,
./stim/MorphF4_09_orig.jpg,31,,,,,,,,,0,31,31,31,,,,,,,,,,,,,,,-23.056640625,-11.953125,0,0,1,0.719502925873,,,,,2015_Nov_05_1149,G,facesParametric,23,59.3986359414,
./stim/MorphM8_05_orig.jpg,32,,,,,,,,,0,32,32,32,,,,,,,,,,,,,,,-23.056640625,-11.953125,0,0,1,1.1883919239,,,,,2015_Nov_05_1149,G,facesParametric,23,59.3986359414,
./stim/MorphF8_08_orig.jpg,33,,,,,,,,,0,33,33,33,,,,,,,,,,,,,,,-23.056640625,-11.953125,0,0,1,3.41599607468,,,,,2015_Nov_05_1149,G,facesParametric,23,59.3986359414,
./stim/MorphF5_08_orig.jpg,34,,,,,,,,,0,34,34,34,,,,,,,,,,,,,,,-23.056640625,-11.953125,0,0,1,2.3609650135,,,,,2015_Nov_05_1149,G,facesParametric,23,59.3986359414,
./stim/MorphF10_05_orig.jpg,35,,,,,,,,,0,35,35,35,,,,,,,,,,,,,,,-23.056640625,-11.953125,1,0,0,0.85319685936,,,,,2015_Nov_05_1149,G,facesParametric,23,59.3986359414,
./stim/MorphF9_06_orig.jpg,36,,,,,,,,,0,36,36,36,,,,,,,,,,,,,,,-23.056640625,-11.953125,0,0,1,1.89253282547,,,,,2015_Nov_05_1149,G,facesParametric,23,59.3986359414,
./stim/MorphM4_08_orig.jpg,37,,,,,,,,,0,37,37,37,,,,,,,,,,,,,,,-23.056640625,-11.953125,0,0,1,1.25591897964,,,,,2015_Nov_05_1149,G,facesParametric,23,59.3986359414,
./stim/MorphF2_04_orig.jpg,38,,,,,,,,,0,38,38,38,,,,,,,,,,,,,,,-23.056640625,-11.953125,1,0,0,1.22072601318,,,,,2015_Nov_05_1149,G,facesParametric,23,59.3986359414,
./stim/MorphF9_07_orig.jpg,39,,,,,,,,,0,39,39,39,,,,,,,,,,,,,,,-23.056640625,-11.953125,1,0,0,1.10490322113,,,,,2015_Nov_05_1149,G,facesParametric,23,59.3986359414,
./stim/MorphM2_09_orig.jpg,40,,,,,,,,,0,40,40,40,,,,,,,,,,,,,,,-23.056640625,-11.953125,0,0,1,0.75261092186,,,,,2015_Nov_05_1149,G,facesParametric,23,59.3986359414,
./stim/MorphF7_04_orig.jpg,41,,,,,,,,,0,41,41,41,,,,,,,,,,,,,,,-23.056640625,-11.953125,1,0,0,1.30450701714,,,,,2015_Nov_05_1149,G,facesParametric,23,59.3986359414,
./stim/MorphM9_09_orig.jpg,42,,,,,,,,,0,42,42,42,,,,,,,,,,,,,,,-23.056640625,-11.953125,0,0,1,0.786389112473,,,,,2015_Nov_05_1149,G,facesParametric,23,59.3986359414,
./stim/MorphF3_08_orig.jpg,43,,,,,,,,,0,43,43,43,,,,,,,,,,,,,,,-23.056640625,-11.953125,0,0,1,0.686090946198,,,,,2015_Nov_05_1149,G,facesParametric,23,59.3986359414,
./stim/MorphM10_00_orig.jpg,44,,,,,,,,,0,44,44,44,,,,,,,,,,,,,,,-23.056640625,-11.953125,0,0,1,0.81994509697,,,,,2015_Nov_05_1149,G,facesParametric,23,59.3986359414,
./stim/MorphF9_03_orig.jpg,45,,,,,,,,,0,45,45,45,,,,,,,,,,,,,,,-23.056640625,-11.953125,1,0,0,1.20552778244,,,,,2015_Nov_05_1149,G,facesParametric,23,59.3986359414,
./stim/MorphF5_10_orig.jpg,46,,,,,,,,,0,46,46,46,,,,,,,,,,,,,,,-23.056640625,-11.953125,0,0,1,0.954363822937,,,,,2015_Nov_05_1149,G,facesParametric,23,59.3986359414,
./stim/MorphM6_08_orig.jpg,47,,,,,,,,,0,47,47,47,,,,,,,,,,,,,,,-23.056640625,-11.953125,0,0,1,1.15505290031,,,,,2015_Nov_05_1149,G,facesParametric,23,59.3986359414,
./stim/MorphF8_04_orig.jpg,48,,,,,,,,,0,48,48,48,,,,,,,,,,,,,,,-23.056640625,-11.953125,0,0,1,2.46249008179,,,,,2015_Nov_05_1149,G,facesParametric,23,59.3986359414,
./stim/MorphM1_05_orig.jpg,49,,,,,,,,,0,49,49,49,,,,,,,,,,,,,,,-23.056640625,-11.953125,1,0,0,0.987951040268,,,,,2015_Nov_05_1149,G,facesParametric,23,59.3986359414,
./stim/MorphF7_00_orig.jpg,50,,,,,,,,,0,50,50,50,,,,,,,,,,,,,,,-23.056640625,-11.953125,1,0,0,1.38920092583,,,,,2015_Nov_05_1149,G,facesParametric,23,59.3986359414,
./stim/MorphF6_03_orig.jpg,51,,,,,,,,,0,51,51,51,,,,,,,,,,,,,,,-23.056640625,-11.953125,0,0,1,1.13831090927,,,,,2015_Nov_05_1149,G,facesParametric,23,59.3986359414,
./stim/MorphM7_10_orig.jpg,52,,,,,,,,,0,52,52,52,,,,,,,,,,,,,,,-23.056640625,-11.953125,0,0,1,0.736431121826,,,,,2015_Nov_05_1149,G,facesParametric,23,59.3986359414,
./stim/MorphM10_05_orig.jpg,53,,,,,,,,,0,53,53,53,,,,,,,,,,,,,,,-23.056640625,-11.953125,0,0,1,0.736091136932,,,,,2015_Nov_05_1149,G,facesParametric,23,59.3986359414,
./stim/MorphM7_02_orig.jpg,54,,,,,,,,,0,54,54,54,,,,,,,,,,,,,,,-23.056640625,-11.953125,1,0,0,1.27093195915,,,,,2015_Nov_05_1149,G,facesParametric,23,59.3986359414,
./stim/MorphF8_09_orig.jpg,55,,,,,,,,,0,55,55,55,,,,,,,,,,,,,,,-23.056640625,-11.953125,0,0,1,0.803161144257,,,,,2015_Nov_05_1149,G,facesParametric,23,59.3986359414,
./stim/MorphF2_08_orig.jpg,56,,,,,,,,,0,56,56,56,,,,,,,,,,,,,,,-23.056640625,-11.953125,0,0,1,0.920314073563,,,,,2015_Nov_05_1149,G,facesParametric,23,59.3986359414,
./stim/MorphM2_05_orig.jpg,57,,,,,,,,,0,57,57,57,,,,,,,,,,,,,,,-23.056640625,-11.953125,0,0,1,0.953266143799,,,,,2015_Nov_05_1149,G,facesParametric,23,59.3986359414,
./stim/MorphM5_10_orig.jpg,58,,,,,,,,,0,58,58,58,,,,,,,,,,,,,,,-23.056640625,-11.953125,0,0,1,0.736876010895,,,,,2015_Nov_05_1149,G,facesParametric,23,59.3986359414,
./stim/MorphF3_04_orig.jpg,59,,,,,,,,,0,59,59,59,,,,,,,,,,,,,,,-23.056640625,-11.953125,0,0,1,0.700759887695,,,,,2015_Nov_05_1149,G,facesParametric,23,59.3986359414,
./stim/MorphF1_06_orig.jpg,60,,,,,,,,,0,60,60,60,,,,,,,,,,,,,,,-23.056640625,-11.953125,0,0,1,1.85881996155,,,,,2015_Nov_05_1149,G,facesParametric,23,59.3986359414,
./stim/MorphM10_07_orig.jpg,61,,,,,,,,,0,61,61,61,,,,,,,,,,,,,,,-23.056640625,-11.953125,0,0,1,0.783963918686,,,,,2015_Nov_05_1149,G,facesParametric,23,59.3986359414,
./stim/MorphM2_02_orig.jpg,62,,,,,,,,,0,62,62,62,,,,,,,,,,,,,,,-23.056640625,-11.953125,1,0,0,1.67300987244,,,,,2015_Nov_05_1149,G,facesParametric,23,59.3986359414,
./stim/MorphF4_02_orig.jpg,63,,,,,,,,,0,63,63,63,,,,,,,,,,,,,,,-23.056640625,-11.953125,1,0,0,0.918591976166,,,,,2015_Nov_05_1149,G,facesParametric,23,59.3986359414,
./stim/MorphM3_08_orig.jpg,64,,,,,,,,,0,64,64,64,,,,,,,,,,,,,,,-23.056640625,-11.953125,0,0,1,1.03797197342,,,,,2015_Nov_05_1149,G,facesParametric,23,59.3986359414,
./stim/MorphM6_07_orig.jpg,65,,,,,,,,,0,65,65,65,,,,,,,,,,,,,,,-23.056640625,-11.953125,0,0,1,0.70266699791,,,,,2015_Nov_05_1149,G,facesParametric,23,59.3986359414,
./stim/MorphM9_00_orig.jpg,66,,,,,,,,,0,66,66,66,,,,,,,,,,,,,,,-23.056640625,-11.953125,1,0,0,1.10550284386,,,,,2015_Nov_05_1149,G,facesParametric,23,59.3986359414,
./stim/MorphM6_09_orig.jpg,67,,,,,,,,,0,67,67,67,,,,,,,,,,,,,,,-23.056640625,-11.953125,0,0,1,0.918125867844,,,,,2015_Nov_05_1149,G,facesParametric,23,59.3986359414,
./stim/MorphM3_06_orig.jpg,68,,,,,,,,,0,68,68,68,,,,,,,,,,,,,,,-23.056640625,-11.953125,0,0,1,0.954504966736,,,,,2015_Nov_05_1149,G,facesParametric,23,59.3986359414,
./stim/MorphF5_05_orig.jpg,69,,,,,,,,,0,69,69,69,,,,,,,,,,,,,,,-23.056640625,-11.953125,1,0,0,1.59030199051,,,,,2015_Nov_05_1149,G,facesParametric,23,59.3986359414,
./stim/MorphM4_01_orig.jpg,70,,,,,,,,,0,70,70,70,,,,,,,,,,,,,,,-23.056640625,-11.953125,0,0,1,0.752694129944,,,,,2015_Nov_05_1149,G,facesParametric,23,59.3986359414,
./stim/MorphM10_09_orig.jpg,71,,,,,,,,,0,71,71,71,,,,,,,,,,,,,,,-23.056640625,-11.953125,0,0,1,0.720927000046,,,,,2015_Nov_05_1149,G,facesParametric,23,59.3986359414,
./stim/MorphM9_04_orig.jpg,72,,,,,,,,,0,72,72,72,,,,,,,,,,,,,,,-23.056640625,-11.953125,1,0,0,1.01740098,,,,,2015_Nov_05_1149,G,facesParametric,23,59.3986359414,
./stim/MorphM4_06_orig.jpg,73,,,,,,,,,0,73,73,73,,,,,,,,,,,,,,,-23.056640625,-11.953125,0,0,1,1.89267110825,,,,,2015_Nov_05_1149,G,facesParametric,23,59.3986359414,
./stim/MorphF5_03_orig.jpg,74,,,,,,,,,0,74,74,74,,,,,,,,,,,,,,,-23.056640625,-11.953125,1,0,0,0.852109909058,,,,,2015_Nov_05_1149,G,facesParametric,23,59.3986359414,
./stim/MorphF2_06_orig.jpg,75,,,,,,,,,0,75,75,75,,,,,,,,,,,,,,,-23.056640625,-11.953125,0,0,1,1.23890304565,,,,,2015_Nov_05_1149,G,facesParametric,23,59.3986359414,
./stim/MorphM3_00_orig.jpg,76,,,,,,,,,0,76,76,76,,,,,,,,,,,,,,,-23.056640625,-11.953125,0,0,1,0.71958899498,,,,,2015_Nov_05_1149,G,facesParametric,23,59.3986359414,
./stim/MorphF3_07_orig.jpg,77,,,,,,,,,0,77,77,77,,,,,,,,,,,,,,,-23.056640625,-11.953125,0,0,1,0.869630098343,,,,,2015_Nov_05_1149,G,facesParametric,23,59.3986359414,
./stim/MorphM1_10_orig.jpg,78,,,,,,,,,0,78,78,78,,,,,,,,,,,,,,,-23.056640625,-11.953125,0,0,1,1.57405614853,,,,,2015_Nov_05_1149,G,facesParametric,23,59.3986359414,
./stim/MorphM5_04_orig.jpg,79,,,,,,,,,0,79,79,79,,,,,,,,,,,,,,,-23.056640625,-11.953125,0,0,1,1.00484585762,,,,,2015_Nov_05_1149,G,facesParametric,23,59.3986359414,
./stim/MorphF8_07_orig.jpg,80,,,,,,,,,0,80,80,80,,,,,,,,,,,,,,,-23.056640625,-11.953125,1,0,0,0.970654964447,,,,,2015_Nov_05_1149,G,facesParametric,23,59.3986359414,
./stim/MorphF9_00_orig.jpg,81,,,,,,,,,0,81,81,81,,,,,,,,,,,,,,,-23.056640625,-11.953125,1,0,0,1.10377192497,,,,,2015_Nov_05_1149,G,facesParametric,23,59.3986359414,
./stim/MorphM7_06_orig.jpg,82,,,,,,,,,0,82,82,82,,,,,,,,,,,,,,,-23.056640625,-11.953125,0,0,1,1.57410502434,,,,,2015_Nov_05_1149,G,facesParametric,23,59.3986359414,
./stim/MorphM8_02_orig.jpg,83,,,,,,,,,0,83,83,83,,,,,,,,,,,,,,,-23.056640625,-11.953125,0,0,1,1.10521006584,,,,,2015_Nov_05_1149,G,facesParametric,23,59.3986359414,
./stim/MorphF3_02_orig.jpg,84,,,,,,,,,0,84,84,84,,,,,,,,,,,,,,,-23.056640625,-11.953125,1,0,0,1.45571994781,,,,,2015_Nov_05_1149,G,facesParametric,23,59.3986359414,
./stim/MorphF10_06_orig.jpg,85,,,,,,,,,0,85,85,85,,,,,,,,,,,,,,,-23.056640625,-11.953125,0,0,1,0.953867912292,,,,,2015_Nov_05_1149,G,facesParametric,23,59.3986359414,
./stim/MorphM4_07_orig.jpg,86,,,,,,,,,0,86,86,86,,,,,,,,,,,,,,,-23.056640625,-11.953125,0,0,1,0.769685029984,,,,,2015_Nov_05_1149,G,facesParametric,23,59.3986359414,
./stim/MorphM2_06_orig.jpg,87,,,,,,,,,0,87,87,87,,,,,,,,,,,,,,,-23.056640625,-11.953125,0,0,1,1.8244638443,,,,,2015_Nov_05_1149,G,facesParametric,23,59.3986359414,
./stim/MorphF9_10_orig.jpg,88,,,,,,,,,0,88,88,88,,,,,,,,,,,,,,,-23.056640625,-11.953125,0,0,1,0.753123044968,,,,,2015_Nov_05_1149,G,facesParametric,23,59.3986359414,
./stim/MorphM1_02_orig.jpg,89,,,,,,,,,0,89,89,89,,,,,,,,,,,,,,,-23.056640625,-11.953125,1,0,0,0.87043595314,,,,,2015_Nov_05_1149,G,facesParametric,23,59.3986359414,
./stim/MorphM4_05_orig.jpg,90,,,,,,,,,0,90,90,90,,,,,,,,,,,,,,,-23.056640625,-11.953125,0,0,1,0.901566028595,,,,,2015_Nov_05_1149,G,facesParametric,23,59.3986359414,
./stim/MorphM2_10_orig.jpg,91,,,,,,,,,0,91,91,91,,,,,,,,,,,,,,,-23.056640625,-11.953125,0,0,1,1.28942608833,,,,,2015_Nov_05_1149,G,facesParametric,23,59.3986359414,
./stim/MorphF6_06_orig.jpg,92,,,,,,,,,0,92,92,92,,,,,,,,,,,,,,,-23.056640625,-11.953125,1,0,0,1.10298490524,,,,,2015_Nov_05_1149,G,facesParametric,23,59.3986359414,
./stim/MorphF9_05_orig.jpg,93,,,,,,,,,0,93,93,93,,,,,,,,,,,,,,,-23.056640625,-11.953125,1,0,0,1.12175393105,,,,,2015_Nov_05_1149,G,facesParametric,23,59.3986359414,
./stim/MorphM1_06_orig.jpg,94,,,,,,,,,0,94,94,94,,,,,,,,,,,,,,,-23.056640625,-11.953125,0,0,1,0.735630989075,,,,,2015_Nov_05_1149,G,facesParametric,23,59.3986359414,
./stim/MorphF4_05_orig.jpg,95,,,,,,,,,0,95,95,95,,,,,,,,,,,,,,,-23.056640625,-11.953125,0,0,1,1.33991599083,,,,,2015_Nov_05_1149,G,facesParametric,23,59.3986359414,
./stim/MorphM2_07_orig.jpg,96,,,,,,,,,0,96,96,96,,,,,,,,,,,,,,,-23.056640625,-11.953125,1,0,0,0.970263957977,,,,,2015_Nov_05_1149,G,facesParametric,23,59.3986359414,
./stim/MorphM5_06_orig.jpg,97,,,,,,,,,0,97,97,97,,,,,,,,,,,,,,,-23.056640625,-11.953125,0,0,1,0.786536931992,,,,,2015_Nov_05_1149,G,facesParametric,23,59.3986359414,
./stim/MorphF7_10_orig.jpg,98,,,,,,,,,0,98,98,98,,,,,,,,,,,,,,,-23.056640625,-11.953125,0,0,1,0.854755878448,,,,,2015_Nov_05_1149,G,facesParametric,23,59.3986359414,
./stim/MorphM9_03_orig.jpg,99,,,,,,,,,0,99,99,99,,,,,,,,,,,,,,,-23.056640625,-11.953125,1,0,0,1.28811502457,,,,,2015_Nov_05_1149,G,facesParametric,23,59.3986359414,
./stim/MorphF6_10_orig.jpg,100,,,,,,,,,0,100,100,100,,,,,,,,,,,,,,,-23.056640625,-11.953125,0,0,1,0.651216983795,,,,,2015_Nov_05_1149,G,facesParametric,23,59.3986359414,
./stim/MorphF1_09_orig.jpg,101,,,,,,,,,0,101,101,101,,,,,,,,,,,,,,,-23.056640625,-11.953125,0,0,1,0.803261995316,,,,,2015_Nov_05_1149,G,facesParametric,23,59.3986359414,
./stim/MorphM9_01_orig.jpg,102,,,,,,,,,0,102,102,102,,,,,,,,,,,,,,,-23.056640625,-11.953125,1,0,0,1.08751511574,,,,,2015_Nov_05_1149,G,facesParametric,23,59.3986359414,
./stim/MorphM3_04_orig.jpg,103,,,,,,,,,0,103,103,103,,,,,,,,,,,,,,,-23.056640625,-11.953125,0,0,1,0.702291965485,,,,,2015_Nov_05_1149,G,facesParametric,23,59.3986359414,
./stim/MorphM2_00_orig.jpg,104,,,,,,,,,0,104,104,104,,,,,,,,,,,,,,,-23.056640625,-11.953125,1,0,0,1.02000594139,,,,,2015_Nov_05_1149,G,facesParametric,23,59.3986359414,
./stim/MorphF10_09_orig.jpg,105,,,,,,,,,0,105,105,105,,,,,,,,,,,,,,,-23.056640625,-11.953125,0,0,1,0.803065061569,,,,,2015_Nov_05_1149,G,facesParametric,23,59.3986359414,
./stim/MorphM8_08_orig.jpg,106,,,,,,,,,0,106,106,106,,,,,,,,,,,,,,,-23.056640625,-11.953125,0,0,1,1.12131500244,,,,,2015_Nov_05_1149,G,facesParametric,23,59.3986359414,
./stim/MorphF4_03_orig.jpg,107,,,,,,,,,0,107,107,107,,,,,,,,,,,,,,,-23.056640625,-11.953125,0,0,1,0.970515966415,,,,,2015_Nov_05_1149,G,facesParametric,23,59.3986359414,
./stim/MorphF2_09_orig.jpg,108,,,,,,,,,0,108,108,108,,,,,,,,,,,,,,,-23.056640625,-11.953125,0,0,1,0.970888853073,,,,,2015_Nov_05_1149,G,facesParametric,23,59.3986359414,
./stim/MorphF1_03_orig.jpg,109,,,,,,,,,0,109,109,109,,,,,,,,,,,,,,,-23.056640625,-11.953125,0,0,1,0.937440156937,,,,,2015_Nov_05_1149,G,facesParametric,23,59.3986359414,
./stim/MorphF3_09_orig.jpg,110,,,,,,,,,0,110,110,110,,,,,,,,,,,,,,,-23.056640625,-11.953125,1,0,0,0.885031938553,,,,,2015_Nov_05_1149,G,facesParametric,23,59.3986359414,
./stim/MorphF7_01_orig.jpg,111,,,,,,,,,0,111,111,111,,,,,,,,,,,,,,,-23.056640625,-11.953125,0,0,1,0.969924926758,,,,,2015_Nov_05_1149,G,facesParametric,23,59.3986359414,
./stim/MorphM10_03_orig.jpg,112,,,,,,,,,0,112,112,112,,,,,,,,,,,,,,,-23.056640625,-11.953125,0,0,1,0.851089954376,,,,,2015_Nov_05_1149,G,facesParametric,23,59.3986359414,
./stim/MorphF8_06_orig.jpg,113,,,,,,,,,0,113,113,113,,,,,,,,,,,,,,,-23.056640625,-11.953125,1,0,0,0.904719114304,,,,,2015_Nov_05_1149,G,facesParametric,23,59.3986359414,
./stim/MorphF3_00_orig.jpg,114,,,,,,,,,0,114,114,114,,,,,,,,,,,,,,,-23.056640625,-11.953125,0,0,1,1.23813796043,,,,,2015_Nov_05_1149,G,facesParametric,23,59.3986359414,
./stim/MorphF8_01_orig.jpg,115,,,,,,,,,0,115,115,115,,,,,,,,,,,,,,,-23.056640625,-11.953125,1,0,0,2.04167604446,,,,,2015_Nov_05_1149,G,facesParametric,23,59.3986359414,
./stim/MorphF1_05_orig.jpg,116,,,,,,,,,0,116,116,116,,,,,,,,,,,,,,,-23.056640625,-11.953125,0,0,1,2.24409103394,,,,,2015_Nov_05_1149,G,facesParametric,23,59.3986359414,
./stim/MorphM8_10_orig.jpg,117,,,,,,,,,0,117,117,117,,,,,,,,,,,,,,,-23.056640625,-11.953125,0,0,1,0.668883800507,,,,,2015_Nov_05_1149,G,facesParametric,23,59.3986359414,
./stim/MorphF1_01_orig.jpg,118,,,,,,,,,0,118,118,118,,,,,,,,,,,,,,,-23.056640625,-11.953125,1,0,0,0.886947870255,,,,,2015_Nov_05_1149,G,facesParametric,23,59.3986359414,
./stim/MorphF3_10_orig.jpg,119,,,,,,,,,0,119,119,119,,,,,,,,,,,,,,,-23.056640625,-11.953125,0,0,1,1.20530986786,,,,,2015_Nov_05_1149,G,facesParametric,23,59.3986359414,
./stim/MorphF1_10_orig.jpg,120,,,,,,,,,0,120,120,120,,,,,,,,,,,,,,,-23.056640625,-11.953125,1,0,0,1.13768696785,,,,,2015_Nov_05_1149,G,facesParametric,23,59.3986359414,
./stim/MorphM3_07_orig.jpg,121,,,,,,,,,0,121,121,121,,,,,,,,,,,,,,,-23.056640625,-11.953125,0,0,1,0.818140983582,,,,,2015_Nov_05_1149,G,facesParametric,23,59.3986359414,
./stim/MorphM1_01_orig.jpg,122,,,,,,,,,0,122,122,122,,,,,,,,,,,,,,,-23.056640625,-11.953125,1,0,0,1.12170386314,,,,,2015_Nov_05_1149,G,facesParametric,23,59.3986359414,
./stim/MorphF6_05_orig.jpg,123,,,,,,,,,0,123,123,123,,,,,,,,,,,,,,,-23.056640625,-11.953125,0,0,1,1.27329206467,,,,,2015_Nov_05_1149,G,facesParametric,23,59.3986359414,
./stim/MorphM9_10_orig.jpg,124,,,,,,,,,0,124,124,124,,,,,,,,,,,,,,,-23.056640625,-11.953125,0,0,1,0.651239871979,,,,,2015_Nov_05_1149,G,facesParametric,23,59.3986359414,
./stim/MorphM10_06_orig.jpg,125,,,,,,,,,0,125,125,125,,,,,,,,,,,,,,,-23.056640625,-11.953125,0,0,1,0.686155080795,,,,,2015_Nov_05_1149,G,facesParametric,23,59.3986359414,
./stim/MorphM3_10_orig.jpg,126,,,,,,,,,0,126,126,126,,,,,,,,,,,,,,,-23.056640625,-11.953125,0,0,1,0.803255081177,,,,,2015_Nov_05_1149,G,facesParametric,23,59.3986359414,
./stim/MorphM6_01_orig.jpg,127,,,,,,,,,0,127,127,127,,,,,,,,,,,,,,,-23.056640625,-11.953125,0,0,1,0.819563150406,,,,,2015_Nov_05_1149,G,facesParametric,23,59.3986359414,
./stim/MorphF8_03_orig.jpg,128,,,,,,,,,0,128,128,128,,,,,,,,,,,,,,,-23.056640625,-11.953125,1,0,0,1.1376979351,,,,,2015_Nov_05_1149,G,facesParametric,23,59.3986359414,
./stim/MorphF3_05_orig.jpg,129,,,,,,,,,0,129,129,129,,,,,,,,,,,,,,,-23.056640625,-11.953125,0,0,1,2.42755508423,,,,,2015_Nov_05_1149,G,facesParametric,23,59.3986359414,
./stim/MorphM10_08_orig.jpg,130,,,,,,,,,0,130,130,130,,,,,,,,,,,,,,,-23.056640625,-11.953125,0,0,1,0.636756896973,,,,,2015_Nov_05_1149,G,facesParametric,23,59.3986359414,
./stim/MorphF7_03_orig.jpg,131,,,,,,,,,0,131,131,131,,,,,,,,,,,,,,,-23.056640625,-11.953125,1,0,0,1.45459198952,,,,,2015_Nov_05_1149,G,facesParametric,23,59.3986359414,
./stim/MorphF10_03_orig.jpg,132,,,,,,,,,0,132,132,132,,,,,,,,,,,,,,,-23.056640625,-11.953125,1,0,0,1.50662207603,,,,,2015_Nov_05_1149,G,facesParametric,23,59.3986359414,
./stim/MorphM6_05_orig.jpg,133,,,,,,,,,0,133,133,133,,,,,,,,,,,,,,,-23.056640625,-11.953125,1,0,0,1.18943810463,,,,,2015_Nov_05_1149,G,facesParametric,23,59.3986359414,
./stim/MorphF6_09_orig.jpg,134,,,,,,,,,0,134,134,134,,,,,,,,,,,,,,,-23.056640625,-11.953125,0,0,1,1.52141690254,,,,,2015_Nov_05_1149,G,facesParametric,23,59.3986359414,
./stim/MorphF7_06_orig.jpg,135,,,,,,,,,0,135,135,135,,,,,,,,,,,,,,,-23.056640625,-11.953125,1,0,0,1.05244112015,,,,,2015_Nov_05_1149,G,facesParametric,23,59.3986359414,
./stim/MorphM10_02_orig.jpg,136,,,,,,,,,0,136,136,136,,,,,,,,,,,,,,,-23.056640625,-11.953125,0,0,1,0.684417009354,,,,,2015_Nov_05_1149,G,facesParametric,23,59.3986359414,
./stim/MorphF2_03_orig.jpg,137,,,,,,,,,0,137,137,137,,,,,,,,,,,,,,,-23.056640625,-11.953125,1,0,0,1.35648202896,,,,,2015_Nov_05_1149,G,facesParametric,23,59.3986359414,
./stim/MorphF5_04_orig.jpg,138,,,,,,,,,0,138,138,138,,,,,,,,,,,,,,,-23.056640625,-11.953125,1,0,0,1.52488803864,,,,,2015_Nov_05_1149,G,facesParametric,23,59.3986359414,
./stim/MorphM5_09_orig.jpg,139,,,,,,,,,0,139,139,139,,,,,,,,,,,,,,,-23.056640625,-11.953125,0,0,1,1.30470395088,,,,,2015_Nov_05_1149,G,facesParametric,23,59.3986359414,
./stim/MorphM3_09_orig.jpg,140,,,,,,,,,0,140,140,140,,,,,,,,,,,,,,,-23.056640625,-11.953125,0,0,1,0.769754171371,,,,,2015_Nov_05_1149,G,facesParametric,23,59.3986359414,
./stim/MorphF4_08_orig.jpg,141,,,,,,,,,0,141,141,141,,,,,,,,,,,,,,,-23.056640625,-11.953125,0,0,1,1.52174091339,,,,,2015_Nov_05_1149,G,facesParametric,23,59.3986359414,
./stim/MorphF6_07_orig.jpg,142,,,,,,,,,0,142,142,142,,,,,,,,,,,,,,,-23.056640625,-11.953125,1,0,0,1.03782320023,,,,,2015_Nov_05_1149,G,facesParametric,23,59.3986359414,
./stim/MorphM7_09_orig.jpg,143,,,,,,,,,0,143,143,143,,,,,,,,,,,,,,,-23.056640625,-11.953125,0,0,1,0.768022060394,,,,,2015_Nov_05_1149,G,facesParametric,23,59.3986359414,
./stim/MorphM4_04_orig.jpg,144,,,,,,,,,0,144,144,144,,,,,,,,,,,,,,,-23.056640625,-11.953125,0,0,1,2.37810897827,,,,,2015_Nov_05_1149,G,facesParametric,23,59.3986359414,
./stim/MorphF1_04_orig.jpg,145,,,,,,,,,0,145,145,145,,,,,,,,,,,,,,,-23.056640625,-11.953125,0,0,1,1.23814702034,,,,,2015_Nov_05_1149,G,facesParametric,23,59.3986359414,
./stim/MorphF6_01_orig.jpg,146,,,,,,,,,0,146,146,146,,,,,,,,,,,,,,,-23.056640625,-11.953125,1,0,0,1.87613606453,,,,,2015_Nov_05_1149,G,facesParametric,23,59.3986359414,
./stim/MorphM4_02_orig.jpg,147,,,,,,,,,0,147,147,147,,,,,,,,,,,,,,,-23.056640625,-11.953125,0,0,1,2.29239416122,,,,,2015_Nov_05_1149,G,facesParametric,23,59.3986359414,
./stim/MorphM5_03_orig.jpg,148,,,,,,,,,0,148,148,148,,,,,,,,,,,,,,,-23.056640625,-11.953125,0,0,1,0.719277143478,,,,,2015_Nov_05_1149,G,facesParametric,23,59.3986359414,
./stim/MorphF9_08_orig.jpg,149,,,,,,,,,0,149,149,149,,,,,,,,,,,,,,,-23.056640625,-11.953125,1,0,0,2.5127351284,,,,,2015_Nov_05_1149,G,facesParametric,23,59.3986359414,
./stim/MorphM7_07_orig.jpg,150,,,,,,,,,0,150,150,150,,,,,,,,,,,,,,,-23.056640625,-11.953125,0,0,1,0.752944946289,,,,,2015_Nov_05_1149,G,facesParametric,23,59.3986359414,
./stim/MorphM1_09_orig.jpg,151,,,,,,,,,0,151,151,151,,,,,,,,,,,,,,,-23.056640625,-11.953125,0,0,1,1.77551388741,,,,,2015_Nov_05_1149,G,facesParametric,23,59.3986359414,
./stim/MorphF5_07_orig.jpg,152,,,,,,,,,0,152,152,152,,,,,,,,,,,,,,,-23.056640625,-11.953125,1,0,0,1.69115304947,,,,,2015_Nov_05_1149,G,facesParametric,23,59.3986359414,
./stim/MorphM3_03_orig.jpg,153,,,,,,,,,0,153,153,153,,,,,,,,,,,,,,,-23.056640625,-11.953125,0,0,1,3.46820116043,,,,,2015_Nov_05_1149,G,facesParametric,23,59.3986359414,
./stim/MorphM5_08_orig.jpg,154,,,,,,,,,0,154,154,154,,,,,,,,,,,,,,,-23.056640625,-11.953125,0,0,1,0.834940910339,,,,,2015_Nov_05_1149,G,facesParametric,23,59.3986359414,
./stim/MorphF7_07_orig.jpg,155,,,,,,,,,0,155,155,155,,,,,,,,,,,,,,,-23.056640625,-11.953125,1,0,0,2.2282140255,,,,,2015_Nov_05_1149,G,facesParametric,23,59.3986359414,
./stim/MorphM1_04_orig.jpg,156,,,,,,,,,0,156,156,156,,,,,,,,,,,,,,,-23.056640625,-11.953125,1,0,0,1.22238898277,,,,,2015_Nov_05_1149,G,facesParametric,23,59.3986359414,
./stim/MorphF8_10_orig.jpg,157,,,,,,,,,0,157,157,157,,,,,,,,,,,,,,,-23.056640625,-11.953125,0,0,1,1.8421151638,,,,,2015_Nov_05_1149,G,facesParametric,23,59.3986359414,
./stim/MorphF4_04_orig.jpg,158,,,,,,,,,0,158,158,158,,,,,,,,,,,,,,,-23.056640625,-11.953125,1,0,0,0.83686208725,,,,,2015_Nov_05_1149,G,facesParametric,23,59.3986359414,
./stim/MorphF8_00_orig.jpg,159,,,,,,,,,0,159,159,159,,,,,,,,,,,,,,,-23.056640625,-11.953125,1,0,0,1.2709608078,,,,,2015_Nov_05_1149,G,facesParametric,23,59.3986359414,
./stim/MorphM5_00_orig.jpg,160,,,,,,,,,0,160,160,160,,,,,,,,,,,,,,,-23.056640625,-11.953125,0,0,1,0.752660036087,,,,,2015_Nov_05_1149,G,facesParametric,23,59.3986359414,
./stim/MorphF2_10_orig.jpg,161,,,,,,,,,0,161,161,161,,,,,,,,,,,,,,,-23.056640625,-11.953125,0,0,1,0.768663883209,,,,,2015_Nov_05_1149,G,facesParametric,23,59.3986359414,
./stim/MorphM9_07_orig.jpg,162,,,,,,,,,0,162,162,162,,,,,,,,,,,,,,,-23.056640625,-11.953125,0,0,1,0.786020994186,,,,,2015_Nov_05_1149,G,facesParametric,23,59.3986359414,
./stim/MorphF5_01_orig.jpg,163,,,,,,,,,0,163,163,163,,,,,,,,,,,,,,,-23.056640625,-11.953125,1,0,0,1.62453794479,,,,,2015_Nov_05_1149,G,facesParametric,23,59.3986359414,
./stim/MorphM3_01_orig.jpg,164,,,,,,,,,0,164,164,164,,,,,,,,,,,,,,,-23.056640625,-11.953125,1,0,0,1.07051587105,,,,,2015_Nov_05_1149,G,facesParametric,23,59.3986359414,
./stim/MorphM6_02_orig.jpg,165,,,,,,,,,0,165,165,165,,,,,,,,,,,,,,,-23.056640625,-11.953125,1,0,0,1.37253308296,,,,,2015_Nov_05_1149,G,facesParametric,23,59.3986359414,
./stim/MorphF7_05_orig.jpg,166,,,,,,,,,0,166,166,166,,,,,,,,,,,,,,,-23.056640625,-11.953125,1,0,0,1.07019114494,,,,,2015_Nov_05_1149,G,facesParametric,23,59.3986359414,
./stim/MorphM7_00_orig.jpg,167,,,,,,,,,0,167,167,167,,,,,,,,,,,,,,,-23.056640625,-11.953125,1,0,0,3.61790990829,,,,,2015_Nov_05_1149,G,facesParametric,23,59.3986359414,
./stim/MorphF10_08_orig.jpg,168,,,,,,,,,0,168,168,168,,,,,,,,,,,,,,,-23.056640625,-11.953125,0,0,1,1.2542090416,,,,,2015_Nov_05_1149,G,facesParametric,23,59.3986359414,
./stim/MorphF5_02_orig.jpg,169,,,,,,,,,0,169,169,169,,,,,,,,,,,,,,,-23.056640625,-11.953125,1,0,0,1.0863699913,,,,,2015_Nov_05_1149,G,facesParametric,23,59.3986359414,
./stim/MorphM6_00_orig.jpg,170,,,,,,,,,0,170,170,170,,,,,,,,,,,,,,,-23.056640625,-11.953125,1,0,0,1.20535182953,,,,,2015_Nov_05_1149,G,facesParametric,23,59.3986359414,
./stim/MorphF3_03_orig.jpg,171,,,,,,,,,0,171,171,171,,,,,,,,,,,,,,,-23.056640625,-11.953125,1,0,0,0.903896808624,,,,,2015_Nov_05_1149,G,facesParametric,23,59.3986359414,
./stim/MorphF5_00_orig.jpg,172,,,,,,,,,0,172,172,172,,,,,,,,,,,,,,,-23.056640625,-11.953125,1,0,0,1.17189002037,,,,,2015_Nov_05_1149,G,facesParametric,23,59.3986359414,
./stim/MorphF10_00_orig.jpg,173,,,,,,,,,0,173,173,173,,,,,,,,,,,,,,,-23.056640625,-11.953125,0,0,1,0.853277921677,,,,,2015_Nov_05_1149,G,facesParametric,23,59.3986359414,
./stim/MorphM10_01_orig.jpg,174,,,,,,,,,0,174,174,174,,,,,,,,,,,,,,,-23.056640625,-11.953125,1,0,0,1.08856487274,,,,,2015_Nov_05_1149,G,facesParametric,23,59.3986359414,
./stim/MorphF8_05_orig.jpg,175,,,,,,,,,0,175,175,175,,,,,,,,,,,,,,,-23.056640625,-11.953125,1,0,0,1.00353503227,,,,,2015_Nov_05_1149,G,facesParametric,23,59.3986359414,
./stim/MorphF6_02_orig.jpg,176,,,,,,,,,0,176,176,176,,,,,,,,,,,,,,,-23.056640625,-11.953125,1,0,0,1.05464196205,,,,,2015_Nov_05_1149,G,facesParametric,23,59.3986359414,
./stim/MorphF5_06_orig.jpg,177,,,,,,,,,0,177,177,177,,,,,,,,,,,,,,,-23.056640625,-11.953125,1,0,0,0.702651977539,,,,,2015_Nov_05_1149,G,facesParametric,23,59.3986359414,
./stim/MorphM9_06_orig.jpg,178,,,,,,,,,0,178,178,178,,,,,,,,,,,,,,,-23.056640625,-11.953125,0,0,1,0.820010900497,,,,,2015_Nov_05_1149,G,facesParametric,23,59.3986359414,
./stim/MorphF1_08_orig.jpg,179,,,,,,,,,0,179,179,179,,,,,,,,,,,,,,,-23.056640625,-11.953125,1,0,0,1.32272386551,,,,,2015_Nov_05_1149,G,facesParametric,23,59.3986359414,
./stim/MorphM5_02_orig.jpg,180,,,,,,,,,0,180,180,180,,,,,,,,,,,,,,,-23.056640625,-11.953125,0,0,1,0.837033987045,,,,,2015_Nov_05_1149,G,facesParametric,23,59.3986359414,
./stim/MorphM7_05_orig.jpg,181,,,,,,,,,0,181,181,181,,,,,,,,,,,,,,,-23.056640625,-11.953125,0,0,1,0.918996810913,,,,,2015_Nov_05_1149,G,facesParametric,23,59.3986359414,
./stim/MorphF10_04_orig.jpg,182,,,,,,,,,0,182,182,182,,,,,,,,,,,,,,,-23.056640625,-11.953125,1,0,0,1.97652196884,,,,,2015_Nov_05_1149,G,facesParametric,23,59.3986359414,
./stim/MorphM2_04_orig.jpg,183,,,,,,,,,0,183,183,183,,,,,,,,,,,,,,,-23.056640625,-11.953125,0,0,1,0.668456792831,,,,,2015_Nov_05_1149,G,facesParametric,23,59.3986359414,
./stim/MorphM8_06_orig.jpg,184,,,,,,,,,0,184,184,184,,,,,,,,,,,,,,,-23.056640625,-11.953125,0,0,1,0.955005884171,,,,,2015_Nov_05_1149,G,facesParametric,23,59.3986359414,
./stim/MorphM10_04_orig.jpg,185,,,,,,,,,0,185,185,185,,,,,,,,,,,,,,,-23.056640625,-11.953125,0,0,1,0.785439014435,,,,,2015_Nov_05_1149,G,facesParametric,23,59.3986359414,
./stim/MorphM7_01_orig.jpg,186,,,,,,,,,0,186,186,186,,,,,,,,,,,,,,,-23.056640625,-11.953125,1,0,0,1.11978316307,,,,,2015_Nov_05_1149,G,facesParametric,23,59.3986359414,
./stim/MorphM1_00_orig.jpg,187,,,,,,,,,0,187,187,187,,,,,,,,,,,,,,,-23.056640625,-11.953125,1,0,0,0.869216918945,,,,,2015_Nov_05_1149,G,facesParametric,23,59.3986359414,
./stim/MorphM9_02_orig.jpg,188,,,,,,,,,0,188,188,188,,,,,,,,,,,,,,,-23.056640625,-11.953125,1,0,0,1.6916000843,,,,,2015_Nov_05_1149,G,facesParametric,23,59.3986359414,
./stim/MorphF2_01_orig.jpg,189,,,,,,,,,0,189,189,189,,,,,,,,,,,,,,,-23.056640625,-11.953125,1,0,0,1.48998808861,,,,,2015_Nov_05_1149,G,facesParametric,23,59.3986359414,
./stim/MorphM7_04_orig.jpg,190,,,,,,,,,0,190,190,190,,,,,,,,,,,,,,,-23.056640625,-11.953125,0,0,1,1.8254840374,,,,,2015_Nov_05_1149,G,facesParametric,23,59.3986359414,
./stim/MorphF9_02_orig.jpg,191,,,,,,,,,0,191,191,191,,,,,,,,,,,,,,,-23.056640625,-11.953125,1,0,0,1.13920497894,,,,,2015_Nov_05_1149,G,facesParametric,23,59.3986359414,
./stim/MorphF2_02_orig.jpg,192,,,,,,,,,0,192,192,192,,,,,,,,,,,,,,,-23.056640625,-11.953125,1,0,0,1.15445899963,,,,,2015_Nov_05_1149,G,facesParametric,23,59.3986359414,
./stim/MorphM1_08_orig.jpg,193,,,,,,,,,0,193,193,193,,,,,,,,,,,,,,,-23.056640625,-11.953125,0,0,1,1.30544090271,,,,,2015_Nov_05_1149,G,facesParametric,23,59.3986359414,
./stim/MorphF10_02_orig.jpg,194,,,,,,,,,0,194,194,194,,,,,,,,,,,,,,,-23.056640625,-11.953125,1,0,0,2.36209392548,,,,,2015_Nov_05_1149,G,facesParametric,23,59.3986359414,
./stim/MorphF7_02_orig.jpg,195,,,,,,,,,0,195,195,195,,,,,,,,,,,,,,,-23.056640625,-11.953125,1,0,0,0.817734956741,,,,,2015_Nov_05_1149,G,facesParametric,23,59.3986359414,
./stim/MorphM3_02_orig.jpg,196,,,,,,,,,0,196,196,196,,,,,,,,,,,,,,,-23.056640625,-11.953125,1,0,0,1.49067807198,,,,,2015_Nov_05_1149,G,facesParametric,23,59.3986359414,
./stim/MorphM8_09_orig.jpg,197,,,,,,,,,0,197,197,197,,,,,,,,,,,,,,,-23.056640625,-11.953125,0,0,1,0.76951789856,,,,,2015_Nov_05_1149,G,facesParametric,23,59.3986359414,
./stim/MorphF10_07_orig.jpg,198,,,,,,,,,0,198,198,198,,,,,,,,,,,,,,,-23.056640625,-11.953125,0,0,1,0.834820985794,,,,,2015_Nov_05_1149,G,facesParametric,23,59.3986359414,
./stim/MorphF2_00_orig.jpg,199,,,,,,,,,0,199,199,199,,,,,,,,,,,,,,,-23.056640625,-11.953125,1,0,0,2.51302099228,,,,,2015_Nov_05_1149,G,facesParametric,23,59.3986359414,
./stim/MorphM6_04_orig.jpg,200,,,,,,,,,0,200,200,200,,,,,,,,,,,,,,,-23.056640625,-11.953125,1,0,0,1.01853322983,,,,,2015_Nov_05_1149,G,facesParametric,23,59.3986359414,
./stim/MorphM8_01_orig.jpg,201,,,,,,,,,0,201,201,201,,,,,,,,,,,,,,,-23.056640625,-11.953125,0,0,1,3.58559989929,,,,,2015_Nov_05_1149,G,facesParametric,23,59.3986359414,
./stim/MorphF4_10_orig.jpg,202,,,,,,,,,0,202,202,202,,,,,,,,,,,,,,,-23.056640625,-11.953125,0,0,1,0.987682819366,,,,,2015_Nov_05_1149,G,facesParametric,23,59.3986359414,
./stim/MorphF1_00_orig.jpg,203,,,,,,,,,0,203,203,203,,,,,,,,,,,,,,,-23.056640625,-11.953125,1,0,0,1.62411093712,,,,,2015_Nov_05_1149,G,facesParametric,23,59.3986359414,
./stim/MorphF4_01_orig.jpg,204,,,,,,,,,0,204,204,204,,,,,,,,,,,,,,,-23.056640625,-11.953125,1,0,0,0.852298974991,,,,,2015_Nov_05_1149,G,facesParametric,23,59.3986359414,
./stim/MorphF2_07_orig.jpg,205,,,,,,,,,0,205,205,205,,,,,,,,,,,,,,,-23.056640625,-11.953125,1,0,0,0.769582986832,,,,,2015_Nov_05_1149,G,facesParametric,23,59.3986359414,
./stim/MorphF6_04_orig.jpg,206,,,,,,,,,0,206,206,206,,,,,,,,,,,,,,,-23.056640625,-11.953125,0,0,1,0.769897937775,,,,,2015_Nov_05_1149,G,facesParametric,23,59.3986359414,
./stim/MorphF8_02_orig.jpg,207,,,,,,,,,0,207,207,207,,,,,,,,,,,,,,,-23.056640625,-11.953125,1,0,0,2.10808300972,,,,,2015_Nov_05_1149,G,facesParametric,23,59.3986359414,
./stim/MorphM9_05_orig.jpg,208,,,,,,,,,0,208,208,208,,,,,,,,,,,,,,,-23.056640625,-11.953125,0,0,1,1.5064458847,,,,,2015_Nov_05_1149,G,facesParametric,23,59.3986359414,
./stim/MorphM7_08_orig.jpg,209,,,,,,,,,0,209,209,209,,,,,,,,,,,,,,,-23.056640625,-11.953125,0,0,1,0.734694957733,,,,,2015_Nov_05_1149,G,facesParametric,23,59.3986359414,
./stim/MorphF7_09_orig.jpg,210,,,,,,,,,0,210,210,210,,,,,,,,,,,,,,,-23.056640625,-11.953125,0,0,1,2.22789120674,,,,,2015_Nov_05_1149,G,facesParametric,23,59.3986359414,
./stim/MorphF9_01_orig.jpg,211,,,,,,,,,0,211,211,211,,,,,,,,,,,,,,,-23.056640625,-11.953125,1,0,0,1.35597801208,,,,,2015_Nov_05_1149,G,facesParametric,23,59.3986359414,
./stim/MorphM2_01_orig.jpg,212,,,,,,,,,0,212,212,212,,,,,,,,,,,,,,,-23.056640625,-11.953125,1,0,0,0.75133895874,,,,,2015_Nov_05_1149,G,facesParametric,23,59.3986359414,
./stim/MorphM1_03_orig.jpg,213,,,,,,,,,0,213,213,213,,,,,,,,,,,,,,,-23.056640625,-11.953125,1,0,0,0.836498022079,,,,,2015_Nov_05_1149,G,facesParametric,23,59.3986359414,
./stim/MorphF4_06_orig.jpg,214,,,,,,,,,0,214,214,214,,,,,,,,,,,,,,,-23.056640625,-11.953125,0,0,1,1.1531560421,,,,,2015_Nov_05_1149,G,facesParametric,23,59.3986359414,
./stim/MorphF9_04_orig.jpg,215,,,,,,,,,0,215,215,215,,,,,,,,,,,,,,,-23.056640625,-11.953125,1,0,0,1.49089193344,,,,,2015_Nov_05_1149,G,facesParametric,23,59.3986359414,
./stim/MorphF3_06_orig.jpg,216,,,,,,,,,0,216,216,216,,,,,,,,,,,,,,,-23.056640625,-11.953125,0,0,1,1.27175402641,,,,,2015_Nov_05_1149,G,facesParametric,23,59.3986359414,
./stim/MorphM10_10_orig.jpg,217,,,,,,,,,0,217,217,217,,,,,,,,,,,,,,,-23.056640625,-11.953125,0,0,1,1.64162397385,,,,,2015_Nov_05_1149,G,facesParametric,23,59.3986359414,
./stim/MorphF10_10_orig.jpg,218,,,,,,,,,0,218,218,218,,,,,,,,,,,,,,,-23.056640625,-11.953125,0,0,1,0.618801116943,,,,,2015_Nov_05_1149,G,facesParametric,23,59.3986359414,
./stim/MorphM2_03_orig.jpg,219,,,,,,,,,0,219,219,219,,,,,,,,,,,,,,,-23.056640625,-11.953125,1,0,0,1.23835587502,,,,,2015_Nov_05_1149,G,facesParametric,23,59.3986359414,
,,,,,,,,,,,,,,,,,,,,,,,,,,,,,,,,,,,,return,2.93093895912,2015_Nov_05_1149,G,facesParametric,23,59.3986359414,
