img,num,basicLoop.thisRepN,basicLoop.thisTrialN,basicLoop.thisN,basicLoop.thisIndex,trials.thisRepN,trials.thisTrialN,trials.thisN,trials.thisIndex,trials2.thisRepN,trials2.thisTrialN,trials2.thisN,trials2.thisIndex,key_resp_2.keys,key_resp_2.rt,basicRating1.response,basicRating1.rt,basicRating2.response,basicRating2.rt,basicRating3.response,basicRating3.rt,basicRating4.response,basicRating4.rt,key_resp_3.keys,key_resp_3.rt,key_resp_4.keys,key_resp_4.rt,mouseResp.x,mouseResp.y,mouseResp.leftButton,mouseResp.midButton,mouseResp.rightButton,mouseResp.time,key_resp_5.keys,key_resp_5.rt,key_resp_7.keys,key_resp_7.rt,date,group,expName,participant,frameRate,
,,,,,,,,,,,,,,return,33.9302339554,,,,,,,,,,,,,,,,,,,,,,,2015_Nov_05_1324,G,facesParametric,24,59.7957909323,
./basicStim/28M_NE_C.jpg,,0,0,0,69,,,,,,,,,,,None,None,None,None,SUP,14.422,None,None,,,,,,,,,,,,,,,2015_Nov_05_1324,G,facesParametric,24,59.7957909323,
./basicStim/36M_SA_C.jpg,,0,1,1,81,,,,,,,,,,,SAD,5.267,None,None,None,None,None,None,,,,,,,,,,,,,,,2015_Nov_05_1324,G,facesParametric,24,59.7957909323,
./basicStim/21M_DI_O.jpg,,0,2,2,43,,,,,,,,,,,None,None,None,None,DIS,7.644,None,None,,,,,,,,,,,,,,,2015_Nov_05_1324,G,facesParametric,24,59.7957909323,
./basicStim/34M_SP_O.jpg,,0,3,3,75,,,,,,,,,,,None,None,None,None,SUP,1.865,None,None,,,,,,,,,,,,,,,2015_Nov_05_1324,G,facesParametric,24,59.7957909323,
./basicStim/01F_AN_O.jpg,,0,4,4,0,,,,,,,,,,,None,None,ANG,3.843,None,None,None,None,,,,,,,,,,,,,,,2015_Nov_05_1324,G,facesParametric,24,59.7957909323,
./basicStim/03F_AN_O.jpg,,0,5,5,14,,,,,,,,,,,None,None,FEA,9.711,None,None,None,None,,,,,,,,,,,,,,,2015_Nov_05_1324,G,facesParametric,24,59.7957909323,
./basicStim/36M_NE_C.jpg,,0,6,6,83,,,,,,,,,,,None,None,None,None,None,None,NTR,14.267,,,,,,,,,,,,,,,2015_Nov_05_1324,G,facesParametric,24,59.7957909323,
./basicStim/34M_AN_O.jpg,,0,7,7,70,,,,,,,,,,,None,None,ANG,3.341,None,None,None,None,,,,,,,,,,,,,,,2015_Nov_05_1324,G,facesParametric,24,59.7957909323,
./basicStim/06F_SP_O.jpg,,0,8,8,26,,,,,,,,,,,None,None,None,None,SUP,3.084,None,None,,,,,,,,,,,,,,,2015_Nov_05_1324,G,facesParametric,24,59.7957909323,
./basicStim/06F_FE_O.jpg,,0,9,9,23,,,,,,,,,,,None,None,FEA,1.986,None,None,None,None,,,,,,,,,,,,,,,2015_Nov_05_1324,G,facesParametric,24,59.7957909323,
./basicStim/21M_NE_C.jpg,,0,10,10,48,,,,,,,,,,,None,None,None,None,None,None,NTR,2.265,,,,,,,,,,,,,,,2015_Nov_05_1324,G,facesParametric,24,59.7957909323,
./basicStim/07F_SP_O.jpg,,0,11,11,33,,,,,,,,,,,None,None,None,None,SUP,6.77,None,None,,,,,,,,,,,,,,,2015_Nov_05_1324,G,facesParametric,24,59.7957909323,
./basicStim/07F_DI_O.jpg,,0,12,12,29,,,,,,,,,,,None,None,None,None,DIS,3.943,None,None,,,,,,,,,,,,,,,2015_Nov_05_1324,G,facesParametric,24,59.7957909323,
./basicStim/21M_FE_O.jpg,,0,13,13,44,,,,,,,,,,,None,None,FEA,2.351,None,None,None,None,,,,,,,,,,,,,,,2015_Nov_05_1324,G,facesParametric,24,59.7957909323,
./basicStim/01F_DI_O.jpg,,0,14,14,1,,,,,,,,,,,None,None,ANG,11.443,None,None,None,None,,,,,,,,,,,,,,,2015_Nov_05_1324,G,facesParametric,24,59.7957909323,
./basicStim/34M_DI_O.jpg,,0,15,15,71,,,,,,,,,,,None,None,None,None,DIS,2.629,None,None,,,,,,,,,,,,,,,2015_Nov_05_1324,G,facesParametric,24,59.7957909323,
./basicStim/23M_HA_O.jpg,,0,16,16,52,,,,,,,,,,,HAP,3.071,None,None,None,None,None,None,,,,,,,,,,,,,,,2015_Nov_05_1324,G,facesParametric,24,59.7957909323,
./basicStim/28M_HA_O.jpg,,0,17,17,66,,,,,,,,,,,HAP,2.786,None,None,None,None,None,None,,,,,,,,,,,,,,,2015_Nov_05_1324,G,facesParametric,24,59.7957909323,
./basicStim/02F_SP_O.jpg,,0,18,18,12,,,,,,,,,,,None,None,None,None,SUP,2.315,None,None,,,,,,,,,,,,,,,2015_Nov_05_1324,G,facesParametric,24,59.7957909323,
./basicStim/01F_SA_C.jpg,,0,19,19,4,,,,,,,,,,,SAD,2.658,None,None,None,None,None,None,,,,,,,,,,,,,,,2015_Nov_05_1324,G,facesParametric,24,59.7957909323,
./basicStim/06F_DI_O.jpg,,0,20,20,22,,,,,,,,,,,None,None,None,None,DIS,1.513,None,None,,,,,,,,,,,,,,,2015_Nov_05_1324,G,facesParametric,24,59.7957909323,
./basicStim/24M_DI_O.jpg,,0,21,21,57,,,,,,,,,,,None,None,None,None,DIS,6.723,None,None,,,,,,,,,,,,,,,2015_Nov_05_1324,G,facesParametric,24,59.7957909323,
./basicStim/36M_AN_O.jpg,,0,22,22,77,,,,,,,,,,,None,None,ANG,6.009,None,None,None,None,,,,,,,,,,,,,,,2015_Nov_05_1324,G,facesParametric,24,59.7957909323,
./basicStim/36M_FE_O.jpg,,0,23,23,79,,,,,,,,,,,None,None,FEA,1.433,None,None,None,None,,,,,,,,,,,,,,,2015_Nov_05_1324,G,facesParametric,24,59.7957909323,
./basicStim/06F_SA_C.jpg,,0,24,24,25,,,,,,,,,,,None,None,ANG,5.4,None,None,None,None,,,,,,,,,,,,,,,2015_Nov_05_1324,G,facesParametric,24,59.7957909323,
./basicStim/01F_FE_O.jpg,,0,25,25,2,,,,,,,,,,,None,None,None,None,SUP,3.29,None,None,,,,,,,,,,,,,,,2015_Nov_05_1324,G,facesParametric,24,59.7957909323,
./basicStim/07F_NE_C.jpg,,0,26,26,34,,,,,,,,,,,None,None,None,None,None,None,NTR,2.064,,,,,,,,,,,,,,,2015_Nov_05_1324,G,facesParametric,24,59.7957909323,
./basicStim/03F_DI_O.jpg,,0,27,27,15,,,,,,,,,,,None,None,None,None,DIS,3.236,None,None,,,,,,,,,,,,,,,2015_Nov_05_1324,G,facesParametric,24,59.7957909323,
./basicStim/23M_FE_O.jpg,,0,28,28,51,,,,,,,,,,,None,None,FEA,3.102,None,None,None,None,,,,,,,,,,,,,,,2015_Nov_05_1324,G,facesParametric,24,59.7957909323,
./basicStim/02F_DI_O.jpg,,0,29,29,8,,,,,,,,,,,None,None,None,None,DIS,8.048,None,None,,,,,,,,,,,,,,,2015_Nov_05_1324,G,facesParametric,24,59.7957909323,
./basicStim/28M_DI_O.jpg,,0,30,30,64,,,,,,,,,,,None,None,None,None,DIS,4.378,None,None,,,,,,,,,,,,,,,2015_Nov_05_1324,G,facesParametric,24,59.7957909323,
./basicStim/34M_HA_O.jpg,,0,31,31,73,,,,,,,,,,,HAP,1.982,None,None,None,None,None,None,,,,,,,,,,,,,,,2015_Nov_05_1324,G,facesParametric,24,59.7957909323,
./basicStim/03F_NE_C.jpg,,0,32,32,20,,,,,,,,,,,None,None,None,None,None,None,NTR,1.892,,,,,,,,,,,,,,,2015_Nov_05_1324,G,facesParametric,24,59.7957909323,
./basicStim/34M_NE_C.jpg,,0,33,33,76,,,,,,,,,,,None,None,None,None,None,None,NTR,0.762,,,,,,,,,,,,,,,2015_Nov_05_1324,G,facesParametric,24,59.7957909323,
./basicStim/28M_FE_O.jpg,,0,34,34,65,,,,,,,,,,,None,None,FEA,1.862,None,None,None,None,,,,,,,,,,,,,,,2015_Nov_05_1324,G,facesParametric,24,59.7957909323,
./basicStim/24M_SP_O.jpg,,0,35,35,61,,,,,,,,,,,None,None,None,None,SUP,1.327,None,None,,,,,,,,,,,,,,,2015_Nov_05_1324,G,facesParametric,24,59.7957909323,
./basicStim/28M_SA_C.jpg,,0,36,36,67,,,,,,,,,,,None,None,FEA,7.948,None,None,None,None,,,,,,,,,,,,,,,2015_Nov_05_1324,G,facesParametric,24,59.7957909323,
./basicStim/03F_FE_O.jpg,,0,37,37,16,,,,,,,,,,,None,None,FEA,0.777,None,None,None,None,,,,,,,,,,,,,,,2015_Nov_05_1324,G,facesParametric,24,59.7957909323,
./basicStim/24M_HA_O.jpg,,0,38,38,59,,,,,,,,,,,HAP,1.044,None,None,None,None,None,None,,,,,,,,,,,,,,,2015_Nov_05_1324,G,facesParametric,24,59.7957909323,
./basicStim/09F_NE_C.jpg,,0,39,39,41,,,,,,,,,,,None,None,None,None,None,None,NTR,1.561,,,,,,,,,,,,,,,2015_Nov_05_1324,G,facesParametric,24,59.7957909323,
./basicStim/09F_SA_C.jpg,,0,40,40,39,,,,,,,,,,,None,None,ANG,6.526,None,None,None,None,,,,,,,,,,,,,,,2015_Nov_05_1324,G,facesParametric,24,59.7957909323,
./basicStim/06F_HA_O.jpg,,0,41,41,24,,,,,,,,,,,HAP,1.599,None,None,None,None,None,None,,,,,,,,,,,,,,,2015_Nov_05_1324,G,facesParametric,24,59.7957909323,
./basicStim/09F_FE_O.jpg,,0,42,42,37,,,,,,,,,,,None,None,FEA,4.577,None,None,None,None,,,,,,,,,,,,,,,2015_Nov_05_1324,G,facesParametric,24,59.7957909323,
./basicStim/23M_NE_C.jpg,,0,43,43,55,,,,,,,,,,,None,None,None,None,None,None,NTR,2.666,,,,,,,,,,,,,,,2015_Nov_05_1324,G,facesParametric,24,59.7957909323,
./basicStim/09F_HA_O.jpg,,0,44,44,38,,,,,,,,,,,HAP,1.296,None,None,None,None,None,None,,,,,,,,,,,,,,,2015_Nov_05_1324,G,facesParametric,24,59.7957909323,
./basicStim/28M_SP_O.jpg,,0,45,45,68,,,,,,,,,,,None,None,None,None,SUP,5.82,None,None,,,,,,,,,,,,,,,2015_Nov_05_1324,G,facesParametric,24,59.7957909323,
./basicStim/24M_AN_O.jpg,,0,46,46,56,,,,,,,,,,,None,None,ANG,2.942,None,None,None,None,,,,,,,,,,,,,,,2015_Nov_05_1324,G,facesParametric,24,59.7957909323,
./basicStim/34M_FE_O.jpg,,0,47,47,72,,,,,,,,,,,None,None,FEA,2.487,None,None,None,None,,,,,,,,,,,,,,,2015_Nov_05_1324,G,facesParametric,24,59.7957909323,
./basicStim/07F_AN_O.jpg,,0,48,48,28,,,,,,,,,,,None,None,ANG,1.613,None,None,None,None,,,,,,,,,,,,,,,2015_Nov_05_1324,G,facesParametric,24,59.7957909323,
./basicStim/23M_SP_O.jpg,,0,49,49,54,,,,,,,,,,,None,None,None,None,SUP,2.046,None,None,,,,,,,,,,,,,,,2015_Nov_05_1324,G,facesParametric,24,59.7957909323,
./basicStim/02F_FE_O.jpg,,0,50,50,9,,,,,,,,,,,None,None,FEA,2.063,None,None,None,None,,,,,,,,,,,,,,,2015_Nov_05_1324,G,facesParametric,24,59.7957909323,
./basicStim/24M_NE_C.jpg,,0,51,51,62,,,,,,,,,,,None,None,None,None,None,None,NTR,1.56,,,,,,,,,,,,,,,2015_Nov_05_1324,G,facesParametric,24,59.7957909323,
./basicStim/03F_SA_C.jpg,,0,52,52,18,,,,,,,,,,,SAD,3.893,None,None,None,None,None,None,,,,,,,,,,,,,,,2015_Nov_05_1324,G,facesParametric,24,59.7957909323,
./basicStim/07F_FE_O.jpg,,0,53,53,30,,,,,,,,,,,None,None,FEA,3.167,None,None,None,None,,,,,,,,,,,,,,,2015_Nov_05_1324,G,facesParametric,24,59.7957909323,
./basicStim/36M_SP_O.jpg,,0,54,54,82,,,,,,,,,,,None,None,FEA,3.657,None,None,None,None,,,,,,,,,,,,,,,2015_Nov_05_1324,G,facesParametric,24,59.7957909323,
./basicStim/02F_NE_C.jpg,,0,55,55,13,,,,,,,,,,,None,None,None,None,None,None,NTR,1.055,,,,,,,,,,,,,,,2015_Nov_05_1324,G,facesParametric,24,59.7957909323,
./basicStim/09F_DI_O.jpg,,0,56,56,36,,,,,,,,,,,None,None,None,None,DIS,7.028,None,None,,,,,,,,,,,,,,,2015_Nov_05_1324,G,facesParametric,24,59.7957909323,
./basicStim/21M_SA_C.jpg,,0,57,57,46,,,,,,,,,,,None,None,ANG,3.746,None,None,None,None,,,,,,,,,,,,,,,2015_Nov_05_1324,G,facesParametric,24,59.7957909323,
./basicStim/24M_SA_C.jpg,,0,58,58,60,,,,,,,,,,,SAD,3.389,None,None,None,None,None,None,,,,,,,,,,,,,,,2015_Nov_05_1324,G,facesParametric,24,59.7957909323,
./basicStim/03F_HA_O.jpg,,0,59,59,17,,,,,,,,,,,HAP,1.448,None,None,None,None,None,None,,,,,,,,,,,,,,,2015_Nov_05_1324,G,facesParametric,24,59.7957909323,
./basicStim/21M_HA_O.jpg,,0,60,60,45,,,,,,,,,,,HAP,0.918,None,None,None,None,None,None,,,,,,,,,,,,,,,2015_Nov_05_1324,G,facesParametric,24,59.7957909323,
./basicStim/02F_AN_O.jpg,,0,61,61,7,,,,,,,,,,,None,None,ANG,2.565,None,None,None,None,,,,,,,,,,,,,,,2015_Nov_05_1324,G,facesParametric,24,59.7957909323,
./basicStim/09F_AN_O.jpg,,0,62,62,35,,,,,,,,,,,None,None,ANG,1.831,None,None,None,None,,,,,,,,,,,,,,,2015_Nov_05_1324,G,facesParametric,24,59.7957909323,
./basicStim/01F_SP_O.jpg,,0,63,63,5,,,,,,,,,,,None,None,None,None,SUP,1.205,None,None,,,,,,,,,,,,,,,2015_Nov_05_1324,G,facesParametric,24,59.7957909323,
./basicStim/23M_DI_O.jpg,,0,64,64,50,,,,,,,,,,,None,None,FEA,3.788,None,None,None,None,,,,,,,,,,,,,,,2015_Nov_05_1324,G,facesParametric,24,59.7957909323,
./basicStim/02F_HA_O.jpg,,0,65,65,10,,,,,,,,,,,HAP,0.766,None,None,None,None,None,None,,,,,,,,,,,,,,,2015_Nov_05_1324,G,facesParametric,24,59.7957909323,
./basicStim/36M_HA_O.jpg,,0,66,66,80,,,,,,,,,,,HAP,0.407,None,None,None,None,None,None,,,,,,,,,,,,,,,2015_Nov_05_1324,G,facesParametric,24,59.7957909323,
./basicStim/21M_SP_O.jpg,,0,67,67,47,,,,,,,,,,,None,None,None,None,SUP,1.818,None,None,,,,,,,,,,,,,,,2015_Nov_05_1324,G,facesParametric,24,59.7957909323,
./basicStim/06F_AN_O.jpg,,0,68,68,21,,,,,,,,,,,None,None,None,None,DIS,2.316,None,None,,,,,,,,,,,,,,,2015_Nov_05_1324,G,facesParametric,24,59.7957909323,
./basicStim/01F_HA_O.jpg,,0,69,69,3,,,,,,,,,,,HAP,0.809,None,None,None,None,None,None,,,,,,,,,,,,,,,2015_Nov_05_1324,G,facesParametric,24,59.7957909323,
./basicStim/06F_NE_C.jpg,,0,70,70,27,,,,,,,,,,,None,None,None,None,None,None,NTR,1.597,,,,,,,,,,,,,,,2015_Nov_05_1324,G,facesParametric,24,59.7957909323,
./basicStim/28M_AN_O.jpg,,0,71,71,63,,,,,,,,,,,None,None,ANG,2.282,None,None,None,None,,,,,,,,,,,,,,,2015_Nov_05_1324,G,facesParametric,24,59.7957909323,
./basicStim/21M_AN_O.jpg,,0,72,72,42,,,,,,,,,,,None,None,ANG,3.772,None,None,None,None,,,,,,,,,,,,,,,2015_Nov_05_1324,G,facesParametric,24,59.7957909323,
./basicStim/01F_NE_C.jpg,,0,73,73,6,,,,,,,,,,,None,None,None,None,None,None,NTR,1.272,,,,,,,,,,,,,,,2015_Nov_05_1324,G,facesParametric,24,59.7957909323,
./basicStim/34M_SA_C.jpg,,0,74,74,74,,,,,,,,,,,SAD,1.514,None,None,None,None,None,None,,,,,,,,,,,,,,,2015_Nov_05_1324,G,facesParametric,24,59.7957909323,
./basicStim/03F_SP_O.jpg,,0,75,75,19,,,,,,,,,,,HAP,1.431,None,None,None,None,None,None,,,,,,,,,,,,,,,2015_Nov_05_1324,G,facesParametric,24,59.7957909323,
./basicStim/07F_SA_C.jpg,,0,76,76,32,,,,,,,,,,,SAD,4.547,None,None,None,None,None,None,,,,,,,,,,,,,,,2015_Nov_05_1324,G,facesParametric,24,59.7957909323,
./basicStim/23M_SA_C.jpg,,0,77,77,53,,,,,,,,,,,SAD,2.736,None,None,None,None,None,None,,,,,,,,,,,,,,,2015_Nov_05_1324,G,facesParametric,24,59.7957909323,
./basicStim/07F_HA_O.jpg,,0,78,78,31,,,,,,,,,,,HAP,1.019,None,None,None,None,None,None,,,,,,,,,,,,,,,2015_Nov_05_1324,G,facesParametric,24,59.7957909323,
./basicStim/09F_SP_O.jpg,,0,79,79,40,,,,,,,,,,,None,None,None,None,SUP,2.28,None,None,,,,,,,,,,,,,,,2015_Nov_05_1324,G,facesParametric,24,59.7957909323,
./basicStim/23M_AN_O.jpg,,0,80,80,49,,,,,,,,,,,None,None,ANG,3.697,None,None,None,None,,,,,,,,,,,,,,,2015_Nov_05_1324,G,facesParametric,24,59.7957909323,
./basicStim/02F_SA_C.jpg,,0,81,81,11,,,,,,,,,,,SAD,1.482,None,None,None,None,None,None,,,,,,,,,,,,,,,2015_Nov_05_1324,G,facesParametric,24,59.7957909323,
./basicStim/24M_FE_O.jpg,,0,82,82,58,,,,,,,,,,,None,None,FEA,3.138,None,None,None,None,,,,,,,,,,,,,,,2015_Nov_05_1324,G,facesParametric,24,59.7957909323,
./basicStim/36M_DI_O.jpg,,0,83,83,78,,,,,,,,,,,None,None,ANG,3.461,None,None,None,None,,,,,,,,,,,,,,,2015_Nov_05_1324,G,facesParametric,24,59.7957909323,
,,,,,,,,,,,,,,,,,,,,,,,,return,13.9413619041,,,,,,,,,,,,,2015_Nov_05_1324,G,facesParametric,24,59.7957909323,
,,,,,,,,,,,,,,return,3.55249595642,,,,,,,,,,,,,,,,,,,,,,,2015_Nov_05_1324,G,facesParametric,24,59.7957909323,
,,,,,,,,,,,,,,,,,,,,,,,,return,29.3797249794,,,,,,,,,,,,,2015_Nov_05_1324,G,facesParametric,24,59.7957909323,
,,,,,,,,,,,,,,,,,,,,,,,,,,return,7.5079061985,,,,,,,,,,,2015_Nov_05_1324,G,facesParametric,24,59.7957909323,
./stim/MorphM6_00_orig.jpg,0,,,,,0,0,0,0,,,,,,,,,,,,,,,,,,,-23.37890625,-11.953125,0,0,1,3.19503998756,,,,,2015_Nov_05_1324,G,facesParametric,24,59.7957909323,
./stim/MorphF1_08_orig.jpg,1,,,,,0,1,1,1,,,,,,,,,,,,,,,,,,,-22.529296875,-7.55859375,1,0,0,1.35589289665,,,,,2015_Nov_05_1324,G,facesParametric,24,59.7957909323,
./stim/MorphM6_04_orig.jpg,2,,,,,0,2,2,2,,,,,,,,,,,,,,,,,,,-22.763671875,-7.763671875,0,0,1,1.32270693779,,,,,2015_Nov_05_1324,G,facesParametric,24,59.7957909323,
./stim/MorphM9_03_orig.jpg,3,,,,,0,3,3,3,,,,,,,,,,,,,,,,,,,-23.291015625,-8.115234375,0,0,1,2.11035919189,,,,,2015_Nov_05_1324,G,facesParametric,24,59.7957909323,
./stim/MorphM6_07_orig.jpg,4,,,,,0,4,4,4,,,,,,,,,,,,,,,,,,,-23.37890625,-8.173828125,0,0,1,0.920828104019,,,,,2015_Nov_05_1324,G,facesParametric,24,59.7957909323,
./stim/MorphF8_03_orig.jpg,5,,,,,0,5,5,5,,,,,,,,,,,,,,,,,,,-23.4375,-8.291015625,0,0,1,2.62831997871,,,,,2015_Nov_05_1324,G,facesParametric,24,59.7957909323,
./stim/MorphF5_03_orig.jpg,6,,,,,0,6,6,6,,,,,,,,,,,,,,,,,,,-23.4375,-9.169921875,0,0,1,2.63024687767,,,,,2015_Nov_05_1324,G,facesParametric,24,59.7957909323,
./stim/MorphF9_08_orig.jpg,7,,,,,0,7,7,7,,,,,,,,,,,,,,,,,,,-23.4375,-9.9609375,1,0,0,1.13848209381,,,,,2015_Nov_05_1324,G,facesParametric,24,59.7957909323,
./stim/MorphM2_07_orig.jpg,8,,,,,0,8,8,8,,,,,,,,,,,,,,,,,,,-23.4375,-10.107421875,1,0,0,0.752825021744,,,,,2015_Nov_05_1324,G,facesParametric,24,59.7957909323,
./stim/MorphF7_07_orig.jpg,9,,,,,0,9,9,9,,,,,,,,,,,,,,,,,,,-23.4375,-9.931640625,1,0,0,0.751352071762,,,,,2015_Nov_05_1324,G,facesParametric,24,59.7957909323,
./stim/MorphM1_03_orig.jpg,10,,,,,0,10,10,10,,,,,,,,,,,,,,,,,,,-23.291015625,-9.7265625,0,0,1,1.99281787872,,,,,2015_Nov_05_1324,G,facesParametric,24,59.7957909323,
./stim/MorphF10_04_orig.jpg,11,,,,,0,11,11,11,,,,,,,,,,,,,,,,,,,-23.3203125,-9.755859375,1,0,0,0.802900791168,,,,,2015_Nov_05_1324,G,facesParametric,24,59.7957909323,
./stim/MorphF2_04_orig.jpg,12,,,,,0,12,12,12,,,,,,,,,,,,,,,,,,,-23.349609375,-9.78515625,1,0,0,2.71460390091,,,,,2015_Nov_05_1324,G,facesParametric,24,59.7957909323,
./stim/MorphF6_05_orig.jpg,13,,,,,0,13,13,13,,,,,,,,,,,,,,,,,,,-23.349609375,-9.78515625,1,0,0,0.818912982941,,,,,2015_Nov_05_1324,G,facesParametric,24,59.7957909323,
./stim/MorphM7_05_orig.jpg,14,,,,,0,14,14,14,,,,,,,,,,,,,,,,,,,-23.349609375,-9.78515625,1,0,0,0.819926023483,,,,,2015_Nov_05_1324,G,facesParametric,24,59.7957909323,
./stim/MorphF3_07_orig.jpg,15,,,,,0,15,15,15,,,,,,,,,,,,,,,,,,,-23.349609375,-9.78515625,1,0,0,1.55624508858,,,,,2015_Nov_05_1324,G,facesParametric,24,59.7957909323,
./stim/MorphM3_02_orig.jpg,16,,,,,0,16,16,16,,,,,,,,,,,,,,,,,,,-23.349609375,-9.78515625,1,0,0,2.1610019207,,,,,2015_Nov_05_1324,G,facesParametric,24,59.7957909323,
./stim/MorphF6_01_orig.jpg,17,,,,,0,17,17,17,,,,,,,,,,,,,,,,,,,-23.4375,-10.634765625,0,0,1,0.936237096786,,,,,2015_Nov_05_1324,G,facesParametric,24,59.7957909323,
./stim/MorphM10_00_orig.jpg,18,,,,,0,18,18,18,,,,,,,,,,,,,,,,,,,-23.4375,-10.8984375,0,0,1,1.5405960083,,,,,2015_Nov_05_1324,G,facesParametric,24,59.7957909323,
./stim/MorphM7_10_orig.jpg,19,,,,,0,19,19,19,,,,,,,,,,,,,,,,,,,-23.4375,-11.220703125,1,0,0,0.901933908463,,,,,2015_Nov_05_1324,G,facesParametric,24,59.7957909323,
./stim/MorphM9_08_orig.jpg,20,,,,,0,20,20,20,,,,,,,,,,,,,,,,,,,-23.4375,-11.220703125,1,0,0,0.886804103851,,,,,2015_Nov_05_1324,G,facesParametric,24,59.7957909323,
./stim/MorphF10_03_orig.jpg,21,,,,,0,21,21,21,,,,,,,,,,,,,,,,,,,-23.4375,-11.220703125,1,0,0,1.00442004204,,,,,2015_Nov_05_1324,G,facesParametric,24,59.7957909323,
./stim/MorphF3_03_orig.jpg,22,,,,,0,22,22,22,,,,,,,,,,,,,,,,,,,-23.349609375,-11.30859375,0,0,1,1.10507488251,,,,,2015_Nov_05_1324,G,facesParametric,24,59.7957909323,
./stim/MorphM6_06_orig.jpg,23,,,,,0,23,23,23,,,,,,,,,,,,,,,,,,,-23.37890625,-11.337890625,1,0,0,1.12145185471,,,,,2015_Nov_05_1324,G,facesParametric,24,59.7957909323,
./stim/MorphM2_05_orig.jpg,24,,,,,0,24,24,24,,,,,,,,,,,,,,,,,,,-23.37890625,-11.337890625,1,0,0,0.668018102646,,,,,2015_Nov_05_1324,G,facesParametric,24,59.7957909323,
./stim/MorphF2_08_orig.jpg,25,,,,,0,25,25,25,,,,,,,,,,,,,,,,,,,-23.37890625,-11.337890625,1,0,0,1.15532708168,,,,,2015_Nov_05_1324,G,facesParametric,24,59.7957909323,
./stim/MorphF5_06_orig.jpg,26,,,,,0,26,26,26,,,,,,,,,,,,,,,,,,,-23.37890625,-11.337890625,1,0,0,1.00516605377,,,,,2015_Nov_05_1324,G,facesParametric,24,59.7957909323,
./stim/MorphM4_07_orig.jpg,27,,,,,0,27,27,27,,,,,,,,,,,,,,,,,,,-23.37890625,-11.337890625,1,0,0,1.75751590729,,,,,2015_Nov_05_1324,G,facesParametric,24,59.7957909323,
./stim/MorphM8_07_orig.jpg,28,,,,,0,28,28,28,,,,,,,,,,,,,,,,,,,-23.37890625,-11.337890625,1,0,0,0.700767993927,,,,,2015_Nov_05_1324,G,facesParametric,24,59.7957909323,
./stim/MorphM10_02_orig.jpg,29,,,,,0,29,29,29,,,,,,,,,,,,,,,,,,,-23.4375,-11.513671875,0,0,1,0.935274839401,,,,,2015_Nov_05_1324,G,facesParametric,24,59.7957909323,
./stim/MorphF3_00_orig.jpg,30,,,,,0,30,30,30,,,,,,,,,,,,,,,,,,,-23.4375,-11.630859375,0,0,1,1.1216108799,,,,,2015_Nov_05_1324,G,facesParametric,24,59.7957909323,
./stim/MorphM3_08_orig.jpg,31,,,,,0,31,31,31,,,,,,,,,,,,,,,,,,,-23.4375,-11.630859375,1,0,0,1.03778505325,,,,,2015_Nov_05_1324,G,facesParametric,24,59.7957909323,
./stim/MorphM7_04_orig.jpg,32,,,,,0,32,32,32,,,,,,,,,,,,,,,,,,,-23.4375,-11.630859375,1,0,0,1.79201197624,,,,,2015_Nov_05_1324,G,facesParametric,24,59.7957909323,
./stim/MorphM10_06_orig.jpg,33,,,,,0,33,33,33,,,,,,,,,,,,,,,,,,,-23.4375,-11.630859375,1,0,0,0.937525987625,,,,,2015_Nov_05_1324,G,facesParametric,24,59.7957909323,
./stim/MorphF7_02_orig.jpg,34,,,,,0,34,34,34,,,,,,,,,,,,,,,,,,,-23.4375,-11.630859375,1,0,0,0.683521032333,,,,,2015_Nov_05_1324,G,facesParametric,24,59.7957909323,
./stim/MorphM2_08_orig.jpg,35,,,,,0,35,35,35,,,,,,,,,,,,,,,,,,,-23.203125,-11.54296875,1,0,0,0.735486984253,,,,,2015_Nov_05_1324,G,facesParametric,24,59.7957909323,
./stim/MorphM7_01_orig.jpg,36,,,,,0,36,36,36,,,,,,,,,,,,,,,,,,,-23.203125,-11.54296875,1,0,0,1.59078097343,,,,,2015_Nov_05_1324,G,facesParametric,24,59.7957909323,
./stim/MorphM8_05_orig.jpg,37,,,,,0,37,37,37,,,,,,,,,,,,,,,,,,,-23.203125,-11.54296875,1,0,0,2.6804869175,,,,,2015_Nov_05_1324,G,facesParametric,24,59.7957909323,
./stim/MorphF9_05_orig.jpg,38,,,,,0,38,38,38,,,,,,,,,,,,,,,,,,,-23.203125,-11.54296875,0,0,1,2.0432009697,,,,,2015_Nov_05_1324,G,facesParametric,24,59.7957909323,
./stim/MorphM4_09_orig.jpg,39,,,,,0,39,39,39,,,,,,,,,,,,,,,,,,,-23.173828125,-11.513671875,1,0,0,0.920210838318,,,,,2015_Nov_05_1324,G,facesParametric,24,59.7957909323,
./stim/MorphM3_04_orig.jpg,40,,,,,0,40,40,40,,,,,,,,,,,,,,,,,,,-23.173828125,-11.513671875,1,0,0,0.652225017548,,,,,2015_Nov_05_1324,G,facesParametric,24,59.7957909323,
./stim/MorphF5_09_orig.jpg,41,,,,,0,41,41,41,,,,,,,,,,,,,,,,,,,-23.173828125,-11.513671875,1,0,0,0.85324215889,,,,,2015_Nov_05_1324,G,facesParametric,24,59.7957909323,
./stim/MorphM3_10_orig.jpg,42,,,,,0,42,42,42,,,,,,,,,,,,,,,,,,,-23.14453125,-11.484375,1,0,0,0.837031126022,,,,,2015_Nov_05_1324,G,facesParametric,24,59.7957909323,
./stim/MorphM9_00_orig.jpg,43,,,,,0,43,43,43,,,,,,,,,,,,,,,,,,,-23.0859375,-11.455078125,1,0,0,0.684593200684,,,,,2015_Nov_05_1324,G,facesParametric,24,59.7957909323,
./stim/MorphF9_00_orig.jpg,44,,,,,0,44,44,44,,,,,,,,,,,,,,,,,,,-23.0859375,-11.455078125,0,0,1,4.0548119545,,,,,2015_Nov_05_1324,G,facesParametric,24,59.7957909323,
./stim/MorphF2_06_orig.jpg,45,,,,,0,45,45,45,,,,,,,,,,,,,,,,,,,-23.4375,-11.630859375,1,0,0,0.836105108261,,,,,2015_Nov_05_1324,G,facesParametric,24,59.7957909323,
./stim/MorphF10_00_orig.jpg,46,,,,,0,46,46,46,,,,,,,,,,,,,,,,,,,-23.4375,-11.484375,0,0,1,2.79777193069,,,,,2015_Nov_05_1324,G,facesParametric,24,59.7957909323,
./stim/MorphM4_00_orig.jpg,47,,,,,0,47,47,47,,,,,,,,,,,,,,,,,,,-23.4375,-12.36328125,0,0,1,1.35445785522,,,,,2015_Nov_05_1324,G,facesParametric,24,59.7957909323,
./stim/MorphF9_07_orig.jpg,48,,,,,0,48,48,48,,,,,,,,,,,,,,,,,,,-23.4375,-12.36328125,1,0,0,1.18867301941,,,,,2015_Nov_05_1324,G,facesParametric,24,59.7957909323,
./stim/MorphM1_04_orig.jpg,49,,,,,0,49,49,49,,,,,,,,,,,,,,,,,,,-23.4375,-12.83203125,0,0,1,1.74176216125,,,,,2015_Nov_05_1324,G,facesParametric,24,59.7957909323,
./stim/MorphM7_03_orig.jpg,50,,,,,0,50,50,50,,,,,,,,,,,,,,,,,,,-23.4375,-12.861328125,0,0,1,2.31180000305,,,,,2015_Nov_05_1324,G,facesParametric,24,59.7957909323,
./stim/MorphF7_09_orig.jpg,51,,,,,0,51,51,51,,,,,,,,,,,,,,,,,,,-23.4375,-12.978515625,1,0,0,0.668807029724,,,,,2015_Nov_05_1324,G,facesParametric,24,59.7957909323,
./stim/MorphM3_00_orig.jpg,52,,,,,0,52,52,52,,,,,,,,,,,,,,,,,,,-23.4375,-13.154296875,1,0,0,0.719568967819,,,,,2015_Nov_05_1324,G,facesParametric,24,59.7957909323,
./stim/MorphF1_07_orig.jpg,53,,,,,0,53,53,53,,,,,,,,,,,,,,,,,,,-23.4375,-13.154296875,1,0,0,1.80838298798,,,,,2015_Nov_05_1324,G,facesParametric,24,59.7957909323,
./stim/MorphM1_08_orig.jpg,54,,,,,0,54,54,54,,,,,,,,,,,,,,,,,,,-23.37890625,-13.095703125,1,0,0,1.0710670948,,,,,2015_Nov_05_1324,G,facesParametric,24,59.7957909323,
./stim/MorphF1_05_orig.jpg,55,,,,,0,55,55,55,,,,,,,,,,,,,,,,,,,-22.470703125,-12.7734375,1,0,0,3.04751205444,,,,,2015_Nov_05_1324,G,facesParametric,24,59.7957909323,
./stim/MorphF2_01_orig.jpg,56,,,,,0,56,56,56,,,,,,,,,,,,,,,,,,,-22.470703125,-12.7734375,1,0,0,3.92080116272,,,,,2015_Nov_05_1324,G,facesParametric,24,59.7957909323,
./stim/MorphM4_10_orig.jpg,57,,,,,0,57,57,57,,,,,,,,,,,,,,,,,,,-22.119140625,-12.5390625,1,0,0,1.53792905807,,,,,2015_Nov_05_1324,G,facesParametric,24,59.7957909323,
./stim/MorphF4_09_orig.jpg,58,,,,,0,58,58,58,,,,,,,,,,,,,,,,,,,-22.03125,-12.744140625,1,0,0,3.50182700157,,,,,2015_Nov_05_1324,G,facesParametric,24,59.7957909323,
./stim/MorphM1_10_orig.jpg,59,,,,,0,59,59,59,,,,,,,,,,,,,,,,,,,-22.03125,-12.744140625,1,0,0,0.870048999786,,,,,2015_Nov_05_1324,G,facesParametric,24,59.7957909323,
./stim/MorphF6_03_orig.jpg,60,,,,,0,60,60,60,,,,,,,,,,,,,,,,,,,-22.03125,-12.744140625,0,0,1,0.952168941498,,,,,2015_Nov_05_1324,G,facesParametric,24,59.7957909323,
./stim/MorphF9_04_orig.jpg,61,,,,,0,61,61,61,,,,,,,,,,,,,,,,,,,-22.001953125,-12.7734375,0,0,1,1.08610796928,,,,,2015_Nov_05_1324,G,facesParametric,24,59.7957909323,
./stim/MorphM10_08_orig.jpg,62,,,,,0,62,62,62,,,,,,,,,,,,,,,,,,,-22.03125,-12.802734375,1,0,0,1.15528893471,,,,,2015_Nov_05_1324,G,facesParametric,24,59.7957909323,
./stim/MorphF6_09_orig.jpg,63,,,,,0,63,63,63,,,,,,,,,,,,,,,,,,,-22.03125,-12.802734375,1,0,0,0.887087106705,,,,,2015_Nov_05_1324,G,facesParametric,24,59.7957909323,
./stim/MorphM2_04_orig.jpg,64,,,,,0,64,64,64,,,,,,,,,,,,,,,,,,,-22.822265625,-13.154296875,0,0,1,1.74130511284,,,,,2015_Nov_05_1324,G,facesParametric,24,59.7957909323,
./stim/MorphF5_08_orig.jpg,65,,,,,0,65,65,65,,,,,,,,,,,,,,,,,,,-22.880859375,-13.154296875,1,0,0,1.79196405411,,,,,2015_Nov_05_1324,G,facesParametric,24,59.7957909323,
./stim/MorphF8_05_orig.jpg,66,,,,,0,66,66,66,,,,,,,,,,,,,,,,,,,-22.91015625,-13.154296875,1,0,0,2.36225986481,,,,,2015_Nov_05_1324,G,facesParametric,24,59.7957909323,
./stim/MorphM4_05_orig.jpg,67,,,,,0,67,67,67,,,,,,,,,,,,,,,,,,,-22.91015625,-13.154296875,1,0,0,2.68021392822,,,,,2015_Nov_05_1324,G,facesParametric,24,59.7957909323,
./stim/MorphF3_08_orig.jpg,68,,,,,0,68,68,68,,,,,,,,,,,,,,,,,,,-22.91015625,-13.154296875,1,0,0,1.27260780334,,,,,2015_Nov_05_1324,G,facesParametric,24,59.7957909323,
./stim/MorphM3_05_orig.jpg,69,,,,,0,69,69,69,,,,,,,,,,,,,,,,,,,-22.91015625,-13.154296875,1,0,0,2.24433588982,,,,,2015_Nov_05_1324,G,facesParametric,24,59.7957909323,
./stim/MorphF4_03_orig.jpg,70,,,,,0,70,70,70,,,,,,,,,,,,,,,,,,,-23.4375,-13.154296875,0,0,1,0.987603902817,,,,,2015_Nov_05_1324,G,facesParametric,24,59.7957909323,
./stim/MorphM4_03_orig.jpg,71,,,,,0,71,71,71,,,,,,,,,,,,,,,,,,,-23.4375,-13.154296875,0,0,1,1.79054093361,,,,,2015_Nov_05_1324,G,facesParametric,24,59.7957909323,
./stim/MorphF7_08_orig.jpg,72,,,,,0,72,72,72,,,,,,,,,,,,,,,,,,,-23.4375,-13.154296875,1,0,0,2.92993688583,,,,,2015_Nov_05_1324,G,facesParametric,24,59.7957909323,
./stim/MorphF6_08_orig.jpg,73,,,,,0,73,73,73,,,,,,,,,,,,,,,,,,,-23.4375,-13.154296875,1,0,0,1.50697898865,,,,,2015_Nov_05_1324,G,facesParametric,24,59.7957909323,
./stim/MorphF2_09_orig.jpg,74,,,,,0,74,74,74,,,,,,,,,,,,,,,,,,,-23.4375,-13.154296875,1,0,0,1.84211611748,,,,,2015_Nov_05_1324,G,facesParametric,24,59.7957909323,
./stim/MorphF5_00_orig.jpg,75,,,,,0,75,75,75,,,,,,,,,,,,,,,,,,,-23.4375,-13.154296875,0,0,1,1.38991189003,,,,,2015_Nov_05_1324,G,facesParametric,24,59.7957909323,
./stim/MorphF3_05_orig.jpg,76,,,,,0,76,76,76,,,,,,,,,,,,,,,,,,,-23.4375,-13.154296875,1,0,0,1.08603000641,,,,,2015_Nov_05_1324,G,facesParametric,24,59.7957909323,
./stim/MorphM9_09_orig.jpg,77,,,,,0,77,77,77,,,,,,,,,,,,,,,,,,,-23.4375,-13.154296875,1,0,0,1.25573205948,,,,,2015_Nov_05_1324,G,facesParametric,24,59.7957909323,
./stim/MorphF6_02_orig.jpg,78,,,,,0,78,78,78,,,,,,,,,,,,,,,,,,,-23.4375,-13.154296875,0,0,1,1.23901820183,,,,,2015_Nov_05_1324,G,facesParametric,24,59.7957909323,
./stim/MorphM8_08_orig.jpg,79,,,,,0,79,79,79,,,,,,,,,,,,,,,,,,,-23.4375,-13.154296875,1,0,0,1.00359082222,,,,,2015_Nov_05_1324,G,facesParametric,24,59.7957909323,
./stim/MorphM2_02_orig.jpg,80,,,,,0,80,80,80,,,,,,,,,,,,,,,,,,,-23.4375,-13.154296875,0,0,1,1.13657999039,,,,,2015_Nov_05_1324,G,facesParametric,24,59.7957909323,
./stim/MorphF10_10_orig.jpg,81,,,,,0,81,81,81,,,,,,,,,,,,,,,,,,,-23.4375,-13.154296875,1,0,0,0.852832078934,,,,,2015_Nov_05_1324,G,facesParametric,24,59.7957909323,
./stim/MorphF4_05_orig.jpg,82,,,,,0,82,82,82,,,,,,,,,,,,,,,,,,,-23.4375,-13.154296875,0,0,1,2.81441402435,,,,,2015_Nov_05_1324,G,facesParametric,24,59.7957909323,
./stim/MorphF1_01_orig.jpg,83,,,,,0,83,83,83,,,,,,,,,,,,,,,,,,,-23.4375,-13.154296875,0,0,1,1.12131690979,,,,,2015_Nov_05_1324,G,facesParametric,24,59.7957909323,
./stim/MorphF9_06_orig.jpg,84,,,,,0,84,84,84,,,,,,,,,,,,,,,,,,,-23.4375,-13.154296875,1,0,0,1.13821721077,,,,,2015_Nov_05_1324,G,facesParametric,24,59.7957909323,
./stim/MorphM10_04_orig.jpg,85,,,,,0,85,85,85,,,,,,,,,,,,,,,,,,,-23.37890625,-13.125,0,0,1,3.75416207314,,,,,2015_Nov_05_1324,G,facesParametric,24,59.7957909323,
./stim/MorphF2_05_orig.jpg,86,,,,,0,86,86,86,,,,,,,,,,,,,,,,,,,-23.408203125,-13.154296875,1,0,0,0.900897026062,,,,,2015_Nov_05_1324,G,facesParametric,24,59.7957909323,
./stim/MorphM10_07_orig.jpg,87,,,,,0,87,87,87,,,,,,,,,,,,,,,,,,,-23.4375,-13.154296875,0,0,1,1.27221989632,,,,,2015_Nov_05_1324,G,facesParametric,24,59.7957909323,
./stim/MorphF10_09_orig.jpg,88,,,,,0,88,88,88,,,,,,,,,,,,,,,,,,,-23.4375,-13.154296875,1,0,0,0.837070941925,,,,,2015_Nov_05_1324,G,facesParametric,24,59.7957909323,
./stim/MorphM6_02_orig.jpg,89,,,,,0,89,89,89,,,,,,,,,,,,,,,,,,,-23.4375,-13.154296875,0,0,1,4.50477790833,,,,,2015_Nov_05_1324,G,facesParametric,24,59.7957909323,
./stim/MorphM9_01_orig.jpg,90,,,,,0,90,90,90,,,,,,,,,,,,,,,,,,,-23.4375,-13.154296875,0,0,1,1.42331504822,,,,,2015_Nov_05_1324,G,facesParametric,24,59.7957909323,
./stim/MorphF10_06_orig.jpg,91,,,,,0,91,91,91,,,,,,,,,,,,,,,,,,,-23.4375,-13.154296875,1,0,0,0.853271961212,,,,,2015_Nov_05_1324,G,facesParametric,24,59.7957909323,
./stim/MorphM7_09_orig.jpg,92,,,,,0,92,92,92,,,,,,,,,,,,,,,,,,,-23.349609375,-13.154296875,1,0,0,0.901967048645,,,,,2015_Nov_05_1324,G,facesParametric,24,59.7957909323,
./stim/MorphF5_10_orig.jpg,93,,,,,0,93,93,93,,,,,,,,,,,,,,,,,,,-23.3203125,-13.154296875,1,0,0,2.02689599991,,,,,2015_Nov_05_1324,G,facesParametric,24,59.7957909323,
./stim/MorphF9_03_orig.jpg,94,,,,,0,94,94,94,,,,,,,,,,,,,,,,,,,-23.37890625,-13.095703125,0,0,1,3.21676278114,,,,,2015_Nov_05_1324,G,facesParametric,24,59.7957909323,
./stim/MorphM1_00_orig.jpg,95,,,,,0,95,95,95,,,,,,,,,,,,,,,,,,,-23.408203125,-13.125,0,0,1,1.4228849411,,,,,2015_Nov_05_1324,G,facesParametric,24,59.7957909323,
./stim/MorphF6_04_orig.jpg,96,,,,,0,96,96,96,,,,,,,,,,,,,,,,,,,-23.408203125,-13.125,1,0,0,0.769885063171,,,,,2015_Nov_05_1324,G,facesParametric,24,59.7957909323,
./stim/MorphM6_01_orig.jpg,97,,,,,0,97,97,97,,,,,,,,,,,,,,,,,,,-23.408203125,-13.154296875,1,0,0,0.786737203598,,,,,2015_Nov_05_1324,G,facesParametric,24,59.7957909323,
./stim/MorphM1_05_orig.jpg,98,,,,,0,98,98,98,,,,,,,,,,,,,,,,,,,-23.26171875,-13.154296875,0,0,1,3.3673479557,,,,,2015_Nov_05_1324,G,facesParametric,24,59.7957909323,
./stim/MorphM2_01_orig.jpg,99,,,,,0,99,99,99,,,,,,,,,,,,,,,,,,,-23.232421875,-13.154296875,0,0,1,2.26125884056,,,,,2015_Nov_05_1324,G,facesParametric,24,59.7957909323,
./stim/MorphM7_07_orig.jpg,100,,,,,0,100,100,100,,,,,,,,,,,,,,,,,,,-23.3203125,-13.154296875,1,0,0,0.936990022659,,,,,2015_Nov_05_1324,G,facesParametric,24,59.7957909323,
./stim/MorphF6_10_orig.jpg,101,,,,,0,101,101,101,,,,,,,,,,,,,,,,,,,-23.3203125,-13.154296875,1,0,0,0.685323953629,,,,,2015_Nov_05_1324,G,facesParametric,24,59.7957909323,
./stim/MorphF9_09_orig.jpg,102,,,,,0,102,102,102,,,,,,,,,,,,,,,,,,,-23.3203125,-13.154296875,1,0,0,0.903143882751,,,,,2015_Nov_05_1324,G,facesParametric,24,59.7957909323,
./stim/MorphM7_02_orig.jpg,103,,,,,0,103,103,103,,,,,,,,,,,,,,,,,,,-23.349609375,-13.154296875,0,0,1,1.13621592522,,,,,2015_Nov_05_1324,G,facesParametric,24,59.7957909323,
./stim/MorphM5_09_orig.jpg,104,,,,,0,104,104,104,,,,,,,,,,,,,,,,,,,-23.37890625,-13.154296875,1,0,0,1.28898000717,,,,,2015_Nov_05_1324,G,facesParametric,24,59.7957909323,
./stim/MorphM4_04_orig.jpg,105,,,,,0,105,105,105,,,,,,,,,,,,,,,,,,,-23.37890625,-13.154296875,1,0,0,2.02609300613,,,,,2015_Nov_05_1324,G,facesParametric,24,59.7957909323,
./stim/MorphF1_06_orig.jpg,106,,,,,0,106,106,106,,,,,,,,,,,,,,,,,,,-23.37890625,-13.154296875,1,0,0,1.95982789993,,,,,2015_Nov_05_1324,G,facesParametric,24,59.7957909323,
./stim/MorphF3_04_orig.jpg,107,,,,,0,107,107,107,,,,,,,,,,,,,,,,,,,-23.26171875,-13.125,0,0,1,2.83210420609,,,,,2015_Nov_05_1324,G,facesParametric,24,59.7957909323,
./stim/MorphF4_08_orig.jpg,108,,,,,0,108,108,108,,,,,,,,,,,,,,,,,,,-23.26171875,-13.125,1,0,0,1.67180085182,,,,,2015_Nov_05_1324,G,facesParametric,24,59.7957909323,
./stim/MorphM1_09_orig.jpg,109,,,,,0,109,109,109,,,,,,,,,,,,,,,,,,,-23.4375,-13.154296875,1,0,0,3.03181695938,,,,,2015_Nov_05_1324,G,facesParametric,24,59.7957909323,
./stim/MorphM8_00_orig.jpg,110,,,,,0,110,110,110,,,,,,,,,,,,,,,,,,,-23.4375,-13.154296875,0,0,1,3.06538796425,,,,,2015_Nov_05_1324,G,facesParametric,24,59.7957909323,
./stim/MorphM9_10_orig.jpg,111,,,,,0,111,111,111,,,,,,,,,,,,,,,,,,,-23.4375,-13.154296875,1,0,0,1.02086210251,,,,,2015_Nov_05_1324,G,facesParametric,24,59.7957909323,
./stim/MorphF10_01_orig.jpg,112,,,,,0,112,112,112,,,,,,,,,,,,,,,,,,,-23.4375,-13.154296875,0,0,1,1.33941102028,,,,,2015_Nov_05_1324,G,facesParametric,24,59.7957909323,
./stim/MorphF1_02_orig.jpg,113,,,,,0,113,113,113,,,,,,,,,,,,,,,,,,,-23.4375,-13.154296875,0,0,1,1.0885579586,,,,,2015_Nov_05_1324,G,facesParametric,24,59.7957909323,
./stim/MorphF7_10_orig.jpg,114,,,,,0,114,114,114,,,,,,,,,,,,,,,,,,,-23.4375,-13.154296875,1,0,0,0.800791025162,,,,,2015_Nov_05_1324,G,facesParametric,24,59.7957909323,
./stim/MorphF10_05_orig.jpg,115,,,,,0,115,115,115,,,,,,,,,,,,,,,,,,,-23.4375,-13.154296875,1,0,0,0.753029108047,,,,,2015_Nov_05_1324,G,facesParametric,24,59.7957909323,
./stim/MorphM4_01_orig.jpg,116,,,,,0,116,116,116,,,,,,,,,,,,,,,,,,,-23.408203125,-13.154296875,0,0,1,1.23880195618,,,,,2015_Nov_05_1324,G,facesParametric,24,59.7957909323,
./stim/MorphF2_02_orig.jpg,117,,,,,0,117,117,117,,,,,,,,,,,,,,,,,,,-23.408203125,-13.154296875,1,0,0,1.05443501472,,,,,2015_Nov_05_1324,G,facesParametric,24,59.7957909323,
./stim/MorphM9_02_orig.jpg,118,,,,,0,118,118,118,,,,,,,,,,,,,,,,,,,-23.37890625,-13.154296875,0,0,1,0.836447000504,,,,,2015_Nov_05_1324,G,facesParametric,24,59.7957909323,
./stim/MorphF2_03_orig.jpg,119,,,,,0,119,119,119,,,,,,,,,,,,,,,,,,,-23.408203125,-13.154296875,1,0,0,0.803183078766,,,,,2015_Nov_05_1324,G,facesParametric,24,59.7957909323,
./stim/MorphM5_00_orig.jpg,120,,,,,0,120,120,120,,,,,,,,,,,,,,,,,,,-23.37890625,-13.154296875,0,0,1,2.51280999184,,,,,2015_Nov_05_1324,G,facesParametric,24,59.7957909323,
./stim/MorphF8_01_orig.jpg,121,,,,,0,121,121,121,,,,,,,,,,,,,,,,,,,-23.37890625,-13.154296875,1,0,0,1.87552905083,,,,,2015_Nov_05_1324,G,facesParametric,24,59.7957909323,
./stim/MorphM6_05_orig.jpg,122,,,,,0,122,122,122,,,,,,,,,,,,,,,,,,,-23.37890625,-13.154296875,1,0,0,1.67188715935,,,,,2015_Nov_05_1324,G,facesParametric,24,59.7957909323,
./stim/MorphM2_10_orig.jpg,123,,,,,0,123,123,123,,,,,,,,,,,,,,,,,,,-23.37890625,-13.154296875,1,0,0,0.717694044113,,,,,2015_Nov_05_1324,G,facesParametric,24,59.7957909323,
./stim/MorphF5_04_orig.jpg,124,,,,,0,124,124,124,,,,,,,,,,,,,,,,,,,-23.349609375,-13.154296875,0,0,1,1.64105081558,,,,,2015_Nov_05_1324,G,facesParametric,24,59.7957909323,
./stim/MorphM4_02_orig.jpg,125,,,,,0,125,125,125,,,,,,,,,,,,,,,,,,,-23.408203125,-13.154296875,0,0,1,1.37182807922,,,,,2015_Nov_05_1324,G,facesParametric,24,59.7957909323,
./stim/MorphF3_06_orig.jpg,126,,,,,0,126,126,126,,,,,,,,,,,,,,,,,,,-23.4375,-13.154296875,1,0,0,1.40646505356,,,,,2015_Nov_05_1324,G,facesParametric,24,59.7957909323,
./stim/MorphF7_00_orig.jpg,127,,,,,0,127,127,127,,,,,,,,,,,,,,,,,,,-23.37890625,-13.154296875,0,0,1,1.55735993385,,,,,2015_Nov_05_1324,G,facesParametric,24,59.7957909323,
./stim/MorphM7_00_orig.jpg,128,,,,,0,128,128,128,,,,,,,,,,,,,,,,,,,-23.4375,-13.154296875,0,0,1,1.57235002518,,,,,2015_Nov_05_1324,G,facesParametric,24,59.7957909323,
./stim/MorphM9_07_orig.jpg,129,,,,,0,129,129,129,,,,,,,,,,,,,,,,,,,-23.37890625,-13.125,1,0,0,1.48885297775,,,,,2015_Nov_05_1324,G,facesParametric,24,59.7957909323,
./stim/MorphF10_08_orig.jpg,130,,,,,0,130,130,130,,,,,,,,,,,,,,,,,,,-23.4375,-13.154296875,1,0,0,0.718446969986,,,,,2015_Nov_05_1324,G,facesParametric,24,59.7957909323,
./stim/MorphM8_01_orig.jpg,131,,,,,0,131,131,131,,,,,,,,,,,,,,,,,,,-23.349609375,-13.125,0,0,1,1.3714659214,,,,,2015_Nov_05_1324,G,facesParametric,24,59.7957909323,
./stim/MorphF6_07_orig.jpg,132,,,,,0,132,132,132,,,,,,,,,,,,,,,,,,,-23.408203125,-13.154296875,1,0,0,0.702741861343,,,,,2015_Nov_05_1324,G,facesParametric,24,59.7957909323,
./stim/MorphF5_05_orig.jpg,133,,,,,0,133,133,133,,,,,,,,,,,,,,,,,,,-23.37890625,-13.154296875,0,0,1,1.37358593941,,,,,2015_Nov_05_1324,G,facesParametric,24,59.7957909323,
./stim/MorphM10_10_orig.jpg,134,,,,,0,134,134,134,,,,,,,,,,,,,,,,,,,-23.4375,-13.154296875,1,0,0,0.800990104675,,,,,2015_Nov_05_1324,G,facesParametric,24,59.7957909323,
./stim/MorphM5_06_orig.jpg,135,,,,,0,135,135,135,,,,,,,,,,,,,,,,,,,-23.4375,-13.154296875,1,0,0,2.67994713783,,,,,2015_Nov_05_1324,G,facesParametric,24,59.7957909323,
./stim/MorphM6_03_orig.jpg,136,,,,,0,136,136,136,,,,,,,,,,,,,,,,,,,-23.4375,-13.154296875,0,0,1,3.08242082596,,,,,2015_Nov_05_1324,G,facesParametric,24,59.7957909323,
./stim/MorphM10_09_orig.jpg,137,,,,,0,137,137,137,,,,,,,,,,,,,,,,,,,-23.4375,-13.154296875,1,0,0,0.853981018066,,,,,2015_Nov_05_1324,G,facesParametric,24,59.7957909323,
./stim/MorphM8_03_orig.jpg,138,,,,,0,138,138,138,,,,,,,,,,,,,,,,,,,-23.4375,-13.154296875,0,0,1,1.38961601257,,,,,2015_Nov_05_1324,G,facesParametric,24,59.7957909323,
./stim/MorphF3_01_orig.jpg,139,,,,,0,139,139,139,,,,,,,,,,,,,,,,,,,-23.4375,-13.154296875,0,0,1,1.45544981956,,,,,2015_Nov_05_1324,G,facesParametric,24,59.7957909323,
./stim/MorphF10_02_orig.jpg,140,,,,,0,140,140,140,,,,,,,,,,,,,,,,,,,-23.4375,-13.154296875,1,0,0,0.953573942184,,,,,2015_Nov_05_1324,G,facesParametric,24,59.7957909323,
./stim/MorphM9_05_orig.jpg,141,,,,,0,141,141,141,,,,,,,,,,,,,,,,,,,-23.4375,-13.154296875,0,0,1,10.8254899979,,,,,2015_Nov_05_1324,G,facesParametric,24,59.7957909323,
./stim/MorphF7_06_orig.jpg,142,,,,,0,142,142,142,,,,,,,,,,,,,,,,,,,-23.4375,-13.154296875,1,0,0,0.952543020248,,,,,2015_Nov_05_1324,G,facesParametric,24,59.7957909323,
./stim/MorphM5_08_orig.jpg,143,,,,,0,143,143,143,,,,,,,,,,,,,,,,,,,-22.3828125,-11.19140625,1,0,0,2.79633784294,,,,,2015_Nov_05_1324,G,facesParametric,24,59.7957909323,
./stim/MorphM3_01_orig.jpg,144,,,,,0,144,144,144,,,,,,,,,,,,,,,,,,,-22.353515625,-11.19140625,0,0,1,1.89225697517,,,,,2015_Nov_05_1324,G,facesParametric,24,59.7957909323,
./stim/MorphM8_04_orig.jpg,145,,,,,0,145,145,145,,,,,,,,,,,,,,,,,,,-22.412109375,-11.220703125,1,0,0,0.868765115738,,,,,2015_Nov_05_1324,G,facesParametric,24,59.7957909323,
./stim/MorphF8_02_orig.jpg,146,,,,,0,146,146,146,,,,,,,,,,,,,,,,,,,-22.5,-11.30859375,0,0,1,1.15323209763,,,,,2015_Nov_05_1324,G,facesParametric,24,59.7957909323,
./stim/MorphF3_09_orig.jpg,147,,,,,0,147,147,147,,,,,,,,,,,,,,,,,,,-22.5,-11.30859375,1,0,0,1.18706202507,,,,,2015_Nov_05_1324,G,facesParametric,24,59.7957909323,
./stim/MorphF7_04_orig.jpg,148,,,,,0,148,148,148,,,,,,,,,,,,,,,,,,,-22.529296875,-11.455078125,0,0,1,1.62446498871,,,,,2015_Nov_05_1324,G,facesParametric,24,59.7957909323,
./stim/MorphM1_02_orig.jpg,149,,,,,0,149,149,149,,,,,,,,,,,,,,,,,,,-22.587890625,-11.54296875,0,0,1,1.62326407433,,,,,2015_Nov_05_1324,G,facesParametric,24,59.7957909323,
./stim/MorphM10_03_orig.jpg,150,,,,,0,150,150,150,,,,,,,,,,,,,,,,,,,-22.939453125,-12.041015625,0,0,1,4.89259815216,,,,,2015_Nov_05_1324,G,facesParametric,24,59.7957909323,
./stim/MorphM8_06_orig.jpg,151,,,,,0,151,151,151,,,,,,,,,,,,,,,,,,,-22.880859375,-11.982421875,1,0,0,0.970999956131,,,,,2015_Nov_05_1324,G,facesParametric,24,59.7957909323,
./stim/MorphF8_08_orig.jpg,152,,,,,0,152,152,152,,,,,,,,,,,,,,,,,,,-22.8515625,-12.01171875,1,0,0,0.734237909317,,,,,2015_Nov_05_1324,G,facesParametric,24,59.7957909323,
./stim/MorphM5_10_orig.jpg,153,,,,,0,153,153,153,,,,,,,,,,,,,,,,,,,-22.8515625,-12.01171875,1,0,0,0.803153038025,,,,,2015_Nov_05_1324,G,facesParametric,24,59.7957909323,
./stim/MorphF8_00_orig.jpg,154,,,,,0,154,154,154,,,,,,,,,,,,,,,,,,,-22.822265625,-12.041015625,0,0,1,1.20546603203,,,,,2015_Nov_05_1324,G,facesParametric,24,59.7957909323,
./stim/MorphF3_10_orig.jpg,155,,,,,0,155,155,155,,,,,,,,,,,,,,,,,,,-22.8515625,-12.0703125,1,0,0,1.01893305779,,,,,2015_Nov_05_1324,G,facesParametric,24,59.7957909323,
./stim/MorphM2_00_orig.jpg,156,,,,,0,156,156,156,,,,,,,,,,,,,,,,,,,-22.822265625,-12.041015625,0,0,1,1.55739212036,,,,,2015_Nov_05_1324,G,facesParametric,24,59.7957909323,
./stim/MorphF2_07_orig.jpg,157,,,,,0,157,157,157,,,,,,,,,,,,,,,,,,,-22.939453125,-12.099609375,1,0,0,0.820187807083,,,,,2015_Nov_05_1324,G,facesParametric,24,59.7957909323,
./stim/MorphF9_01_orig.jpg,158,,,,,0,158,158,158,,,,,,,,,,,,,,,,,,,-22.939453125,-12.099609375,0,0,1,3.53441882133,,,,,2015_Nov_05_1324,G,facesParametric,24,59.7957909323,
./stim/MorphF1_03_orig.jpg,159,,,,,0,159,159,159,,,,,,,,,,,,,,,,,,,-22.939453125,-12.099609375,0,0,1,1.12193703651,,,,,2015_Nov_05_1324,G,facesParametric,24,59.7957909323,
./stim/MorphM5_04_orig.jpg,160,,,,,0,160,160,160,,,,,,,,,,,,,,,,,,,-22.91015625,-12.099609375,0,0,1,1.30598902702,,,,,2015_Nov_05_1324,G,facesParametric,24,59.7957909323,
./stim/MorphM2_09_orig.jpg,161,,,,,0,161,161,161,,,,,,,,,,,,,,,,,,,-22.91015625,-12.099609375,1,0,0,1.0545899868,,,,,2015_Nov_05_1324,G,facesParametric,24,59.7957909323,
./stim/MorphF5_07_orig.jpg,162,,,,,0,162,162,162,,,,,,,,,,,,,,,,,,,-22.8515625,-12.0703125,1,0,0,0.786261081696,,,,,2015_Nov_05_1324,G,facesParametric,24,59.7957909323,
./stim/MorphM1_07_orig.jpg,163,,,,,0,163,163,163,,,,,,,,,,,,,,,,,,,-22.79296875,-11.953125,1,0,0,1.57205796242,,,,,2015_Nov_05_1324,G,facesParametric,24,59.7957909323,
./stim/MorphF3_02_orig.jpg,164,,,,,0,164,164,164,,,,,,,,,,,,,,,,,,,-22.880859375,-12.041015625,0,0,1,1.80770611763,,,,,2015_Nov_05_1324,G,facesParametric,24,59.7957909323,
./stim/MorphF1_00_orig.jpg,165,,,,,0,165,165,165,,,,,,,,,,,,,,,,,,,-22.939453125,-12.216796875,0,0,1,1.03798985481,,,,,2015_Nov_05_1324,G,facesParametric,24,59.7957909323,
./stim/MorphM6_08_orig.jpg,166,,,,,0,166,166,166,,,,,,,,,,,,,,,,,,,-22.939453125,-12.216796875,1,0,0,0.987169027328,,,,,2015_Nov_05_1324,G,facesParametric,24,59.7957909323,
./stim/MorphM5_02_orig.jpg,167,,,,,0,167,167,167,,,,,,,,,,,,,,,,,,,-22.96875,-12.24609375,0,0,1,1.60866689682,,,,,2015_Nov_05_1324,G,facesParametric,24,59.7957909323,
./stim/MorphM3_06_orig.jpg,168,,,,,0,168,168,168,,,,,,,,,,,,,,,,,,,-22.998046875,-12.3046875,1,0,0,0.868866920471,,,,,2015_Nov_05_1324,G,facesParametric,24,59.7957909323,
./stim/MorphF7_05_orig.jpg,169,,,,,0,169,169,169,,,,,,,,,,,,,,,,,,,-22.96875,-12.333984375,1,0,0,1.44023299217,,,,,2015_Nov_05_1324,G,facesParametric,24,59.7957909323,
./stim/MorphM1_01_orig.jpg,170,,,,,0,170,170,170,,,,,,,,,,,,,,,,,,,-23.02734375,-12.421875,0,0,1,2.14382004738,,,,,2015_Nov_05_1324,G,facesParametric,24,59.7957909323,
./stim/MorphF9_10_orig.jpg,171,,,,,0,171,171,171,,,,,,,,,,,,,,,,,,,-23.056640625,-12.451171875,1,0,0,1.22008514404,,,,,2015_Nov_05_1324,G,facesParametric,24,59.7957909323,
./stim/MorphM3_03_orig.jpg,172,,,,,0,172,172,172,,,,,,,,,,,,,,,,,,,-23.173828125,-12.48046875,0,0,1,3.4168047905,,,,,2015_Nov_05_1324,G,facesParametric,24,59.7957909323,
./stim/MorphF2_00_orig.jpg,173,,,,,0,173,173,173,,,,,,,,,,,,,,,,,,,-23.349609375,-12.5390625,1,0,0,0.735780954361,,,,,2015_Nov_05_1324,G,facesParametric,24,59.7957909323,
./stim/MorphF4_07_orig.jpg,174,,,,,0,174,174,174,,,,,,,,,,,,,,,,,,,-23.349609375,-12.5390625,1,0,0,4.10477089882,,,,,2015_Nov_05_1324,G,facesParametric,24,59.7957909323,
./stim/MorphM10_05_orig.jpg,175,,,,,0,175,175,175,,,,,,,,,,,,,,,,,,,-23.37890625,-12.5390625,1,0,0,0.752716064453,,,,,2015_Nov_05_1324,G,facesParametric,24,59.7957909323,
./stim/MorphM2_06_orig.jpg,176,,,,,0,176,176,176,,,,,,,,,,,,,,,,,,,-23.37890625,-12.5390625,1,0,0,0.887051105499,,,,,2015_Nov_05_1324,G,facesParametric,24,59.7957909323,
./stim/MorphF9_02_orig.jpg,177,,,,,0,177,177,177,,,,,,,,,,,,,,,,,,,-23.4375,-12.7734375,0,0,1,1.54081201553,,,,,2015_Nov_05_1324,G,facesParametric,24,59.7957909323,
./stim/MorphF4_06_orig.jpg,178,,,,,0,178,178,178,,,,,,,,,,,,,,,,,,,-23.4375,-12.802734375,1,0,0,2.04314303398,,,,,2015_Nov_05_1324,G,facesParametric,24,59.7957909323,
./stim/MorphM2_03_orig.jpg,179,,,,,0,179,179,179,,,,,,,,,,,,,,,,,,,-23.4375,-12.919921875,0,0,1,2.0093691349,,,,,2015_Nov_05_1324,G,facesParametric,24,59.7957909323,
./stim/MorphM9_06_orig.jpg,180,,,,,0,180,180,180,,,,,,,,,,,,,,,,,,,-23.408203125,-12.919921875,1,0,0,1.54061388969,,,,,2015_Nov_05_1324,G,facesParametric,24,59.7957909323,
./stim/MorphF7_01_orig.jpg,181,,,,,0,181,181,181,,,,,,,,,,,,,,,,,,,-23.4375,-12.978515625,0,0,1,1.37329912186,,,,,2015_Nov_05_1324,G,facesParametric,24,59.7957909323,
./stim/MorphM3_07_orig.jpg,182,,,,,0,182,182,182,,,,,,,,,,,,,,,,,,,-23.4375,-12.978515625,1,0,0,1.8425951004,,,,,2015_Nov_05_1324,G,facesParametric,24,59.7957909323,
./stim/MorphM5_03_orig.jpg,183,,,,,0,183,183,183,,,,,,,,,,,,,,,,,,,-18.33984375,-7.060546875,1,0,0,2.79624915123,,,,,2015_Nov_05_1324,G,facesParametric,24,59.7957909323,
./stim/MorphM3_09_orig.jpg,184,,,,,0,184,184,184,,,,,,,,,,,,,,,,,,,-17.724609375,-6.533203125,1,0,0,0.786819934845,,,,,2015_Nov_05_1324,G,facesParametric,24,59.7957909323,
./stim/MorphM1_06_orig.jpg,185,,,,,0,185,185,185,,,,,,,,,,,,,,,,,,,-19.248046875,-2.841796875,1,0,0,1.44039416313,,,,,2015_Nov_05_1324,G,facesParametric,24,59.7957909323,
./stim/MorphM4_06_orig.jpg,186,,,,,0,186,186,186,,,,,,,,,,,,,,,,,,,-19.39453125,-2.9296875,1,0,0,2.14359498024,,,,,2015_Nov_05_1324,G,facesParametric,24,59.7957909323,
./stim/MorphF1_10_orig.jpg,187,,,,,0,187,187,187,,,,,,,,,,,,,,,,,,,-19.453125,-2.98828125,1,0,0,0.869296073914,,,,,2015_Nov_05_1324,G,facesParametric,24,59.7957909323,
./stim/MorphM5_01_orig.jpg,188,,,,,0,188,188,188,,,,,,,,,,,,,,,,,,,-19.5703125,-3.046875,0,0,1,2.10972809792,,,,,2015_Nov_05_1324,G,facesParametric,24,59.7957909323,
./stim/MorphM8_02_orig.jpg,189,,,,,0,189,189,189,,,,,,,,,,,,,,,,,,,-19.62890625,-3.046875,1,0,0,1.22195792198,,,,,2015_Nov_05_1324,G,facesParametric,24,59.7957909323,
./stim/MorphF8_09_orig.jpg,190,,,,,0,190,190,190,,,,,,,,,,,,,,,,,,,-19.62890625,-3.046875,1,0,0,0.953984022141,,,,,2015_Nov_05_1324,G,facesParametric,24,59.7957909323,
./stim/MorphF7_03_orig.jpg,191,,,,,0,191,191,191,,,,,,,,,,,,,,,,,,,-19.62890625,-3.046875,1,0,0,0.635484933853,,,,,2015_Nov_05_1324,G,facesParametric,24,59.7957909323,
./stim/MorphF2_10_orig.jpg,192,,,,,0,192,192,192,,,,,,,,,,,,,,,,,,,-19.62890625,-3.1640625,1,0,0,1.05471086502,,,,,2015_Nov_05_1324,G,facesParametric,24,59.7957909323,
./stim/MorphF1_04_orig.jpg,193,,,,,0,193,193,193,,,,,,,,,,,,,,,,,,,-19.62890625,-3.28125,1,0,0,1.30574607849,,,,,2015_Nov_05_1324,G,facesParametric,24,59.7957909323,
./stim/MorphM5_05_orig.jpg,194,,,,,0,194,194,194,,,,,,,,,,,,,,,,,,,-19.62890625,-3.33984375,1,0,0,1.59034705162,,,,,2015_Nov_05_1324,G,facesParametric,24,59.7957909323,
./stim/MorphF8_06_orig.jpg,195,,,,,0,195,195,195,,,,,,,,,,,,,,,,,,,-19.62890625,-3.33984375,1,0,0,0.953603029251,,,,,2015_Nov_05_1324,G,facesParametric,24,59.7957909323,
./stim/MorphF5_01_orig.jpg,196,,,,,0,196,196,196,,,,,,,,,,,,,,,,,,,-19.62890625,-3.369140625,0,0,1,1.42344498634,,,,,2015_Nov_05_1324,G,facesParametric,24,59.7957909323,
./stim/MorphF4_01_orig.jpg,197,,,,,0,197,197,197,,,,,,,,,,,,,,,,,,,-19.658203125,-3.69140625,0,0,1,1.55774211884,,,,,2015_Nov_05_1324,G,facesParametric,24,59.7957909323,
./stim/MorphM6_10_orig.jpg,198,,,,,0,198,198,198,,,,,,,,,,,,,,,,,,,-19.658203125,-4.21875,1,0,0,0.935693025589,,,,,2015_Nov_05_1324,G,facesParametric,24,59.7957909323,
./stim/MorphF8_10_orig.jpg,199,,,,,0,199,199,199,,,,,,,,,,,,,,,,,,,-19.5703125,-4.423828125,1,0,0,0.803066968918,,,,,2015_Nov_05_1324,G,facesParametric,24,59.7957909323,
./stim/MorphM8_09_orig.jpg,200,,,,,0,200,200,200,,,,,,,,,,,,,,,,,,,-19.541015625,-4.39453125,1,0,0,1.17235684395,,,,,2015_Nov_05_1324,G,facesParametric,24,59.7957909323,
./stim/MorphF8_07_orig.jpg,201,,,,,0,201,201,201,,,,,,,,,,,,,,,,,,,-19.6875,-5.712890625,1,0,0,2.51323699951,,,,,2015_Nov_05_1324,G,facesParametric,24,59.7957909323,
./stim/MorphF10_07_orig.jpg,202,,,,,0,202,202,202,,,,,,,,,,,,,,,,,,,-19.6875,-6.005859375,1,0,0,0.869370937347,,,,,2015_Nov_05_1324,G,facesParametric,24,59.7957909323,
./stim/MorphF4_00_orig.jpg,203,,,,,0,203,203,203,,,,,,,,,,,,,,,,,,,-19.74609375,-6.15234375,0,0,1,0.98628115654,,,,,2015_Nov_05_1324,G,facesParametric,24,59.7957909323,
./stim/MorphF1_09_orig.jpg,204,,,,,0,204,204,204,,,,,,,,,,,,,,,,,,,-19.86328125,-6.62109375,1,0,0,1.23885607719,,,,,2015_Nov_05_1324,G,facesParametric,24,59.7957909323,
./stim/MorphF8_04_orig.jpg,205,,,,,0,205,205,205,,,,,,,,,,,,,,,,,,,-19.86328125,-6.62109375,1,0,0,3.68578100204,,,,,2015_Nov_05_1324,G,facesParametric,24,59.7957909323,
./stim/MorphM10_01_orig.jpg,206,,,,,0,206,206,206,,,,,,,,,,,,,,,,,,,-19.892578125,-6.650390625,0,0,1,3.13274693489,,,,,2015_Nov_05_1324,G,facesParametric,24,59.7957909323,
./stim/MorphF4_02_orig.jpg,207,,,,,0,207,207,207,,,,,,,,,,,,,,,,,,,-19.892578125,-6.650390625,0,0,1,2.19309306145,,,,,2015_Nov_05_1324,G,facesParametric,24,59.7957909323,
./stim/MorphF6_06_orig.jpg,208,,,,,0,208,208,208,,,,,,,,,,,,,,,,,,,-19.833984375,-6.650390625,1,0,0,0.935542106628,,,,,2015_Nov_05_1324,G,facesParametric,24,59.7957909323,
./stim/MorphM7_08_orig.jpg,209,,,,,0,209,209,209,,,,,,,,,,,,,,,,,,,-19.658203125,-6.650390625,1,0,0,1.52357983589,,,,,2015_Nov_05_1324,G,facesParametric,24,59.7957909323,
./stim/MorphM9_04_orig.jpg,210,,,,,0,210,210,210,,,,,,,,,,,,,,,,,,,-19.62890625,-6.6796875,1,0,0,2.22683596611,,,,,2015_Nov_05_1324,G,facesParametric,24,59.7957909323,
./stim/MorphF5_02_orig.jpg,211,,,,,0,211,211,211,,,,,,,,,,,,,,,,,,,-19.62890625,-6.6796875,0,0,1,2.22744417191,,,,,2015_Nov_05_1324,G,facesParametric,24,59.7957909323,
./stim/MorphM4_08_orig.jpg,212,,,,,0,212,212,212,,,,,,,,,,,,,,,,,,,-19.62890625,-6.6796875,1,0,0,0.987609863281,,,,,2015_Nov_05_1324,G,facesParametric,24,59.7957909323,
./stim/MorphF6_00_orig.jpg,213,,,,,0,213,213,213,,,,,,,,,,,,,,,,,,,-19.658203125,-6.73828125,1,0,0,0.73571896553,,,,,2015_Nov_05_1324,G,facesParametric,24,59.7957909323,
./stim/MorphM8_10_orig.jpg,214,,,,,0,214,214,214,,,,,,,,,,,,,,,,,,,-19.658203125,-6.73828125,1,0,0,1.87454390526,,,,,2015_Nov_05_1324,G,facesParametric,24,59.7957909323,
./stim/MorphF4_04_orig.jpg,215,,,,,0,215,215,215,,,,,,,,,,,,,,,,,,,-19.658203125,-6.73828125,0,0,1,1.35667514801,,,,,2015_Nov_05_1324,G,facesParametric,24,59.7957909323,
./stim/MorphM5_07_orig.jpg,216,,,,,0,216,216,216,,,,,,,,,,,,,,,,,,,-19.716796875,-6.73828125,1,0,0,1.2052052021,,,,,2015_Nov_05_1324,G,facesParametric,24,59.7957909323,
./stim/MorphF4_10_orig.jpg,217,,,,,0,217,217,217,,,,,,,,,,,,,,,,,,,-19.6875,-6.97265625,1,0,0,1.03734111786,,,,,2015_Nov_05_1324,G,facesParametric,24,59.7957909323,
./stim/MorphM6_09_orig.jpg,218,,,,,0,218,218,218,,,,,,,,,,,,,,,,,,,-19.6875,-6.97265625,1,0,0,1.13698911667,,,,,2015_Nov_05_1324,G,facesParametric,24,59.7957909323,
./stim/MorphM7_06_orig.jpg,219,,,,,0,219,219,219,,,,,,,,,,,,,,,,,,,-19.62890625,-7.001953125,1,0,0,0.835326194763,,,,,2015_Nov_05_1324,G,facesParametric,24,59.7957909323,
,,,,,,,,,,,,,,,,,,,,,,,,,,,,,,,,,,return,38.1113839149,,,2015_Nov_05_1324,G,facesParametric,24,59.7957909323,
./stim/MorphM10_06_orig.jpg,0,,,,,,,,,0,0,0,0,,,,,,,,,,,,,,,0.234375,3.3984375,1,0,0,3.67478394508,,,,,2015_Nov_05_1324,G,facesParametric,24,59.7957909323,
./stim/MorphM8_03_orig.jpg,1,,,,,,,,,0,1,1,1,,,,,,,,,,,,,,,0.498046875,3.486328125,1,0,0,2.30844092369,,,,,2015_Nov_05_1324,G,facesParametric,24,59.7957909323,
./stim/MorphM10_05_orig.jpg,2,,,,,,,,,0,2,2,2,,,,,,,,,,,,,,,0.64453125,3.6328125,1,0,0,0.888096094131,,,,,2015_Nov_05_1324,G,facesParametric,24,59.7957909323,
./stim/MorphF8_07_orig.jpg,3,,,,,,,,,0,3,3,3,,,,,,,,,,,,,,,1.171875,4.39453125,1,0,0,0.684866905212,,,,,2015_Nov_05_1324,G,facesParametric,24,59.7957909323,
./stim/MorphM10_01_orig.jpg,4,,,,,,,,,0,4,4,4,,,,,,,,,,,,,,,1.025390625,4.5703125,0,0,1,1.00448799133,,,,,2015_Nov_05_1324,G,facesParametric,24,59.7957909323,
./stim/MorphM9_05_orig.jpg,5,,,,,,,,,0,5,5,5,,,,,,,,,,,,,,,0.99609375,4.365234375,1,0,0,2.41206717491,,,,,2015_Nov_05_1324,G,facesParametric,24,59.7957909323,
./stim/MorphM8_07_orig.jpg,6,,,,,,,,,0,6,6,6,,,,,,,,,,,,,,,0.9375,4.3359375,1,0,0,0.718183040619,,,,,2015_Nov_05_1324,G,facesParametric,24,59.7957909323,
./stim/MorphF9_08_orig.jpg,7,,,,,,,,,0,7,7,7,,,,,,,,,,,,,,,0.9375,4.3359375,1,0,0,0.751513004303,,,,,2015_Nov_05_1324,G,facesParametric,24,59.7957909323,
./stim/MorphM5_00_orig.jpg,8,,,,,,,,,0,8,8,8,,,,,,,,,,,,,,,0.849609375,4.3359375,0,0,1,1.05488801003,,,,,2015_Nov_05_1324,G,facesParametric,24,59.7957909323,
./stim/MorphM4_09_orig.jpg,9,,,,,,,,,0,9,9,9,,,,,,,,,,,,,,,0.8203125,4.306640625,1,0,0,0.802858114243,,,,,2015_Nov_05_1324,G,facesParametric,24,59.7957909323,
./stim/MorphM10_07_orig.jpg,10,,,,,,,,,0,10,10,10,,,,,,,,,,,,,,,0.8203125,4.306640625,1,0,0,1.10511207581,,,,,2015_Nov_05_1324,G,facesParametric,24,59.7957909323,
./stim/MorphM2_02_orig.jpg,11,,,,,,,,,0,11,11,11,,,,,,,,,,,,,,,0.849609375,4.16015625,1,0,0,0.702836036682,,,,,2015_Nov_05_1324,G,facesParametric,24,59.7957909323,
./stim/MorphF6_09_orig.jpg,12,,,,,,,,,0,12,12,12,,,,,,,,,,,,,,,0.849609375,4.16015625,1,0,0,1.13812494278,,,,,2015_Nov_05_1324,G,facesParametric,24,59.7957909323,
./stim/MorphM8_10_orig.jpg,13,,,,,,,,,0,13,13,13,,,,,,,,,,,,,,,0.849609375,4.16015625,1,0,0,1.73971891403,,,,,2015_Nov_05_1324,G,facesParametric,24,59.7957909323,
./stim/MorphM5_05_orig.jpg,14,,,,,,,,,0,14,14,14,,,,,,,,,,,,,,,0.8203125,4.16015625,1,0,0,2.96444416046,,,,,2015_Nov_05_1324,G,facesParametric,24,59.7957909323,
./stim/MorphF2_03_orig.jpg,15,,,,,,,,,0,15,15,15,,,,,,,,,,,,,,,0.8203125,4.130859375,1,0,0,0.85338807106,,,,,2015_Nov_05_1324,G,facesParametric,24,59.7957909323,
./stim/MorphM6_01_orig.jpg,16,,,,,,,,,0,16,16,16,,,,,,,,,,,,,,,0.791015625,4.16015625,0,0,1,0.970582008362,,,,,2015_Nov_05_1324,G,facesParametric,24,59.7957909323,
./stim/MorphM9_08_orig.jpg,17,,,,,,,,,0,17,17,17,,,,,,,,,,,,,,,0.791015625,4.130859375,1,0,0,1.18816685677,,,,,2015_Nov_05_1324,G,facesParametric,24,59.7957909323,
./stim/MorphF1_03_orig.jpg,18,,,,,,,,,0,18,18,18,,,,,,,,,,,,,,,0.791015625,4.130859375,0,0,1,1.18913912773,,,,,2015_Nov_05_1324,G,facesParametric,24,59.7957909323,
./stim/MorphM1_04_orig.jpg,19,,,,,,,,,0,19,19,19,,,,,,,,,,,,,,,0.791015625,4.130859375,0,0,1,1.12191390991,,,,,2015_Nov_05_1324,G,facesParametric,24,59.7957909323,
./stim/MorphF10_02_orig.jpg,20,,,,,,,,,0,20,20,20,,,,,,,,,,,,,,,0.791015625,4.130859375,1,0,0,1.01937413216,,,,,2015_Nov_05_1324,G,facesParametric,24,59.7957909323,
./stim/MorphM10_02_orig.jpg,21,,,,,,,,,0,21,21,21,,,,,,,,,,,,,,,0.791015625,4.130859375,0,0,1,4.70838499069,,,,,2015_Nov_05_1324,G,facesParametric,24,59.7957909323,
./stim/MorphF6_02_orig.jpg,22,,,,,,,,,0,22,22,22,,,,,,,,,,,,,,,0.791015625,4.130859375,0,0,1,2.39394783974,,,,,2015_Nov_05_1324,G,facesParametric,24,59.7957909323,
./stim/MorphM5_10_orig.jpg,23,,,,,,,,,0,23,23,23,,,,,,,,,,,,,,,0.791015625,4.130859375,1,0,0,1.59015703201,,,,,2015_Nov_05_1324,G,facesParametric,24,59.7957909323,
./stim/MorphM8_05_orig.jpg,24,,,,,,,,,0,24,24,24,,,,,,,,,,,,,,,0.791015625,4.130859375,1,0,0,1.70574712753,,,,,2015_Nov_05_1324,G,facesParametric,24,59.7957909323,
./stim/MorphM2_00_orig.jpg,25,,,,,,,,,0,25,25,25,,,,,,,,,,,,,,,0.8203125,4.1015625,0,0,1,1.35578989983,,,,,2015_Nov_05_1324,G,facesParametric,24,59.7957909323,
./stim/MorphM4_04_orig.jpg,26,,,,,,,,,0,26,26,26,,,,,,,,,,,,,,,0.8203125,4.1015625,0,0,1,0.971087932587,,,,,2015_Nov_05_1324,G,facesParametric,24,59.7957909323,
./stim/MorphM6_09_orig.jpg,27,,,,,,,,,0,27,27,27,,,,,,,,,,,,,,,0.849609375,4.130859375,1,0,0,2.52815794945,,,,,2015_Nov_05_1324,G,facesParametric,24,59.7957909323,
./stim/MorphM4_07_orig.jpg,28,,,,,,,,,0,28,28,28,,,,,,,,,,,,,,,0.849609375,4.130859375,1,0,0,2.26131820679,,,,,2015_Nov_05_1324,G,facesParametric,24,59.7957909323,
./stim/MorphF8_06_orig.jpg,29,,,,,,,,,0,29,29,29,,,,,,,,,,,,,,,0.87890625,4.1015625,1,0,0,1.07126402855,,,,,2015_Nov_05_1324,G,facesParametric,24,59.7957909323,
./stim/MorphM9_07_orig.jpg,30,,,,,,,,,0,30,30,30,,,,,,,,,,,,,,,0.87890625,4.1015625,1,0,0,1.38968086243,,,,,2015_Nov_05_1324,G,facesParametric,24,59.7957909323,
./stim/MorphF5_07_orig.jpg,31,,,,,,,,,0,31,31,31,,,,,,,,,,,,,,,0.87890625,4.1015625,1,0,0,1.74001193047,,,,,2015_Nov_05_1324,G,facesParametric,24,59.7957909323,
./stim/MorphM4_06_orig.jpg,32,,,,,,,,,0,32,32,32,,,,,,,,,,,,,,,0.87890625,3.896484375,1,0,0,2.29390501976,,,,,2015_Nov_05_1324,G,facesParametric,24,59.7957909323,
./stim/MorphM9_02_orig.jpg,33,,,,,,,,,0,33,33,33,,,,,,,,,,,,,,,0.9375,3.57421875,0,0,1,2.42897987366,,,,,2015_Nov_05_1324,G,facesParametric,24,59.7957909323,
./stim/MorphF1_09_orig.jpg,34,,,,,,,,,0,34,34,34,,,,,,,,,,,,,,,1.142578125,3.80859375,1,0,0,1.42324900627,,,,,2015_Nov_05_1324,G,facesParametric,24,59.7957909323,
./stim/MorphM1_10_orig.jpg,35,,,,,,,,,0,35,35,35,,,,,,,,,,,,,,,1.34765625,3.896484375,1,0,0,0.971096992493,,,,,2015_Nov_05_1324,G,facesParametric,24,59.7957909323,
./stim/MorphF8_08_orig.jpg,36,,,,,,,,,0,36,36,36,,,,,,,,,,,,,,,1.46484375,3.955078125,1,0,0,0.903945922852,,,,,2015_Nov_05_1324,G,facesParametric,24,59.7957909323,
./stim/MorphM8_04_orig.jpg,37,,,,,,,,,0,37,37,37,,,,,,,,,,,,,,,1.552734375,4.04296875,1,0,0,4.60724401474,,,,,2015_Nov_05_1324,G,facesParametric,24,59.7957909323,
./stim/MorphM1_06_orig.jpg,38,,,,,,,,,0,38,38,38,,,,,,,,,,,,,,,1.552734375,3.984375,0,0,1,3.399050951,,,,,2015_Nov_05_1324,G,facesParametric,24,59.7957909323,
./stim/MorphF7_05_orig.jpg,39,,,,,,,,,0,39,39,39,,,,,,,,,,,,,,,1.58203125,3.955078125,0,0,1,1.97606110573,,,,,2015_Nov_05_1324,G,facesParametric,24,59.7957909323,
./stim/MorphM5_09_orig.jpg,40,,,,,,,,,0,40,40,40,,,,,,,,,,,,,,,1.58203125,3.955078125,1,0,0,1.30486297607,,,,,2015_Nov_05_1324,G,facesParametric,24,59.7957909323,
./stim/MorphF8_01_orig.jpg,41,,,,,,,,,0,41,41,41,,,,,,,,,,,,,,,1.728515625,4.072265625,0,0,1,1.20498108864,,,,,2015_Nov_05_1324,G,facesParametric,24,59.7957909323,
./stim/MorphF3_03_orig.jpg,42,,,,,,,,,0,42,42,42,,,,,,,,,,,,,,,1.7578125,4.1015625,0,0,1,1.12167596817,,,,,2015_Nov_05_1324,G,facesParametric,24,59.7957909323,
./stim/MorphM10_08_orig.jpg,43,,,,,,,,,0,43,43,43,,,,,,,,,,,,,,,2.021484375,4.189453125,1,0,0,1.02115607262,,,,,2015_Nov_05_1324,G,facesParametric,24,59.7957909323,
./stim/MorphM3_09_orig.jpg,44,,,,,,,,,0,44,44,44,,,,,,,,,,,,,,,2.2265625,4.072265625,1,0,0,1.30532693863,,,,,2015_Nov_05_1324,G,facesParametric,24,59.7957909323,
./stim/MorphM4_02_orig.jpg,45,,,,,,,,,0,45,45,45,,,,,,,,,,,,,,,2.255859375,4.072265625,0,0,1,1.07154679298,,,,,2015_Nov_05_1324,G,facesParametric,24,59.7957909323,
./stim/MorphF7_06_orig.jpg,46,,,,,,,,,0,46,46,46,,,,,,,,,,,,,,,2.28515625,4.1015625,1,0,0,0.836105823517,,,,,2015_Nov_05_1324,G,facesParametric,24,59.7957909323,
./stim/MorphF6_04_orig.jpg,47,,,,,,,,,0,47,47,47,,,,,,,,,,,,,,,2.373046875,4.072265625,0,0,1,0.971904993057,,,,,2015_Nov_05_1324,G,facesParametric,24,59.7957909323,
./stim/MorphF1_00_orig.jpg,48,,,,,,,,,0,48,48,48,,,,,,,,,,,,,,,2.373046875,4.072265625,0,0,1,1.0700070858,,,,,2015_Nov_05_1324,G,facesParametric,24,59.7957909323,
./stim/MorphF2_07_orig.jpg,49,,,,,,,,,0,49,49,49,,,,,,,,,,,,,,,2.373046875,4.072265625,1,0,0,1.12185502052,,,,,2015_Nov_05_1324,G,facesParametric,24,59.7957909323,
./stim/MorphF9_07_orig.jpg,50,,,,,,,,,0,50,50,50,,,,,,,,,,,,,,,2.51953125,4.04296875,1,0,0,1.65560793877,,,,,2015_Nov_05_1324,G,facesParametric,24,59.7957909323,
./stim/MorphF7_08_orig.jpg,51,,,,,,,,,0,51,51,51,,,,,,,,,,,,,,,2.548828125,4.072265625,1,0,0,0.869851112366,,,,,2015_Nov_05_1324,G,facesParametric,24,59.7957909323,
./stim/MorphM1_07_orig.jpg,52,,,,,,,,,0,52,52,52,,,,,,,,,,,,,,,2.548828125,4.072265625,1,0,0,1.82438516617,,,,,2015_Nov_05_1324,G,facesParametric,24,59.7957909323,
./stim/MorphM7_03_orig.jpg,53,,,,,,,,,0,53,53,53,,,,,,,,,,,,,,,2.63671875,4.072265625,0,0,1,3.90365409851,,,,,2015_Nov_05_1324,G,facesParametric,24,59.7957909323,
./stim/MorphF2_01_orig.jpg,54,,,,,,,,,0,54,54,54,,,,,,,,,,,,,,,2.63671875,4.130859375,1,0,0,0.786500930786,,,,,2015_Nov_05_1324,G,facesParametric,24,59.7957909323,
./stim/MorphF10_03_orig.jpg,55,,,,,,,,,0,55,55,55,,,,,,,,,,,,,,,2.783203125,4.16015625,1,0,0,3.55235886574,,,,,2015_Nov_05_1324,G,facesParametric,24,59.7957909323,
./stim/MorphF7_07_orig.jpg,56,,,,,,,,,0,56,56,56,,,,,,,,,,,,,,,2.8125,4.130859375,1,0,0,1.22006797791,,,,,2015_Nov_05_1324,G,facesParametric,24,59.7957909323,
./stim/MorphF3_10_orig.jpg,57,,,,,,,,,0,57,57,57,,,,,,,,,,,,,,,2.8125,4.130859375,1,0,0,1.03647613525,,,,,2015_Nov_05_1324,G,facesParametric,24,59.7957909323,
./stim/MorphF6_03_orig.jpg,58,,,,,,,,,0,58,58,58,,,,,,,,,,,,,,,2.783203125,4.16015625,0,0,1,1.60803484917,,,,,2015_Nov_05_1324,G,facesParametric,24,59.7957909323,
./stim/MorphM4_03_orig.jpg,59,,,,,,,,,0,59,59,59,,,,,,,,,,,,,,,2.900390625,4.189453125,0,0,1,2.36119103432,,,,,2015_Nov_05_1324,G,facesParametric,24,59.7957909323,
./stim/MorphM6_07_orig.jpg,60,,,,,,,,,0,60,60,60,,,,,,,,,,,,,,,2.900390625,4.189453125,1,0,0,0.886746883392,,,,,2015_Nov_05_1324,G,facesParametric,24,59.7957909323,
./stim/MorphM5_08_orig.jpg,61,,,,,,,,,0,61,61,61,,,,,,,,,,,,,,,3.076171875,4.072265625,1,0,0,1.35653400421,,,,,2015_Nov_05_1324,G,facesParametric,24,59.7957909323,
./stim/MorphF9_06_orig.jpg,62,,,,,,,,,0,62,62,62,,,,,,,,,,,,,,,2.40234375,4.423828125,1,0,0,5.8464140892,,,,,2015_Nov_05_1324,G,facesParametric,24,59.7957909323,
./stim/MorphM3_04_orig.jpg,63,,,,,,,,,0,63,63,63,,,,,,,,,,,,,,,2.373046875,4.39453125,1,0,0,1.84197282791,,,,,2015_Nov_05_1324,G,facesParametric,24,59.7957909323,
./stim/MorphM4_05_orig.jpg,64,,,,,,,,,0,64,64,64,,,,,,,,,,,,,,,2.51953125,4.27734375,1,0,0,1.62472200394,,,,,2015_Nov_05_1324,G,facesParametric,24,59.7957909323,
./stim/MorphF2_09_orig.jpg,65,,,,,,,,,0,65,65,65,,,,,,,,,,,,,,,2.666015625,4.27734375,1,0,0,0.753702878952,,,,,2015_Nov_05_1324,G,facesParametric,24,59.7957909323,
./stim/MorphM1_00_orig.jpg,66,,,,,,,,,0,66,66,66,,,,,,,,,,,,,,,2.6953125,4.248046875,0,0,1,1.00318193436,,,,,2015_Nov_05_1324,G,facesParametric,24,59.7957909323,
./stim/MorphF1_02_orig.jpg,67,,,,,,,,,0,67,67,67,,,,,,,,,,,,,,,2.666015625,4.21875,0,0,1,1.60820102692,,,,,2015_Nov_05_1324,G,facesParametric,24,59.7957909323,
./stim/MorphM4_10_orig.jpg,68,,,,,,,,,0,68,68,68,,,,,,,,,,,,,,,2.607421875,4.072265625,1,0,0,1.12032413483,,,,,2015_Nov_05_1324,G,facesParametric,24,59.7957909323,
./stim/MorphF7_02_orig.jpg,69,,,,,,,,,0,69,69,69,,,,,,,,,,,,,,,2.724609375,4.04296875,0,0,1,1.23938512802,,,,,2015_Nov_05_1324,G,facesParametric,24,59.7957909323,
./stim/MorphM2_09_orig.jpg,70,,,,,,,,,0,70,70,70,,,,,,,,,,,,,,,2.75390625,4.013671875,1,0,0,1.38964509964,,,,,2015_Nov_05_1324,G,facesParametric,24,59.7957909323,
./stim/MorphF1_05_orig.jpg,71,,,,,,,,,0,71,71,71,,,,,,,,,,,,,,,2.8125,3.896484375,0,0,1,5.11056685448,,,,,2015_Nov_05_1324,G,facesParametric,24,59.7957909323,
./stim/MorphF4_05_orig.jpg,72,,,,,,,,,0,72,72,72,,,,,,,,,,,,,,,2.724609375,3.57421875,1,0,0,0.870265960693,,,,,2015_Nov_05_1324,G,facesParametric,24,59.7957909323,
./stim/MorphF9_05_orig.jpg,73,,,,,,,,,0,73,73,73,,,,,,,,,,,,,,,2.783203125,3.57421875,1,0,0,1.82502794266,,,,,2015_Nov_05_1324,G,facesParametric,24,59.7957909323,
./stim/MorphF1_04_orig.jpg,74,,,,,,,,,0,74,74,74,,,,,,,,,,,,,,,2.8125,3.544921875,1,0,0,1.65725588799,,,,,2015_Nov_05_1324,G,facesParametric,24,59.7957909323,
./stim/MorphF3_04_orig.jpg,75,,,,,,,,,0,75,75,75,,,,,,,,,,,,,,,2.87109375,3.486328125,0,0,1,1.28904795647,,,,,2015_Nov_05_1324,G,facesParametric,24,59.7957909323,
./stim/MorphM3_08_orig.jpg,76,,,,,,,,,0,76,76,76,,,,,,,,,,,,,,,3.1640625,3.603515625,1,0,0,1.13869285583,,,,,2015_Nov_05_1324,G,facesParametric,24,59.7957909323,
./stim/MorphF1_06_orig.jpg,77,,,,,,,,,0,77,77,77,,,,,,,,,,,,,,,3.33984375,3.603515625,1,0,0,1.15498399734,,,,,2015_Nov_05_1324,G,facesParametric,24,59.7957909323,
./stim/MorphF5_01_orig.jpg,78,,,,,,,,,0,78,78,78,,,,,,,,,,,,,,,3.28125,3.310546875,0,0,1,1.28911280632,,,,,2015_Nov_05_1324,G,facesParametric,24,59.7957909323,
./stim/MorphF8_00_orig.jpg,79,,,,,,,,,0,79,79,79,,,,,,,,,,,,,,,3.28125,3.310546875,0,0,1,1.52279400826,,,,,2015_Nov_05_1324,G,facesParametric,24,59.7957909323,
./stim/MorphM7_00_orig.jpg,80,,,,,,,,,0,80,80,80,,,,,,,,,,,,,,,3.28125,3.310546875,0,0,1,1.5911359787,,,,,2015_Nov_05_1324,G,facesParametric,24,59.7957909323,
./stim/MorphF8_02_orig.jpg,81,,,,,,,,,0,81,81,81,,,,,,,,,,,,,,,3.310546875,3.33984375,0,0,1,1.50622797012,,,,,2015_Nov_05_1324,G,facesParametric,24,59.7957909323,
./stim/MorphF9_01_orig.jpg,82,,,,,,,,,0,82,82,82,,,,,,,,,,,,,,,3.310546875,3.33984375,0,0,1,1.52411603928,,,,,2015_Nov_05_1324,G,facesParametric,24,59.7957909323,
./stim/MorphM6_10_orig.jpg,83,,,,,,,,,0,83,83,83,,,,,,,,,,,,,,,3.310546875,3.33984375,1,0,0,1.15511083603,,,,,2015_Nov_05_1324,G,facesParametric,24,59.7957909323,
./stim/MorphF2_00_orig.jpg,84,,,,,,,,,0,84,84,84,,,,,,,,,,,,,,,3.45703125,3.369140625,1,0,0,2.69683384895,,,,,2015_Nov_05_1324,G,facesParametric,24,59.7957909323,
./stim/MorphF3_08_orig.jpg,85,,,,,,,,,0,85,85,85,,,,,,,,,,,,,,,3.486328125,3.369140625,1,0,0,0.954431056976,,,,,2015_Nov_05_1324,G,facesParametric,24,59.7957909323,
./stim/MorphF7_04_orig.jpg,86,,,,,,,,,0,86,86,86,,,,,,,,,,,,,,,3.486328125,3.369140625,0,0,1,1.55732893944,,,,,2015_Nov_05_1324,G,facesParametric,24,59.7957909323,
./stim/MorphF4_00_orig.jpg,87,,,,,,,,,0,87,87,87,,,,,,,,,,,,,,,3.3984375,3.22265625,0,0,1,1.52316403389,,,,,2015_Nov_05_1324,G,facesParametric,24,59.7957909323,
./stim/MorphF1_01_orig.jpg,88,,,,,,,,,0,88,88,88,,,,,,,,,,,,,,,3.3984375,3.22265625,0,0,1,3.48265314102,,,,,2015_Nov_05_1324,G,facesParametric,24,59.7957909323,
./stim/MorphM9_10_orig.jpg,89,,,,,,,,,0,89,89,89,,,,,,,,,,,,,,,3.369140625,2.958984375,1,0,0,0.80356502533,,,,,2015_Nov_05_1324,G,facesParametric,24,59.7957909323,
./stim/MorphM6_00_orig.jpg,90,,,,,,,,,0,90,90,90,,,,,,,,,,,,,,,3.515625,2.900390625,0,0,1,1.54038500786,,,,,2015_Nov_05_1324,G,facesParametric,24,59.7957909323,
./stim/MorphM7_10_orig.jpg,91,,,,,,,,,0,91,91,91,,,,,,,,,,,,,,,3.515625,2.900390625,1,0,0,0.871429920197,,,,,2015_Nov_05_1324,G,facesParametric,24,59.7957909323,
./stim/MorphM5_04_orig.jpg,92,,,,,,,,,0,92,92,92,,,,,,,,,,,,,,,3.515625,2.841796875,1,0,0,0.819001913071,,,,,2015_Nov_05_1324,G,facesParametric,24,59.7957909323,
./stim/MorphF4_02_orig.jpg,93,,,,,,,,,0,93,93,93,,,,,,,,,,,,,,,3.486328125,2.841796875,0,0,1,1.85835909843,,,,,2015_Nov_05_1324,G,facesParametric,24,59.7957909323,
./stim/MorphF5_05_orig.jpg,94,,,,,,,,,0,94,94,94,,,,,,,,,,,,,,,3.515625,2.8125,1,0,0,1.67494487762,,,,,2015_Nov_05_1324,G,facesParametric,24,59.7957909323,
./stim/MorphF10_08_orig.jpg,95,,,,,,,,,0,95,95,95,,,,,,,,,,,,,,,3.603515625,2.6953125,1,0,0,0.970864057541,,,,,2015_Nov_05_1324,G,facesParametric,24,59.7957909323,
./stim/MorphM5_03_orig.jpg,96,,,,,,,,,0,96,96,96,,,,,,,,,,,,,,,3.6328125,2.40234375,1,0,0,2.21112108231,,,,,2015_Nov_05_1324,G,facesParametric,24,59.7957909323,
./stim/MorphM8_06_orig.jpg,97,,,,,,,,,0,97,97,97,,,,,,,,,,,,,,,3.80859375,1.81640625,1,0,0,1.02121305466,,,,,2015_Nov_05_1324,G,facesParametric,24,59.7957909323,
./stim/MorphF3_06_orig.jpg,98,,,,,,,,,0,98,98,98,,,,,,,,,,,,,,,3.955078125,1.728515625,1,0,0,2.2923848629,,,,,2015_Nov_05_1324,G,facesParametric,24,59.7957909323,
./stim/MorphM1_01_orig.jpg,99,,,,,,,,,0,99,99,99,,,,,,,,,,,,,,,4.04296875,1.46484375,0,0,1,0.803019046783,,,,,2015_Nov_05_1324,G,facesParametric,24,59.7957909323,
./stim/MorphM4_00_orig.jpg,100,,,,,,,,,0,100,100,100,,,,,,,,,,,,,,,3.662109375,1.46484375,0,0,1,0.920382022858,,,,,2015_Nov_05_1324,G,facesParametric,24,59.7957909323,
./stim/MorphM3_05_orig.jpg,101,,,,,,,,,0,101,101,101,,,,,,,,,,,,,,,4.306640625,1.81640625,1,0,0,4.69136786461,,,,,2015_Nov_05_1324,G,facesParametric,24,59.7957909323,
./stim/MorphM5_06_orig.jpg,102,,,,,,,,,0,102,102,102,,,,,,,,,,,,,,,4.39453125,1.7578125,1,0,0,1.13702702522,,,,,2015_Nov_05_1324,G,facesParametric,24,59.7957909323,
./stim/MorphM7_04_orig.jpg,103,,,,,,,,,0,103,103,103,,,,,,,,,,,,,,,4.39453125,1.7578125,1,0,0,5.2108271122,,,,,2015_Nov_05_1324,G,facesParametric,24,59.7957909323,
./stim/MorphF3_09_orig.jpg,104,,,,,,,,,0,104,104,104,,,,,,,,,,,,,,,4.39453125,1.2890625,1,0,0,0.835669994354,,,,,2015_Nov_05_1324,G,facesParametric,24,59.7957909323,
./stim/MorphM7_07_orig.jpg,105,,,,,,,,,0,105,105,105,,,,,,,,,,,,,,,4.39453125,1.318359375,1,0,0,0.853228092194,,,,,2015_Nov_05_1324,G,facesParametric,24,59.7957909323,
./stim/MorphF2_05_orig.jpg,106,,,,,,,,,0,106,106,106,,,,,,,,,,,,,,,4.189453125,1.34765625,1,0,0,1.80704784393,,,,,2015_Nov_05_1324,G,facesParametric,24,59.7957909323,
./stim/MorphM10_09_orig.jpg,107,,,,,,,,,0,107,107,107,,,,,,,,,,,,,,,4.248046875,1.11328125,1,0,0,1.0713429451,,,,,2015_Nov_05_1324,G,facesParametric,24,59.7957909323,
./stim/MorphM5_02_orig.jpg,108,,,,,,,,,0,108,108,108,,,,,,,,,,,,,,,4.423828125,0.41015625,1,0,0,1.48985505104,,,,,2015_Nov_05_1324,G,facesParametric,24,59.7957909323,
./stim/MorphF4_06_orig.jpg,109,,,,,,,,,0,109,109,109,,,,,,,,,,,,,,,4.599609375,0.0,1,0,0,1.42317509651,,,,,2015_Nov_05_1324,G,facesParametric,24,59.7957909323,
./stim/MorphM10_03_orig.jpg,110,,,,,,,,,0,110,110,110,,,,,,,,,,,,,,,4.716796875,-0.205078125,0,0,1,1.79264211655,,,,,2015_Nov_05_1324,G,facesParametric,24,59.7957909323,
./stim/MorphF5_03_orig.jpg,111,,,,,,,,,0,111,111,111,,,,,,,,,,,,,,,4.599609375,-0.29296875,0,0,1,1.48775911331,,,,,2015_Nov_05_1324,G,facesParametric,24,59.7957909323,
./stim/MorphF7_00_orig.jpg,112,,,,,,,,,0,112,112,112,,,,,,,,,,,,,,,4.599609375,-0.29296875,0,0,1,1.95873308182,,,,,2015_Nov_05_1324,G,facesParametric,24,59.7957909323,
./stim/MorphF2_06_orig.jpg,113,,,,,,,,,0,113,113,113,,,,,,,,,,,,,,,4.482421875,-0.41015625,1,0,0,0.836374044418,,,,,2015_Nov_05_1324,G,facesParametric,24,59.7957909323,
./stim/MorphM2_06_orig.jpg,114,,,,,,,,,0,114,114,114,,,,,,,,,,,,,,,4.5703125,-0.52734375,1,0,0,0.936908006668,,,,,2015_Nov_05_1324,G,facesParametric,24,59.7957909323,
./stim/MorphM9_00_orig.jpg,115,,,,,,,,,0,115,115,115,,,,,,,,,,,,,,,4.189453125,-0.1171875,0,0,1,1.20660209656,,,,,2015_Nov_05_1324,G,facesParametric,24,59.7957909323,
./stim/MorphM7_09_orig.jpg,116,,,,,,,,,0,116,116,116,,,,,,,,,,,,,,,4.306640625,0.0,1,0,0,0.986342906952,,,,,2015_Nov_05_1324,G,facesParametric,24,59.7957909323,
./stim/MorphM3_01_orig.jpg,117,,,,,,,,,0,117,117,117,,,,,,,,,,,,,,,4.3359375,-0.1171875,1,0,0,3.61915397644,,,,,2015_Nov_05_1324,G,facesParametric,24,59.7957909323,
./stim/MorphM1_03_orig.jpg,118,,,,,,,,,0,118,118,118,,,,,,,,,,,,,,,4.306640625,-0.41015625,0,0,1,2.04332399368,,,,,2015_Nov_05_1324,G,facesParametric,24,59.7957909323,
./stim/MorphM6_03_orig.jpg,119,,,,,,,,,0,119,119,119,,,,,,,,,,,,,,,4.21875,-0.46875,1,0,0,1.23859596252,,,,,2015_Nov_05_1324,G,facesParametric,24,59.7957909323,
./stim/MorphF8_04_orig.jpg,120,,,,,,,,,0,120,120,120,,,,,,,,,,,,,,,3.80859375,-0.673828125,0,0,1,3.61900997162,,,,,2015_Nov_05_1324,G,facesParametric,24,59.7957909323,
./stim/MorphF7_03_orig.jpg,121,,,,,,,,,0,121,121,121,,,,,,,,,,,,,,,3.8671875,-0.673828125,1,0,0,0.786248922348,,,,,2015_Nov_05_1324,G,facesParametric,24,59.7957909323,
./stim/MorphF1_08_orig.jpg,122,,,,,,,,,0,122,122,122,,,,,,,,,,,,,,,3.955078125,-0.673828125,1,0,0,1.22242689133,,,,,2015_Nov_05_1324,G,facesParametric,24,59.7957909323,
./stim/MorphF5_02_orig.jpg,123,,,,,,,,,0,123,123,123,,,,,,,,,,,,,,,4.04296875,-0.791015625,0,0,1,1.02126216888,,,,,2015_Nov_05_1324,G,facesParametric,24,59.7957909323,
./stim/MorphM3_10_orig.jpg,124,,,,,,,,,0,124,124,124,,,,,,,,,,,,,,,4.04296875,-0.791015625,1,0,0,1.43924713135,,,,,2015_Nov_05_1324,G,facesParametric,24,59.7957909323,
./stim/MorphF3_00_orig.jpg,125,,,,,,,,,0,125,125,125,,,,,,,,,,,,,,,3.955078125,-0.732421875,0,0,1,2.93130898476,,,,,2015_Nov_05_1324,G,facesParametric,24,59.7957909323,
./stim/MorphF8_09_orig.jpg,126,,,,,,,,,0,126,126,126,,,,,,,,,,,,,,,3.544921875,-0.52734375,1,0,0,1.43961596489,,,,,2015_Nov_05_1324,G,facesParametric,24,59.7957909323,
./stim/MorphM2_03_orig.jpg,127,,,,,,,,,0,127,127,127,,,,,,,,,,,,,,,3.486328125,-0.732421875,1,0,0,0.719800949097,,,,,2015_Nov_05_1324,G,facesParametric,24,59.7957909323,
./stim/MorphM7_08_orig.jpg,128,,,,,,,,,0,128,128,128,,,,,,,,,,,,,,,3.486328125,-0.732421875,1,0,0,2.22607803345,,,,,2015_Nov_05_1324,G,facesParametric,24,59.7957909323,
./stim/MorphF10_00_orig.jpg,129,,,,,,,,,0,129,129,129,,,,,,,,,,,,,,,3.369140625,-0.556640625,1,0,0,1.77539491653,,,,,2015_Nov_05_1324,G,facesParametric,24,59.7957909323,
./stim/MorphF9_00_orig.jpg,130,,,,,,,,,0,130,130,130,,,,,,,,,,,,,,,3.310546875,-0.99609375,0,0,1,1.088285923,,,,,2015_Nov_05_1324,G,facesParametric,24,59.7957909323,
./stim/MorphF4_07_orig.jpg,131,,,,,,,,,0,131,131,131,,,,,,,,,,,,,,,2.958984375,-1.259765625,1,0,0,2.62997603416,,,,,2015_Nov_05_1324,G,facesParametric,24,59.7957909323,
./stim/MorphM2_01_orig.jpg,132,,,,,,,,,0,132,132,132,,,,,,,,,,,,,,,2.958984375,-1.259765625,0,0,1,1.25533509254,,,,,2015_Nov_05_1324,G,facesParametric,24,59.7957909323,
./stim/MorphM4_08_orig.jpg,133,,,,,,,,,0,133,133,133,,,,,,,,,,,,,,,2.98828125,-1.2890625,1,0,0,0.954263925552,,,,,2015_Nov_05_1324,G,facesParametric,24,59.7957909323,
./stim/MorphF6_05_orig.jpg,134,,,,,,,,,0,134,134,134,,,,,,,,,,,,,,,3.046875,-1.669921875,0,0,1,1.35605502129,,,,,2015_Nov_05_1324,G,facesParametric,24,59.7957909323,
./stim/MorphF10_05_orig.jpg,135,,,,,,,,,0,135,135,135,,,,,,,,,,,,,,,3.046875,-1.845703125,1,0,0,3.34896588326,,,,,2015_Nov_05_1324,G,facesParametric,24,59.7957909323,
./stim/MorphF9_09_orig.jpg,136,,,,,,,,,0,136,136,136,,,,,,,,,,,,,,,3.076171875,-0.64453125,1,0,0,0.834864854813,,,,,2015_Nov_05_1324,G,facesParametric,24,59.7957909323,
./stim/MorphM6_02_orig.jpg,137,,,,,,,,,0,137,137,137,,,,,,,,,,,,,,,3.046875,-0.966796875,0,0,1,2.21149492264,,,,,2015_Nov_05_1324,G,facesParametric,24,59.7957909323,
./stim/MorphM5_01_orig.jpg,138,,,,,,,,,0,138,138,138,,,,,,,,,,,,,,,3.046875,-0.966796875,1,0,0,1.17208695412,,,,,2015_Nov_05_1324,G,facesParametric,24,59.7957909323,
./stim/MorphF10_10_orig.jpg,139,,,,,,,,,0,139,139,139,,,,,,,,,,,,,,,4.39453125,-0.46875,0,0,1,1.32274103165,,,,,2015_Nov_05_1324,G,facesParametric,24,59.7957909323,
./stim/MorphF6_01_orig.jpg,140,,,,,,,,,0,140,140,140,,,,,,,,,,,,,,,3.603515625,-0.99609375,0,0,1,1.07134890556,,,,,2015_Nov_05_1324,G,facesParametric,24,59.7957909323,
./stim/MorphF7_10_orig.jpg,141,,,,,,,,,0,141,141,141,,,,,,,,,,,,,,,4.27734375,-0.908203125,1,0,0,1.0201010704,,,,,2015_Nov_05_1324,G,facesParametric,24,59.7957909323,
./stim/MorphM5_07_orig.jpg,142,,,,,,,,,0,142,142,142,,,,,,,,,,,,,,,5.44921875,-0.05859375,1,0,0,1.6409330368,,,,,2015_Nov_05_1324,G,facesParametric,24,59.7957909323,
./stim/MorphF10_06_orig.jpg,143,,,,,,,,,0,143,143,143,,,,,,,,,,,,,,,4.833984375,-0.146484375,1,0,0,1.40717887878,,,,,2015_Nov_05_1324,G,facesParametric,24,59.7957909323,
./stim/MorphM2_04_orig.jpg,144,,,,,,,,,0,144,144,144,,,,,,,,,,,,,,,12.36328125,13.154296875,0,0,1,1.23843407631,,,,,2015_Nov_05_1324,G,facesParametric,24,59.7957909323,
./stim/MorphM3_02_orig.jpg,145,,,,,,,,,0,145,145,145,,,,,,,,,,,,,,,12.01171875,11.748046875,0,0,1,2.19466495514,,,,,2015_Nov_05_1324,G,facesParametric,24,59.7957909323,
./stim/MorphF3_07_orig.jpg,146,,,,,,,,,0,146,146,146,,,,,,,,,,,,,,,11.982421875,11.71875,1,0,0,0.934802055359,,,,,2015_Nov_05_1324,G,facesParametric,24,59.7957909323,
./stim/MorphM3_00_orig.jpg,147,,,,,,,,,0,147,147,147,,,,,,,,,,,,,,,12.626953125,11.015625,0,0,1,0.971143007278,,,,,2015_Nov_05_1324,G,facesParametric,24,59.7957909323,
./stim/MorphF1_07_orig.jpg,148,,,,,,,,,0,148,148,148,,,,,,,,,,,,,,,12.333984375,10.751953125,1,0,0,3.66832590103,,,,,2015_Nov_05_1324,G,facesParametric,24,59.7957909323,
./stim/MorphF5_09_orig.jpg,149,,,,,,,,,0,149,149,149,,,,,,,,,,,,,,,12.24609375,9.78515625,1,0,0,1.07160496712,,,,,2015_Nov_05_1324,G,facesParametric,24,59.7957909323,
./stim/MorphF6_00_orig.jpg,150,,,,,,,,,0,150,150,150,,,,,,,,,,,,,,,11.30859375,9.638671875,0,0,1,0.837903022766,,,,,2015_Nov_05_1324,G,facesParametric,24,59.7957909323,
./stim/MorphF5_00_orig.jpg,151,,,,,,,,,0,151,151,151,,,,,,,,,,,,,,,10.01953125,8.4375,1,0,0,0.902806997299,,,,,2015_Nov_05_1324,G,facesParametric,24,59.7957909323,
./stim/MorphF4_10_orig.jpg,152,,,,,,,,,0,152,152,152,,,,,,,,,,,,,,,9.873046875,8.232421875,1,0,0,1.60788106918,,,,,2015_Nov_05_1324,G,facesParametric,24,59.7957909323,
./stim/MorphM8_02_orig.jpg,153,,,,,,,,,0,153,153,153,,,,,,,,,,,,,,,10.224609375,8.232421875,1,0,0,1.02178502083,,,,,2015_Nov_05_1324,G,facesParametric,24,59.7957909323,
./stim/MorphF8_03_orig.jpg,154,,,,,,,,,0,154,154,154,,,,,,,,,,,,,,,9.7265625,7.939453125,0,0,1,0.936244010925,,,,,2015_Nov_05_1324,G,facesParametric,24,59.7957909323,
./stim/MorphM7_02_orig.jpg,155,,,,,,,,,0,155,155,155,,,,,,,,,,,,,,,9.0234375,7.412109375,0,0,1,1.08778309822,,,,,2015_Nov_05_1324,G,facesParametric,24,59.7957909323,
./stim/MorphM10_04_orig.jpg,156,,,,,,,,,0,156,156,156,,,,,,,,,,,,,,,8.73046875,7.20703125,1,0,0,1.10405683517,,,,,2015_Nov_05_1324,G,facesParametric,24,59.7957909323,
./stim/MorphF3_02_orig.jpg,157,,,,,,,,,0,157,157,157,,,,,,,,,,,,,,,12.041015625,5.009765625,0,0,1,2.24428105354,,,,,2015_Nov_05_1324,G,facesParametric,24,59.7957909323,
./stim/MorphM10_10_orig.jpg,158,,,,,,,,,0,158,158,158,,,,,,,,,,,,,,,11.923828125,4.98046875,1,0,0,0.886563062668,,,,,2015_Nov_05_1324,G,facesParametric,24,59.7957909323,
./stim/MorphF4_04_orig.jpg,159,,,,,,,,,0,159,159,159,,,,,,,,,,,,,,,10.810546875,2.578125,1,0,0,1.47120285034,,,,,2015_Nov_05_1324,G,facesParametric,24,59.7957909323,
./stim/MorphF9_04_orig.jpg,160,,,,,,,,,0,160,160,160,,,,,,,,,,,,,,,12.24609375,1.34765625,1,0,0,1.5734910965,,,,,2015_Nov_05_1324,G,facesParametric,24,59.7957909323,
./stim/MorphM7_01_orig.jpg,161,,,,,,,,,0,161,161,161,,,,,,,,,,,,,,,12.392578125,0.908203125,1,0,0,1.99324297905,,,,,2015_Nov_05_1324,G,facesParametric,24,59.7957909323,
./stim/MorphM1_09_orig.jpg,162,,,,,,,,,0,162,162,162,,,,,,,,,,,,,,,12.685546875,-1.787109375,1,0,0,1.0386929512,,,,,2015_Nov_05_1324,G,facesParametric,24,59.7957909323,
./stim/MorphF4_08_orig.jpg,163,,,,,,,,,0,163,163,163,,,,,,,,,,,,,,,13.740234375,-2.607421875,1,0,0,0.852675914764,,,,,2015_Nov_05_1324,G,facesParametric,24,59.7957909323,
./stim/MorphF9_02_orig.jpg,164,,,,,,,,,0,164,164,164,,,,,,,,,,,,,,,15.99609375,-7.177734375,0,0,1,3.40044593811,,,,,2015_Nov_05_1324,G,facesParametric,24,59.7957909323,
./stim/MorphF5_08_orig.jpg,165,,,,,,,,,0,165,165,165,,,,,,,,,,,,,,,15.087890625,-7.734375,1,0,0,0.836524963379,,,,,2015_Nov_05_1324,G,facesParametric,24,59.7957909323,
./stim/MorphF9_10_orig.jpg,166,,,,,,,,,0,166,166,166,,,,,,,,,,,,,,,17.548828125,-12.509765625,1,0,0,1.12135195732,,,,,2015_Nov_05_1324,G,facesParametric,24,59.7957909323,
./stim/MorphF4_01_orig.jpg,167,,,,,,,,,0,167,167,167,,,,,,,,,,,,,,,18.984375,-13.154296875,0,0,1,1.47421312332,,,,,2015_Nov_05_1324,G,facesParametric,24,59.7957909323,
./stim/MorphF6_07_orig.jpg,168,,,,,,,,,0,168,168,168,,,,,,,,,,,,,,,17.98828125,-13.154296875,1,0,0,0.802924156189,,,,,2015_Nov_05_1324,G,facesParametric,24,59.7957909323,
./stim/MorphF5_06_orig.jpg,169,,,,,,,,,0,169,169,169,,,,,,,,,,,,,,,18.134765625,-13.06640625,1,0,0,1.18845295906,,,,,2015_Nov_05_1324,G,facesParametric,24,59.7957909323,
./stim/MorphF4_03_orig.jpg,170,,,,,,,,,0,170,170,170,,,,,,,,,,,,,,,17.021484375,-13.154296875,0,0,1,1.40636587143,,,,,2015_Nov_05_1324,G,facesParametric,24,59.7957909323,
./stim/MorphM1_05_orig.jpg,171,,,,,,,,,0,171,171,171,,,,,,,,,,,,,,,16.845703125,-13.154296875,0,0,1,2.42885613441,,,,,2015_Nov_05_1324,G,facesParametric,24,59.7957909323,
./stim/MorphF10_09_orig.jpg,172,,,,,,,,,0,172,172,172,,,,,,,,,,,,,,,16.728515625,-13.154296875,1,0,0,0.786192893982,,,,,2015_Nov_05_1324,G,facesParametric,24,59.7957909323,
./stim/MorphM7_06_orig.jpg,173,,,,,,,,,0,173,173,173,,,,,,,,,,,,,,,16.875,-13.154296875,1,0,0,2.34519696236,,,,,2015_Nov_05_1324,G,facesParametric,24,59.7957909323,
./stim/MorphF2_10_orig.jpg,174,,,,,,,,,0,174,174,174,,,,,,,,,,,,,,,17.021484375,-13.154296875,1,0,0,0.836875915527,,,,,2015_Nov_05_1324,G,facesParametric,24,59.7957909323,
./stim/MorphM8_08_orig.jpg,175,,,,,,,,,0,175,175,175,,,,,,,,,,,,,,,17.34375,-13.06640625,1,0,0,1.08823084831,,,,,2015_Nov_05_1324,G,facesParametric,24,59.7957909323,
./stim/MorphM9_06_orig.jpg,176,,,,,,,,,0,176,176,176,,,,,,,,,,,,,,,17.548828125,-13.154296875,0,0,1,1.64107108116,,,,,2015_Nov_05_1324,G,facesParametric,24,59.7957909323,
./stim/MorphF2_08_orig.jpg,177,,,,,,,,,0,177,177,177,,,,,,,,,,,,,,,17.6953125,-13.125,1,0,0,0.635416030884,,,,,2015_Nov_05_1324,G,facesParametric,24,59.7957909323,
./stim/MorphM3_03_orig.jpg,178,,,,,,,,,0,178,178,178,,,,,,,,,,,,,,,17.87109375,-13.037109375,0,0,1,1.62465906143,,,,,2015_Nov_05_1324,G,facesParametric,24,59.7957909323,
./stim/MorphF3_05_orig.jpg,179,,,,,,,,,0,179,179,179,,,,,,,,,,,,,,,17.958984375,-13.0078125,1,0,0,1.07097911835,,,,,2015_Nov_05_1324,G,facesParametric,24,59.7957909323,
./stim/MorphF10_01_orig.jpg,180,,,,,,,,,0,180,180,180,,,,,,,,,,,,,,,18.22265625,-13.0078125,0,0,1,2.57760596275,,,,,2015_Nov_05_1324,G,facesParametric,24,59.7957909323,
./stim/MorphF5_04_orig.jpg,181,,,,,,,,,0,181,181,181,,,,,,,,,,,,,,,18.193359375,-13.037109375,0,0,1,2.88163089752,,,,,2015_Nov_05_1324,G,facesParametric,24,59.7957909323,
./stim/MorphF7_09_orig.jpg,182,,,,,,,,,0,182,182,182,,,,,,,,,,,,,,,18.28125,-12.978515625,1,0,0,0.851452112198,,,,,2015_Nov_05_1324,G,facesParametric,24,59.7957909323,
./stim/MorphM2_05_orig.jpg,183,,,,,,,,,0,183,183,183,,,,,,,,,,,,,,,18.369140625,-12.978515625,0,0,1,1.13889503479,,,,,2015_Nov_05_1324,G,facesParametric,24,59.7957909323,
./stim/MorphM8_09_orig.jpg,184,,,,,,,,,0,184,184,184,,,,,,,,,,,,,,,18.369140625,-13.0078125,1,0,0,0.752921819687,,,,,2015_Nov_05_1324,G,facesParametric,24,59.7957909323,
./stim/MorphM4_01_orig.jpg,185,,,,,,,,,0,185,185,185,,,,,,,,,,,,,,,18.3984375,-12.890625,0,0,1,1.35591983795,,,,,2015_Nov_05_1324,G,facesParametric,24,59.7957909323,
./stim/MorphF3_01_orig.jpg,186,,,,,,,,,0,186,186,186,,,,,,,,,,,,,,,18.369140625,-12.919921875,0,0,1,1.57412099838,,,,,2015_Nov_05_1324,G,facesParametric,24,59.7957909323,
./stim/MorphM1_02_orig.jpg,187,,,,,,,,,0,187,187,187,,,,,,,,,,,,,,,18.369140625,-12.919921875,0,0,1,1.0209980011,,,,,2015_Nov_05_1324,G,facesParametric,24,59.7957909323,
./stim/MorphM8_01_orig.jpg,188,,,,,,,,,0,188,188,188,,,,,,,,,,,,,,,18.33984375,-12.5390625,1,0,0,4.5899438858,,,,,2015_Nov_05_1324,G,facesParametric,24,59.7957909323,
./stim/MorphM6_05_orig.jpg,189,,,,,,,,,0,189,189,189,,,,,,,,,,,,,,,18.076171875,-12.421875,1,0,0,2.21004796028,,,,,2015_Nov_05_1324,G,facesParametric,24,59.7957909323,
./stim/MorphM9_09_orig.jpg,190,,,,,,,,,0,190,190,190,,,,,,,,,,,,,,,18.046875,-12.392578125,1,0,0,0.902341127396,,,,,2015_Nov_05_1324,G,facesParametric,24,59.7957909323,
./stim/MorphM6_06_orig.jpg,191,,,,,,,,,0,191,191,191,,,,,,,,,,,,,,,18.046875,-12.392578125,1,0,0,1.27252793312,,,,,2015_Nov_05_1324,G,facesParametric,24,59.7957909323,
./stim/MorphF4_09_orig.jpg,192,,,,,,,,,0,192,192,192,,,,,,,,,,,,,,,18.28125,-12.275390625,1,0,0,0.988663196564,,,,,2015_Nov_05_1324,G,facesParametric,24,59.7957909323,
./stim/MorphM2_08_orig.jpg,193,,,,,,,,,0,193,193,193,,,,,,,,,,,,,,,18.251953125,-12.421875,0,0,1,1.00138378143,,,,,2015_Nov_05_1324,G,facesParametric,24,59.7957909323,
./stim/MorphF2_04_orig.jpg,194,,,,,,,,,0,194,194,194,,,,,,,,,,,,,,,18.33984375,-12.451171875,1,0,0,0.769211053848,,,,,2015_Nov_05_1324,G,facesParametric,24,59.7957909323,
./stim/MorphM9_01_orig.jpg,195,,,,,,,,,0,195,195,195,,,,,,,,,,,,,,,18.75,-12.12890625,0,0,1,1.10302996635,,,,,2015_Nov_05_1324,G,facesParametric,24,59.7957909323,
./stim/MorphM6_08_orig.jpg,196,,,,,,,,,0,196,196,196,,,,,,,,,,,,,,,18.720703125,-12.158203125,1,0,0,1.05492782593,,,,,2015_Nov_05_1324,G,facesParametric,24,59.7957909323,
./stim/MorphF9_03_orig.jpg,197,,,,,,,,,0,197,197,197,,,,,,,,,,,,,,,18.75,-12.12890625,0,0,1,0.920250892639,,,,,2015_Nov_05_1324,G,facesParametric,24,59.7957909323,
./stim/MorphM6_04_orig.jpg,198,,,,,,,,,0,198,198,198,,,,,,,,,,,,,,,18.779296875,-12.12890625,1,0,0,1.01931405067,,,,,2015_Nov_05_1324,G,facesParametric,24,59.7957909323,
./stim/MorphM3_06_orig.jpg,199,,,,,,,,,0,199,199,199,,,,,,,,,,,,,,,18.80859375,-12.099609375,1,0,0,1.77552199364,,,,,2015_Nov_05_1324,G,facesParametric,24,59.7957909323,
./stim/MorphF10_04_orig.jpg,200,,,,,,,,,0,200,200,200,,,,,,,,,,,,,,,18.80859375,-12.099609375,1,0,0,0.836318969727,,,,,2015_Nov_05_1324,G,facesParametric,24,59.7957909323,
./stim/MorphF5_10_orig.jpg,201,,,,,,,,,0,201,201,201,,,,,,,,,,,,,,,18.8671875,-12.12890625,1,0,0,1.32286715508,,,,,2015_Nov_05_1324,G,facesParametric,24,59.7957909323,
./stim/MorphF8_05_orig.jpg,202,,,,,,,,,0,202,202,202,,,,,,,,,,,,,,,18.75,-12.158203125,1,0,0,2.76427602768,,,,,2015_Nov_05_1324,G,facesParametric,24,59.7957909323,
./stim/MorphM2_07_orig.jpg,203,,,,,,,,,0,203,203,203,,,,,,,,,,,,,,,18.955078125,-12.48046875,1,0,0,2.37891292572,,,,,2015_Nov_05_1324,G,facesParametric,24,59.7957909323,
./stim/MorphF2_02_orig.jpg,204,,,,,,,,,0,204,204,204,,,,,,,,,,,,,,,19.013671875,-12.626953125,1,0,0,1.23851680756,,,,,2015_Nov_05_1324,G,facesParametric,24,59.7957909323,
./stim/MorphF6_10_orig.jpg,205,,,,,,,,,0,205,205,205,,,,,,,,,,,,,,,18.779296875,-12.744140625,1,0,0,1.7081849575,,,,,2015_Nov_05_1324,G,facesParametric,24,59.7957909323,
./stim/MorphF8_10_orig.jpg,206,,,,,,,,,0,206,206,206,,,,,,,,,,,,,,,18.662109375,-12.685546875,1,0,0,1.07039189339,,,,,2015_Nov_05_1324,G,facesParametric,24,59.7957909323,
./stim/MorphM9_03_orig.jpg,207,,,,,,,,,0,207,207,207,,,,,,,,,,,,,,,18.33984375,-12.978515625,0,0,1,1.23893404007,,,,,2015_Nov_05_1324,G,facesParametric,24,59.7957909323,
./stim/MorphM2_10_orig.jpg,208,,,,,,,,,0,208,208,208,,,,,,,,,,,,,,,19.072265625,-13.154296875,1,0,0,0.735584974289,,,,,2015_Nov_05_1324,G,facesParametric,24,59.7957909323,
./stim/MorphM1_08_orig.jpg,209,,,,,,,,,0,209,209,209,,,,,,,,,,,,,,,19.541015625,-11.30859375,1,0,0,7.35692214966,,,,,2015_Nov_05_1324,G,facesParametric,24,59.7957909323,
./stim/MorphF6_08_orig.jpg,210,,,,,,,,,0,210,210,210,,,,,,,,,,,,,,,19.453125,-11.337890625,1,0,0,1.47231602669,,,,,2015_Nov_05_1324,G,facesParametric,24,59.7957909323,
./stim/MorphF1_10_orig.jpg,211,,,,,,,,,0,211,211,211,,,,,,,,,,,,,,,19.74609375,-11.42578125,1,0,0,2.02612090111,,,,,2015_Nov_05_1324,G,facesParametric,24,59.7957909323,
./stim/MorphM8_00_orig.jpg,212,,,,,,,,,0,212,212,212,,,,,,,,,,,,,,,20.009765625,-11.572265625,1,0,0,0.870591163635,,,,,2015_Nov_05_1324,G,facesParametric,24,59.7957909323,
./stim/MorphF6_06_orig.jpg,213,,,,,,,,,0,213,213,213,,,,,,,,,,,,,,,19.86328125,-11.630859375,1,0,0,1.18907999992,,,,,2015_Nov_05_1324,G,facesParametric,24,59.7957909323,
./stim/MorphM3_07_orig.jpg,214,,,,,,,,,0,214,214,214,,,,,,,,,,,,,,,19.951171875,-11.66015625,1,0,0,1.22053194046,,,,,2015_Nov_05_1324,G,facesParametric,24,59.7957909323,
./stim/MorphM7_05_orig.jpg,215,,,,,,,,,0,215,215,215,,,,,,,,,,,,,,,20.302734375,-12.421875,1,0,0,1.5375828743,,,,,2015_Nov_05_1324,G,facesParametric,24,59.7957909323,
./stim/MorphF7_01_orig.jpg,216,,,,,,,,,0,216,216,216,,,,,,,,,,,,,,,20.302734375,-12.421875,1,0,0,1.25575900078,,,,,2015_Nov_05_1324,G,facesParametric,24,59.7957909323,
./stim/MorphM9_04_orig.jpg,217,,,,,,,,,0,217,217,217,,,,,,,,,,,,,,,20.302734375,-12.65625,1,0,0,1.99322199821,,,,,2015_Nov_05_1324,G,facesParametric,24,59.7957909323,
./stim/MorphF10_07_orig.jpg,218,,,,,,,,,0,218,218,218,,,,,,,,,,,,,,,20.2734375,-12.7734375,1,0,0,0.819868803024,,,,,2015_Nov_05_1324,G,facesParametric,24,59.7957909323,
./stim/MorphM10_00_orig.jpg,219,,,,,,,,,0,219,219,219,,,,,,,,,,,,,,,20.21484375,-12.7734375,0,0,1,1.45756077766,,,,,2015_Nov_05_1324,G,facesParametric,24,59.7957909323,
,,,,,,,,,,,,,,,,,,,,,,,,,,,,,,,,,,,,return,2.77798891068,2015_Nov_05_1324,G,facesParametric,24,59.7957909323,
