img,num,basicLoop.thisRepN,basicLoop.thisTrialN,basicLoop.thisN,basicLoop.thisIndex,trials.thisRepN,trials.thisTrialN,trials.thisN,trials.thisIndex,trials2.thisRepN,trials2.thisTrialN,trials2.thisN,trials2.thisIndex,key_resp_2.keys,key_resp_2.rt,basicRating1.response,basicRating1.rt,basicRating2.response,basicRating2.rt,basicRating3.response,basicRating3.rt,basicRating4.response,basicRating4.rt,key_resp_3.keys,key_resp_3.rt,key_resp_4.keys,key_resp_4.rt,mouseResp.x,mouseResp.y,mouseResp.leftButton,mouseResp.midButton,mouseResp.rightButton,mouseResp.time,key_resp_5.keys,key_resp_5.rt,key_resp_7.keys,key_resp_7.rt,date,group,expName,participant,frameRate,
,,,,,,,,,,,,,,return,1.68742704391,,,,,,,,,,,,,,,,,,,,,,,2015_Nov_05_1419,G,facesParametric,51,59.6341735635,
./basicStim/01F_AN_O.jpg,,0,0,0,0,,,,,,,,,,,None,None,None,None,None,None,NTR,2.934,,,,,,,,,,,,,,,2015_Nov_05_1419,G,facesParametric,51,59.6341735635,
./basicStim/09F_SA_C.jpg,,0,1,1,39,,,,,,,,,,,None,None,None,None,None,None,NTR,0.877,,,,,,,,,,,,,,,2015_Nov_05_1419,G,facesParametric,51,59.6341735635,
./basicStim/34M_FE_O.jpg,,0,2,2,72,,,,,,,,,,,None,None,None,None,None,None,NTR,1.593,,,,,,,,,,,,,,,2015_Nov_05_1419,G,facesParametric,51,59.6341735635,
./basicStim/02F_HA_O.jpg,,0,3,3,10,,,,,,,,,,,None,None,None,None,None,None,NTR,0.89,,,,,,,,,,,,,,,2015_Nov_05_1419,G,facesParametric,51,59.6341735635,
./basicStim/21M_NE_C.jpg,,0,4,4,48,,,,,,,,,,,None,None,None,None,None,None,NTR,1.141,,,,,,,,,,,,,,,2015_Nov_05_1419,G,facesParametric,51,59.6341735635,
./basicStim/21M_DI_O.jpg,,0,5,5,43,,,,,,,,,,,None,None,None,None,None,None,NTR,1.179,,,,,,,,,,,,,,,2015_Nov_05_1419,G,facesParametric,51,59.6341735635,
./basicStim/34M_DI_O.jpg,,0,6,6,71,,,,,,,,,,,None,None,None,None,None,None,NTR,1.213,,,,,,,,,,,,,,,2015_Nov_05_1419,G,facesParametric,51,59.6341735635,
./basicStim/03F_NE_C.jpg,,0,7,7,20,,,,,,,,,,,None,None,None,None,SUP,1.491,None,None,,,,,,,,,,,,,,,2015_Nov_05_1419,G,facesParametric,51,59.6341735635,
./basicStim/07F_AN_O.jpg,,0,8,8,28,,,,,,,,,,,None,None,None,None,SUP,1.073,None,None,,,,,,,,,,,,,,,2015_Nov_05_1419,G,facesParametric,51,59.6341735635,
./basicStim/06F_NE_C.jpg,,0,9,9,27,,,,,,,,,,,None,None,None,None,SUP,1.2,None,None,,,,,,,,,,,,,,,2015_Nov_05_1419,G,facesParametric,51,59.6341735635,
./basicStim/07F_SP_O.jpg,,0,10,10,33,,,,,,,,,,,None,None,None,None,SUP,1.544,None,None,,,,,,,,,,,,,,,2015_Nov_05_1419,G,facesParametric,51,59.6341735635,
./basicStim/23M_FE_O.jpg,,0,11,11,51,,,,,,,,,,,None,None,None,None,SUP,0.423,None,None,,,,,,,,,,,,,,,2015_Nov_05_1419,G,facesParametric,51,59.6341735635,
./basicStim/03F_DI_O.jpg,,0,12,12,15,,,,,,,,,,,None,None,None,None,SUP,1.132,None,None,,,,,,,,,,,,,,,2015_Nov_05_1419,G,facesParametric,51,59.6341735635,
./basicStim/21M_SP_O.jpg,,0,13,13,47,,,,,,,,,,,None,None,None,None,SUP,0.411,None,None,,,,,,,,,,,,,,,2015_Nov_05_1419,G,facesParametric,51,59.6341735635,
./basicStim/36M_SA_C.jpg,,0,14,14,81,,,,,,,,,,,None,None,None,None,SUP,1.489,None,None,,,,,,,,,,,,,,,2015_Nov_05_1419,G,facesParametric,51,59.6341735635,
./basicStim/02F_DI_O.jpg,,0,15,15,8,,,,,,,,,,,None,None,None,None,SUP,0.485,None,None,,,,,,,,,,,,,,,2015_Nov_05_1419,G,facesParametric,51,59.6341735635,
./basicStim/23M_HA_O.jpg,,0,16,16,52,,,,,,,,,,,None,None,None,None,SUP,0.438,None,None,,,,,,,,,,,,,,,2015_Nov_05_1419,G,facesParametric,51,59.6341735635,
./basicStim/01F_SP_O.jpg,,0,17,17,5,,,,,,,,,,,None,None,None,None,SUP,0.558,None,None,,,,,,,,,,,,,,,2015_Nov_05_1419,G,facesParametric,51,59.6341735635,
./basicStim/34M_AN_O.jpg,,0,18,18,70,,,,,,,,,,,None,None,None,None,SUP,7.796,None,None,,,,,,,,,,,,,,,2015_Nov_05_1419,G,facesParametric,51,59.6341735635,
./basicStim/09F_DI_O.jpg,,0,19,19,36,,,,,,,,,,,None,None,None,None,SUP,0.874,None,None,,,,,,,,,,,,,,,2015_Nov_05_1419,G,facesParametric,51,59.6341735635,
./basicStim/01F_SA_C.jpg,,0,20,20,4,,,,,,,,,,,None,None,None,None,SUP,1.284,None,None,,,,,,,,,,,,,,,2015_Nov_05_1419,G,facesParametric,51,59.6341735635,
./basicStim/03F_SP_O.jpg,,0,21,21,19,,,,,,,,,,,None,None,None,None,SUP,0.879,None,None,,,,,,,,,,,,,,,2015_Nov_05_1419,G,facesParametric,51,59.6341735635,
./basicStim/03F_AN_O.jpg,,0,22,22,14,,,,,,,,,,,None,None,None,None,SUP,0.441,None,None,,,,,,,,,,,,,,,2015_Nov_05_1419,G,facesParametric,51,59.6341735635,
./basicStim/07F_HA_O.jpg,,0,23,23,31,,,,,,,,,,,None,None,None,None,SUP,0.44,None,None,,,,,,,,,,,,,,,2015_Nov_05_1419,G,facesParametric,51,59.6341735635,
./basicStim/34M_SP_O.jpg,,0,24,24,75,,,,,,,,,,,None,None,None,None,SUP,0.492,None,None,,,,,,,,,,,,,,,2015_Nov_05_1419,G,facesParametric,51,59.6341735635,
./basicStim/24M_FE_O.jpg,,0,25,25,58,,,,,,,,,,,None,None,None,None,SUP,0.408,None,None,,,,,,,,,,,,,,,2015_Nov_05_1419,G,facesParametric,51,59.6341735635,
./basicStim/06F_SP_O.jpg,,0,26,26,26,,,,,,,,,,,None,None,None,None,SUP,0.547,None,None,,,,,,,,,,,,,,,2015_Nov_05_1419,G,facesParametric,51,59.6341735635,
./basicStim/34M_NE_C.jpg,,0,27,27,76,,,,,,,,,,,None,None,None,None,SUP,0.52,None,None,,,,,,,,,,,,,,,2015_Nov_05_1419,G,facesParametric,51,59.6341735635,
./basicStim/03F_HA_O.jpg,,0,28,28,17,,,,,,,,,,,None,None,None,None,SUP,0.425,None,None,,,,,,,,,,,,,,,2015_Nov_05_1419,G,facesParametric,51,59.6341735635,
./basicStim/34M_SA_C.jpg,,0,29,29,74,,,,,,,,,,,None,None,None,None,SUP,0.421,None,None,,,,,,,,,,,,,,,2015_Nov_05_1419,G,facesParametric,51,59.6341735635,
./basicStim/07F_FE_O.jpg,,0,30,30,30,,,,,,,,,,,None,None,None,None,SUP,0.721,None,None,,,,,,,,,,,,,,,2015_Nov_05_1419,G,facesParametric,51,59.6341735635,
./basicStim/28M_AN_O.jpg,,0,31,31,63,,,,,,,,,,,None,None,None,None,SUP,1.26,None,None,,,,,,,,,,,,,,,2015_Nov_05_1419,G,facesParametric,51,59.6341735635,
./basicStim/23M_SP_O.jpg,,0,32,32,54,,,,,,,,,,,None,None,None,None,SUP,0.491,None,None,,,,,,,,,,,,,,,2015_Nov_05_1419,G,facesParametric,51,59.6341735635,
./basicStim/09F_AN_O.jpg,,0,33,33,35,,,,,,,,,,,None,None,None,None,SUP,0.82,None,None,,,,,,,,,,,,,,,2015_Nov_05_1419,G,facesParametric,51,59.6341735635,
./basicStim/07F_NE_C.jpg,,0,34,34,34,,,,,,,,,,,None,None,None,None,SUP,1.663,None,None,,,,,,,,,,,,,,,2015_Nov_05_1419,G,facesParametric,51,59.6341735635,
./basicStim/02F_SA_C.jpg,,0,35,35,11,,,,,,,,,,,None,None,None,None,SUP,0.445,None,None,,,,,,,,,,,,,,,2015_Nov_05_1419,G,facesParametric,51,59.6341735635,
./basicStim/24M_HA_O.jpg,,0,36,36,59,,,,,,,,,,,None,None,None,None,SUP,0.457,None,None,,,,,,,,,,,,,,,2015_Nov_05_1419,G,facesParametric,51,59.6341735635,
./basicStim/24M_NE_C.jpg,,0,37,37,62,,,,,,,,,,,None,None,None,None,SUP,0.84,None,None,,,,,,,,,,,,,,,2015_Nov_05_1419,G,facesParametric,51,59.6341735635,
./basicStim/28M_SA_C.jpg,,0,38,38,67,,,,,,,,,,,None,None,None,None,SUP,0.804,None,None,,,,,,,,,,,,,,,2015_Nov_05_1419,G,facesParametric,51,59.6341735635,
./basicStim/36M_HA_O.jpg,,0,39,39,80,,,,,,,,,,,None,None,None,None,SUP,1.228,None,None,,,,,,,,,,,,,,,2015_Nov_05_1419,G,facesParametric,51,59.6341735635,
./basicStim/01F_DI_O.jpg,,0,40,40,1,,,,,,,,,,,None,None,None,None,SUP,0.438,None,None,,,,,,,,,,,,,,,2015_Nov_05_1419,G,facesParametric,51,59.6341735635,
./basicStim/06F_SA_C.jpg,,0,41,41,25,,,,,,,,,,,None,None,None,None,SUP,1.259,None,None,,,,,,,,,,,,,,,2015_Nov_05_1419,G,facesParametric,51,59.6341735635,
./basicStim/28M_HA_O.jpg,,0,42,42,66,,,,,,,,,,,None,None,None,None,SUP,0.44,None,None,,,,,,,,,,,,,,,2015_Nov_05_1419,G,facesParametric,51,59.6341735635,
./basicStim/36M_FE_O.jpg,,0,43,43,79,,,,,,,,,,,None,None,None,None,None,None,NTR,7.39,,,,,,,,,,,,,,,2015_Nov_05_1419,G,facesParametric,51,59.6341735635,
./basicStim/23M_SA_C.jpg,,0,44,44,53,,,,,,,,,,,None,None,None,None,None,None,NTR,1.166,,,,,,,,,,,,,,,2015_Nov_05_1419,G,facesParametric,51,59.6341735635,
./basicStim/09F_SP_O.jpg,,0,45,45,40,,,,,,,,,,,None,None,None,None,None,None,NTR,0.508,,,,,,,,,,,,,,,2015_Nov_05_1419,G,facesParametric,51,59.6341735635,
./basicStim/06F_AN_O.jpg,,0,46,46,21,,,,,,,,,,,None,None,None,None,None,None,NTR,0.986,,,,,,,,,,,,,,,2015_Nov_05_1419,G,facesParametric,51,59.6341735635,
./basicStim/07F_SA_C.jpg,,0,47,47,32,,,,,,,,,,,None,None,None,None,None,None,NTR,0.424,,,,,,,,,,,,,,,2015_Nov_05_1419,G,facesParametric,51,59.6341735635,
./basicStim/09F_FE_O.jpg,,0,48,48,37,,,,,,,,,,,None,None,None,None,None,None,NTR,0.693,,,,,,,,,,,,,,,2015_Nov_05_1419,G,facesParametric,51,59.6341735635,
./basicStim/01F_FE_O.jpg,,0,49,49,2,,,,,,,,,,,None,None,None,None,None,None,NTR,0.418,,,,,,,,,,,,,,,2015_Nov_05_1419,G,facesParametric,51,59.6341735635,
./basicStim/02F_SP_O.jpg,,0,50,50,12,,,,,,,,,,,None,None,None,None,None,None,NTR,0.672,,,,,,,,,,,,,,,2015_Nov_05_1419,G,facesParametric,51,59.6341735635,
./basicStim/28M_NE_C.jpg,,0,51,51,69,,,,,,,,,,,None,None,None,None,None,None,NTR,1.226,,,,,,,,,,,,,,,2015_Nov_05_1419,G,facesParametric,51,59.6341735635,
./basicStim/21M_AN_O.jpg,,0,52,52,42,,,,,,,,,,,None,None,None,None,None,None,NTR,0.536,,,,,,,,,,,,,,,2015_Nov_05_1419,G,facesParametric,51,59.6341735635,
./basicStim/23M_NE_C.jpg,,0,53,53,55,,,,,,,,,,,None,None,None,None,None,None,NTR,0.57,,,,,,,,,,,,,,,2015_Nov_05_1419,G,facesParametric,51,59.6341735635,
./basicStim/01F_NE_C.jpg,,0,54,54,6,,,,,,,,,,,None,None,None,None,None,None,NTR,0.406,,,,,,,,,,,,,,,2015_Nov_05_1419,G,facesParametric,51,59.6341735635,
./basicStim/28M_FE_O.jpg,,0,55,55,65,,,,,,,,,,,None,None,None,None,None,None,NTR,0.529,,,,,,,,,,,,,,,2015_Nov_05_1419,G,facesParametric,51,59.6341735635,
./basicStim/03F_SA_C.jpg,,0,56,56,18,,,,,,,,,,,None,None,None,None,None,None,NTR,0.489,,,,,,,,,,,,,,,2015_Nov_05_1419,G,facesParametric,51,59.6341735635,
./basicStim/07F_DI_O.jpg,,0,57,57,29,,,,,,,,,,,None,None,None,None,None,None,NTR,0.455,,,,,,,,,,,,,,,2015_Nov_05_1419,G,facesParametric,51,59.6341735635,
./basicStim/03F_FE_O.jpg,,0,58,58,16,,,,,,,,,,,None,None,None,None,None,None,NTR,0.504,,,,,,,,,,,,,,,2015_Nov_05_1419,G,facesParametric,51,59.6341735635,
./basicStim/28M_DI_O.jpg,,0,59,59,64,,,,,,,,,,,None,None,None,None,None,None,NTR,0.421,,,,,,,,,,,,,,,2015_Nov_05_1419,G,facesParametric,51,59.6341735635,
./basicStim/06F_HA_O.jpg,,0,60,60,24,,,,,,,,,,,None,None,None,None,None,None,NTR,0.419,,,,,,,,,,,,,,,2015_Nov_05_1419,G,facesParametric,51,59.6341735635,
./basicStim/28M_SP_O.jpg,,0,61,61,68,,,,,,,,,,,None,None,None,None,None,None,NTR,0.538,,,,,,,,,,,,,,,2015_Nov_05_1419,G,facesParametric,51,59.6341735635,
./basicStim/02F_FE_O.jpg,,0,62,62,9,,,,,,,,,,,None,None,None,None,None,None,NTR,0.486,,,,,,,,,,,,,,,2015_Nov_05_1419,G,facesParametric,51,59.6341735635,
./basicStim/36M_NE_C.jpg,,0,63,63,83,,,,,,,,,,,None,None,None,None,None,None,NTR,0.507,,,,,,,,,,,,,,,2015_Nov_05_1419,G,facesParametric,51,59.6341735635,
./basicStim/21M_SA_C.jpg,,0,64,64,46,,,,,,,,,,,None,None,None,None,None,None,NTR,0.59,,,,,,,,,,,,,,,2015_Nov_05_1419,G,facesParametric,51,59.6341735635,
./basicStim/02F_NE_C.jpg,,0,65,65,13,,,,,,,,,,,None,None,None,None,None,None,NTR,0.528,,,,,,,,,,,,,,,2015_Nov_05_1419,G,facesParametric,51,59.6341735635,
./basicStim/24M_SP_O.jpg,,0,66,66,61,,,,,,,,,,,None,None,None,None,None,None,NTR,0.504,,,,,,,,,,,,,,,2015_Nov_05_1419,G,facesParametric,51,59.6341735635,
./basicStim/24M_AN_O.jpg,,0,67,67,56,,,,,,,,,,,None,None,None,None,None,None,NTR,0.457,,,,,,,,,,,,,,,2015_Nov_05_1419,G,facesParametric,51,59.6341735635,
./basicStim/02F_AN_O.jpg,,0,68,68,7,,,,,,,,,,,None,None,None,None,None,None,NTR,0.687,,,,,,,,,,,,,,,2015_Nov_05_1419,G,facesParametric,51,59.6341735635,
./basicStim/09F_HA_O.jpg,,0,69,69,38,,,,,,,,,,,None,None,None,None,None,None,NTR,0.422,,,,,,,,,,,,,,,2015_Nov_05_1419,G,facesParametric,51,59.6341735635,
./basicStim/09F_NE_C.jpg,,0,70,70,41,,,,,,,,,,,None,None,None,None,None,None,NTR,0.432,,,,,,,,,,,,,,,2015_Nov_05_1419,G,facesParametric,51,59.6341735635,
./basicStim/34M_HA_O.jpg,,0,71,71,73,,,,,,,,,,,None,None,None,None,None,None,NTR,0.419,,,,,,,,,,,,,,,2015_Nov_05_1419,G,facesParametric,51,59.6341735635,
./basicStim/23M_DI_O.jpg,,0,72,72,50,,,,,,,,,,,None,None,None,None,None,None,NTR,0.47,,,,,,,,,,,,,,,2015_Nov_05_1419,G,facesParametric,51,59.6341735635,
./basicStim/36M_DI_O.jpg,,0,73,73,78,,,,,,,,,,,None,None,None,None,None,None,NTR,0.622,,,,,,,,,,,,,,,2015_Nov_05_1419,G,facesParametric,51,59.6341735635,
./basicStim/21M_FE_O.jpg,,0,74,74,44,,,,,,,,,,,None,None,None,None,None,None,NTR,0.488,,,,,,,,,,,,,,,2015_Nov_05_1419,G,facesParametric,51,59.6341735635,
./basicStim/21M_HA_O.jpg,,0,75,75,45,,,,,,,,,,,None,None,None,None,None,None,NTR,0.589,,,,,,,,,,,,,,,2015_Nov_05_1419,G,facesParametric,51,59.6341735635,
./basicStim/06F_FE_O.jpg,,0,76,76,23,,,,,,,,,,,None,None,None,None,None,None,NTR,0.507,,,,,,,,,,,,,,,2015_Nov_05_1419,G,facesParametric,51,59.6341735635,
./basicStim/01F_HA_O.jpg,,0,77,77,3,,,,,,,,,,,None,None,None,None,None,None,NTR,0.672,,,,,,,,,,,,,,,2015_Nov_05_1419,G,facesParametric,51,59.6341735635,
./basicStim/24M_DI_O.jpg,,0,78,78,57,,,,,,,,,,,None,None,None,None,None,None,NTR,0.539,,,,,,,,,,,,,,,2015_Nov_05_1419,G,facesParametric,51,59.6341735635,
./basicStim/06F_DI_O.jpg,,0,79,79,22,,,,,,,,,,,None,None,None,None,None,None,NTR,0.526,,,,,,,,,,,,,,,2015_Nov_05_1419,G,facesParametric,51,59.6341735635,
./basicStim/36M_SP_O.jpg,,0,80,80,82,,,,,,,,,,,None,None,None,None,None,None,NTR,0.626,,,,,,,,,,,,,,,2015_Nov_05_1419,G,facesParametric,51,59.6341735635,
./basicStim/23M_AN_O.jpg,,0,81,81,49,,,,,,,,,,,None,None,None,None,None,None,NTR,0.419,,,,,,,,,,,,,,,2015_Nov_05_1419,G,facesParametric,51,59.6341735635,
./basicStim/24M_SA_C.jpg,,0,82,82,60,,,,,,,,,,,None,None,None,None,None,None,NTR,0.421,,,,,,,,,,,,,,,2015_Nov_05_1419,G,facesParametric,51,59.6341735635,
./basicStim/36M_AN_O.jpg,,0,83,83,77,,,,,,,,,,,None,None,None,None,None,None,NTR,0.589,,,,,,,,,,,,,,,2015_Nov_05_1419,G,facesParametric,51,59.6341735635,
,,,,,,,,,,,,,,,,,,,,,,,,return,11.5446248055,,,,,,,,,,,,,2015_Nov_05_1419,G,facesParametric,51,59.6341735635,
,,,,,,,,,,,,,,return,1.23973917961,,,,,,,,,,,,,,,,,,,,,,,2015_Nov_05_1419,G,facesParametric,51,59.6341735635,
,,,,,,,,,,,,,,,,,,,,,,,,return,25.4410409927,,,,,,,,,,,,,2015_Nov_05_1419,G,facesParametric,51,59.6341735635,
,,,,,,,,,,,,,,,,,,,,,,,,,,return,23.9662220478,,,,,,,,,,,2015_Nov_05_1419,G,facesParametric,51,59.6341735635,
./stim/MorphM1_08_orig.jpg,0,,,,,0,0,0,0,,,,,,,,,,,,,,,,,,,-2.9296875,-13.154296875,1,0,0,1.71829605103,,,,,2015_Nov_05_1419,G,facesParametric,51,59.6341735635,
./stim/MorphM2_06_orig.jpg,1,,,,,0,1,1,1,,,,,,,,,,,,,,,,,,,-2.9296875,-13.154296875,0,0,1,1.7729408741,,,,,2015_Nov_05_1419,G,facesParametric,51,59.6341735635,
./stim/MorphM10_08_orig.jpg,2,,,,,0,2,2,2,,,,,,,,,,,,,,,,,,,-2.9296875,-13.154296875,0,0,1,1.87247395515,,,,,2015_Nov_05_1419,G,facesParametric,51,59.6341735635,
./stim/MorphM7_04_orig.jpg,3,,,,,0,3,3,3,,,,,,,,,,,,,,,,,,,-2.9296875,-13.154296875,1,0,0,1.557762146,,,,,2015_Nov_05_1419,G,facesParametric,51,59.6341735635,
./stim/MorphF1_02_orig.jpg,4,,,,,0,4,4,4,,,,,,,,,,,,,,,,,,,-2.9296875,-13.154296875,1,0,0,1.30332803726,,,,,2015_Nov_05_1419,G,facesParametric,51,59.6341735635,
./stim/MorphM10_06_orig.jpg,5,,,,,0,5,5,5,,,,,,,,,,,,,,,,,,,-2.9296875,-13.154296875,1,0,0,1.42301893234,,,,,2015_Nov_05_1419,G,facesParametric,51,59.6341735635,
./stim/MorphM9_02_orig.jpg,6,,,,,0,6,6,6,,,,,,,,,,,,,,,,,,,-2.9296875,-13.154296875,1,0,0,1.62290000916,,,,,2015_Nov_05_1419,G,facesParametric,51,59.6341735635,
./stim/MorphM8_05_orig.jpg,7,,,,,0,7,7,7,,,,,,,,,,,,,,,,,,,-2.9296875,-13.154296875,0,0,1,1.94274997711,,,,,2015_Nov_05_1419,G,facesParametric,51,59.6341735635,
./stim/MorphM5_00_orig.jpg,8,,,,,0,8,8,8,,,,,,,,,,,,,,,,,,,-2.9296875,-13.154296875,0,0,1,2.32810211182,,,,,2015_Nov_05_1419,G,facesParametric,51,59.6341735635,
./stim/MorphF2_08_orig.jpg,9,,,,,0,9,9,9,,,,,,,,,,,,,,,,,,,-2.9296875,-13.154296875,1,0,0,1.22048306465,,,,,2015_Nov_05_1419,G,facesParametric,51,59.6341735635,
./stim/MorphM7_07_orig.jpg,10,,,,,0,10,10,10,,,,,,,,,,,,,,,,,,,-2.9296875,-13.154296875,1,0,0,1.15514302254,,,,,2015_Nov_05_1419,G,facesParametric,51,59.6341735635,
./stim/MorphF8_09_orig.jpg,11,,,,,0,11,11,11,,,,,,,,,,,,,,,,,,,-2.9296875,-13.154296875,1,0,0,1.54002404213,,,,,2015_Nov_05_1419,G,facesParametric,51,59.6341735635,
./stim/MorphF1_09_orig.jpg,12,,,,,0,12,12,12,,,,,,,,,,,,,,,,,,,-2.9296875,-13.154296875,1,0,0,1.57402610779,,,,,2015_Nov_05_1419,G,facesParametric,51,59.6341735635,
./stim/MorphM4_07_orig.jpg,13,,,,,0,13,13,13,,,,,,,,,,,,,,,,,,,-2.9296875,-13.154296875,1,0,0,1.8589220047,,,,,2015_Nov_05_1419,G,facesParametric,51,59.6341735635,
./stim/MorphF8_03_orig.jpg,14,,,,,0,14,14,14,,,,,,,,,,,,,,,,,,,-2.9296875,-13.154296875,1,0,0,1.92647600174,,,,,2015_Nov_05_1419,G,facesParametric,51,59.6341735635,
./stim/MorphF6_01_orig.jpg,15,,,,,0,15,15,15,,,,,,,,,,,,,,,,,,,-2.9296875,-13.154296875,1,0,0,2.06056594849,,,,,2015_Nov_05_1419,G,facesParametric,51,59.6341735635,
./stim/MorphF1_05_orig.jpg,16,,,,,0,16,16,16,,,,,,,,,,,,,,,,,,,-2.9296875,-13.154296875,1,0,0,2.24422287941,,,,,2015_Nov_05_1419,G,facesParametric,51,59.6341735635,
./stim/MorphM3_06_orig.jpg,17,,,,,0,17,17,17,,,,,,,,,,,,,,,,,,,-2.9296875,-13.154296875,0,0,1,1.84094786644,,,,,2015_Nov_05_1419,G,facesParametric,51,59.6341735635,
./stim/MorphM8_10_orig.jpg,18,,,,,0,18,18,18,,,,,,,,,,,,,,,,,,,-2.9296875,-13.154296875,1,0,0,1.32186698914,,,,,2015_Nov_05_1419,G,facesParametric,51,59.6341735635,
./stim/MorphF6_03_orig.jpg,19,,,,,0,19,19,19,,,,,,,,,,,,,,,,,,,-2.9296875,-13.154296875,1,0,0,2.11043381691,,,,,2015_Nov_05_1419,G,facesParametric,51,59.6341735635,
./stim/MorphM2_01_orig.jpg,20,,,,,0,20,20,20,,,,,,,,,,,,,,,,,,,-2.9296875,-13.154296875,1,0,0,2.76432681084,,,,,2015_Nov_05_1419,G,facesParametric,51,59.6341735635,
./stim/MorphM5_03_orig.jpg,21,,,,,0,21,21,21,,,,,,,,,,,,,,,,,,,-2.9296875,-13.154296875,0,0,1,1.82319021225,,,,,2015_Nov_05_1419,G,facesParametric,51,59.6341735635,
./stim/MorphM8_03_orig.jpg,22,,,,,0,22,22,22,,,,,,,,,,,,,,,,,,,-2.9296875,-13.154296875,0,0,1,2.46169090271,,,,,2015_Nov_05_1419,G,facesParametric,51,59.6341735635,
./stim/MorphF5_02_orig.jpg,23,,,,,0,23,23,23,,,,,,,,,,,,,,,,,,,-2.9296875,-13.154296875,1,0,0,2.34496092796,,,,,2015_Nov_05_1419,G,facesParametric,51,59.6341735635,
./stim/MorphM1_00_orig.jpg,24,,,,,0,24,24,24,,,,,,,,,,,,,,,,,,,-2.9296875,-13.154296875,1,0,0,3.28360009193,,,,,2015_Nov_05_1419,G,facesParametric,51,59.6341735635,
./stim/MorphM3_09_orig.jpg,25,,,,,0,25,25,25,,,,,,,,,,,,,,,,,,,-2.9296875,-13.154296875,0,0,1,3.77007603645,,,,,2015_Nov_05_1419,G,facesParametric,51,59.6341735635,
./stim/MorphM9_03_orig.jpg,26,,,,,0,26,26,26,,,,,,,,,,,,,,,,,,,-2.9296875,-13.154296875,1,0,0,2.31142687798,,,,,2015_Nov_05_1419,G,facesParametric,51,59.6341735635,
./stim/MorphF1_08_orig.jpg,27,,,,,0,27,27,27,,,,,,,,,,,,,,,,,,,-2.9296875,-13.154296875,1,0,0,1.62549495697,,,,,2015_Nov_05_1419,G,facesParametric,51,59.6341735635,
./stim/MorphF6_05_orig.jpg,28,,,,,0,28,28,28,,,,,,,,,,,,,,,,,,,-2.9296875,-13.154296875,1,0,0,2.4943819046,,,,,2015_Nov_05_1419,G,facesParametric,51,59.6341735635,
./stim/MorphM9_01_orig.jpg,29,,,,,0,29,29,29,,,,,,,,,,,,,,,,,,,-2.9296875,-13.154296875,1,0,0,13.6075909138,,,,,2015_Nov_05_1419,G,facesParametric,51,59.6341735635,
./stim/MorphM7_10_orig.jpg,30,,,,,0,30,30,30,,,,,,,,,,,,,,,,,,,-2.9296875,-13.154296875,0,0,1,5.99862003326,,,,,2015_Nov_05_1419,G,facesParametric,51,59.6341735635,
./stim/MorphM1_06_orig.jpg,31,,,,,0,31,31,31,,,,,,,,,,,,,,,,,,,-2.9296875,-13.154296875,1,0,0,11.043088913,,,,,2015_Nov_05_1419,G,facesParametric,51,59.6341735635,
./stim/MorphM3_05_orig.jpg,32,,,,,0,32,32,32,,,,,,,,,,,,,,,,,,,-2.9296875,-13.154296875,0,0,1,3.71973586082,,,,,2015_Nov_05_1419,G,facesParametric,51,59.6341735635,
./stim/MorphM8_00_orig.jpg,33,,,,,0,33,33,33,,,,,,,,,,,,,,,,,,,-2.9296875,-13.154296875,1,0,0,12.7201421261,,,,,2015_Nov_05_1419,G,facesParametric,51,59.6341735635,
./stim/MorphM1_09_orig.jpg,34,,,,,0,34,34,34,,,,,,,,,,,,,,,,,,,-2.9296875,-13.154296875,0,0,1,2.7608962059,,,,,2015_Nov_05_1419,G,facesParametric,51,59.6341735635,
./stim/MorphF6_10_orig.jpg,35,,,,,0,35,35,35,,,,,,,,,,,,,,,,,,,-2.9296875,-13.154296875,0,0,1,7.74201202393,,,,,2015_Nov_05_1419,G,facesParametric,51,59.6341735635,
./stim/MorphF8_05_orig.jpg,36,,,,,0,36,36,36,,,,,,,,,,,,,,,,,,,-2.9296875,-13.154296875,1,0,0,1.25417208672,,,,,2015_Nov_05_1419,G,facesParametric,51,59.6341735635,
./stim/MorphM6_03_orig.jpg,37,,,,,0,37,37,37,,,,,,,,,,,,,,,,,,,-2.9296875,-13.154296875,0,0,1,3.70297813416,,,,,2015_Nov_05_1419,G,facesParametric,51,59.6341735635,
./stim/MorphF3_08_orig.jpg,38,,,,,0,38,38,38,,,,,,,,,,,,,,,,,,,-2.9296875,-13.154296875,1,0,0,1.47153711319,,,,,2015_Nov_05_1419,G,facesParametric,51,59.6341735635,
./stim/MorphM1_04_orig.jpg,39,,,,,0,39,39,39,,,,,,,,,,,,,,,,,,,-2.9296875,-13.154296875,0,0,1,7.99312210083,,,,,2015_Nov_05_1419,G,facesParametric,51,59.6341735635,
./stim/MorphM7_06_orig.jpg,40,,,,,0,40,40,40,,,,,,,,,,,,,,,,,,,-2.9296875,-13.154296875,1,0,0,3.40095210075,,,,,2015_Nov_05_1419,G,facesParametric,51,59.6341735635,
./stim/MorphF2_00_orig.jpg,41,,,,,0,41,41,41,,,,,,,,,,,,,,,,,,,-2.9296875,-13.154296875,0,0,1,3.24845218658,,,,,2015_Nov_05_1419,G,facesParametric,51,59.6341735635,
./stim/MorphM10_09_orig.jpg,42,,,,,0,42,42,42,,,,,,,,,,,,,,,,,,,-2.9296875,-13.154296875,1,0,0,2.44404983521,,,,,2015_Nov_05_1419,G,facesParametric,51,59.6341735635,
./stim/MorphF5_09_orig.jpg,43,,,,,0,43,43,43,,,,,,,,,,,,,,,,,,,-2.9296875,-13.154296875,1,0,0,1.87602186203,,,,,2015_Nov_05_1419,G,facesParametric,51,59.6341735635,
./stim/MorphF3_04_orig.jpg,44,,,,,0,44,44,44,,,,,,,,,,,,,,,,,,,-2.9296875,-13.154296875,0,0,1,1.80821204185,,,,,2015_Nov_05_1419,G,facesParametric,51,59.6341735635,
./stim/MorphM6_10_orig.jpg,45,,,,,0,45,45,45,,,,,,,,,,,,,,,,,,,-2.9296875,-13.154296875,0,0,1,1.75864911079,,,,,2015_Nov_05_1419,G,facesParametric,51,59.6341735635,
./stim/MorphF10_03_orig.jpg,46,,,,,0,46,46,46,,,,,,,,,,,,,,,,,,,-2.9296875,-13.154296875,1,0,0,3.7864780426,,,,,2015_Nov_05_1419,G,facesParametric,51,59.6341735635,
./stim/MorphF9_03_orig.jpg,47,,,,,0,47,47,47,,,,,,,,,,,,,,,,,,,-2.9296875,-13.154296875,0,0,1,1.32246518135,,,,,2015_Nov_05_1419,G,facesParametric,51,59.6341735635,
./stim/MorphF8_08_orig.jpg,48,,,,,0,48,48,48,,,,,,,,,,,,,,,,,,,-2.9296875,-13.154296875,1,0,0,5.64771699905,,,,,2015_Nov_05_1419,G,facesParametric,51,59.6341735635,
./stim/MorphF3_01_orig.jpg,49,,,,,0,49,49,49,,,,,,,,,,,,,,,,,,,-2.9296875,-13.154296875,0,0,1,1.17076396942,,,,,2015_Nov_05_1419,G,facesParametric,51,59.6341735635,
./stim/MorphF4_01_orig.jpg,50,,,,,0,50,50,50,,,,,,,,,,,,,,,,,,,-2.9296875,-13.154296875,0,0,1,3.14956498146,,,,,2015_Nov_05_1419,G,facesParametric,51,59.6341735635,
./stim/MorphM6_09_orig.jpg,51,,,,,0,51,51,51,,,,,,,,,,,,,,,,,,,-2.9296875,-13.154296875,0,0,1,8.29501891136,,,,,2015_Nov_05_1419,G,facesParametric,51,59.6341735635,
./stim/MorphM4_01_orig.jpg,52,,,,,0,52,52,52,,,,,,,,,,,,,,,,,,,-2.9296875,-13.154296875,1,0,0,11.3111541271,,,,,2015_Nov_05_1419,G,facesParametric,51,59.6341735635,
./stim/MorphF10_09_orig.jpg,53,,,,,0,53,53,53,,,,,,,,,,,,,,,,,,,-2.9296875,-13.154296875,0,0,1,1.97659182549,,,,,2015_Nov_05_1419,G,facesParametric,51,59.6341735635,
./stim/MorphF7_01_orig.jpg,54,,,,,0,54,54,54,,,,,,,,,,,,,,,,,,,-2.9296875,-13.154296875,1,0,0,9.98672008514,,,,,2015_Nov_05_1419,G,facesParametric,51,59.6341735635,
./stim/MorphF5_10_orig.jpg,55,,,,,0,55,55,55,,,,,,,,,,,,,,,,,,,-2.9296875,-13.154296875,1,0,0,2.79567790031,,,,,2015_Nov_05_1419,G,facesParametric,51,59.6341735635,
./stim/MorphF3_07_orig.jpg,56,,,,,0,56,56,56,,,,,,,,,,,,,,,,,,,-2.9296875,-13.154296875,0,0,1,1.10350584984,,,,,2015_Nov_05_1419,G,facesParametric,51,59.6341735635,
./stim/MorphM9_09_orig.jpg,57,,,,,0,57,57,57,,,,,,,,,,,,,,,,,,,-2.9296875,-13.154296875,1,0,0,16.0548629761,,,,,2015_Nov_05_1419,G,facesParametric,51,59.6341735635,
./stim/MorphM7_00_orig.jpg,58,,,,,0,58,58,58,,,,,,,,,,,,,,,,,,,-2.9296875,-13.154296875,0,0,1,1.35593295097,,,,,2015_Nov_05_1419,G,facesParametric,51,59.6341735635,
./stim/MorphM4_00_orig.jpg,59,,,,,0,59,59,59,,,,,,,,,,,,,,,,,,,-2.9296875,-13.154296875,1,0,0,6.93685698509,,,,,2015_Nov_05_1419,G,facesParametric,51,59.6341735635,
./stim/MorphM2_08_orig.jpg,60,,,,,0,60,60,60,,,,,,,,,,,,,,,,,,,-2.9296875,-13.154296875,0,0,1,1.92594718933,,,,,2015_Nov_05_1419,G,facesParametric,51,59.6341735635,
./stim/MorphF1_04_orig.jpg,61,,,,,0,61,61,61,,,,,,,,,,,,,,,,,,,-2.9296875,-13.154296875,1,0,0,4.37182807922,,,,,2015_Nov_05_1419,G,facesParametric,51,59.6341735635,
./stim/MorphF7_10_orig.jpg,62,,,,,0,62,62,62,,,,,,,,,,,,,,,,,,,-2.9296875,-13.154296875,0,0,1,2.34280514717,,,,,2015_Nov_05_1419,G,facesParametric,51,59.6341735635,
./stim/MorphM10_03_orig.jpg,63,,,,,0,63,63,63,,,,,,,,,,,,,,,,,,,-2.9296875,-13.154296875,1,0,0,1.82524800301,,,,,2015_Nov_05_1419,G,facesParametric,51,59.6341735635,
./stim/MorphM2_03_orig.jpg,64,,,,,0,64,64,64,,,,,,,,,,,,,,,,,,,-2.9296875,-13.154296875,1,0,0,2.37707996368,,,,,2015_Nov_05_1419,G,facesParametric,51,59.6341735635,
./stim/MorphF1_00_orig.jpg,65,,,,,0,65,65,65,,,,,,,,,,,,,,,,,,,-2.9296875,-13.154296875,0,0,1,2.93091511726,,,,,2015_Nov_05_1419,G,facesParametric,51,59.6341735635,
./stim/MorphF5_07_orig.jpg,66,,,,,0,66,66,66,,,,,,,,,,,,,,,,,,,-2.9296875,-13.154296875,1,0,0,8.86446404457,,,,,2015_Nov_05_1419,G,facesParametric,51,59.6341735635,
./stim/MorphM10_00_orig.jpg,67,,,,,0,67,67,67,,,,,,,,,,,,,,,,,,,-2.9296875,-13.154296875,1,0,0,2.56266117096,,,,,2015_Nov_05_1419,G,facesParametric,51,59.6341735635,
./stim/MorphM3_08_orig.jpg,68,,,,,0,68,68,68,,,,,,,,,,,,,,,,,,,-2.9296875,-13.154296875,0,0,1,2.21100401878,,,,,2015_Nov_05_1419,G,facesParametric,51,59.6341735635,
./stim/MorphF9_00_orig.jpg,69,,,,,0,69,69,69,,,,,,,,,,,,,,,,,,,-2.9296875,-13.154296875,1,0,0,4.18916296959,,,,,2015_Nov_05_1419,G,facesParametric,51,59.6341735635,
./stim/MorphM4_10_orig.jpg,70,,,,,0,70,70,70,,,,,,,,,,,,,,,,,,,-2.9296875,-13.154296875,0,0,1,1.75798988342,,,,,2015_Nov_05_1419,G,facesParametric,51,59.6341735635,
./stim/MorphM7_02_orig.jpg,71,,,,,0,71,71,71,,,,,,,,,,,,,,,,,,,-2.9296875,-13.154296875,1,0,0,2.84795594215,,,,,2015_Nov_05_1419,G,facesParametric,51,59.6341735635,
./stim/MorphF5_06_orig.jpg,72,,,,,0,72,72,72,,,,,,,,,,,,,,,,,,,-2.9296875,-13.154296875,1,0,0,5.81434798241,,,,,2015_Nov_05_1419,G,facesParametric,51,59.6341735635,
./stim/MorphM2_10_orig.jpg,73,,,,,0,73,73,73,,,,,,,,,,,,,,,,,,,-2.9296875,-13.154296875,1,0,0,3.51805686951,,,,,2015_Nov_05_1419,G,facesParametric,51,59.6341735635,
./stim/MorphF8_00_orig.jpg,74,,,,,0,74,74,74,,,,,,,,,,,,,,,,,,,-2.9296875,-13.154296875,0,0,1,1.02135896683,,,,,2015_Nov_05_1419,G,facesParametric,51,59.6341735635,
./stim/MorphM1_02_orig.jpg,75,,,,,0,75,75,75,,,,,,,,,,,,,,,,,,,-2.9296875,-13.154296875,1,0,0,2.51136779785,,,,,2015_Nov_05_1419,G,facesParametric,51,59.6341735635,
./stim/MorphF6_08_orig.jpg,76,,,,,0,76,76,76,,,,,,,,,,,,,,,,,,,-2.9296875,-13.154296875,0,0,1,3.13291311264,,,,,2015_Nov_05_1419,G,facesParametric,51,59.6341735635,
./stim/MorphM9_05_orig.jpg,77,,,,,0,77,77,77,,,,,,,,,,,,,,,,,,,-2.9296875,-13.154296875,1,0,0,13.4555790424,,,,,2015_Nov_05_1419,G,facesParametric,51,59.6341735635,
./stim/MorphM7_09_orig.jpg,78,,,,,0,78,78,78,,,,,,,,,,,,,,,,,,,-2.9296875,-13.154296875,0,0,1,2.96499109268,,,,,2015_Nov_05_1419,G,facesParametric,51,59.6341735635,
./stim/MorphF4_09_orig.jpg,79,,,,,0,79,79,79,,,,,,,,,,,,,,,,,,,-2.9296875,-13.154296875,1,0,0,2.82948994637,,,,,2015_Nov_05_1419,G,facesParametric,51,59.6341735635,
./stim/MorphM7_03_orig.jpg,80,,,,,0,80,80,80,,,,,,,,,,,,,,,,,,,-2.9296875,-13.154296875,1,0,0,4.75691390038,,,,,2015_Nov_05_1419,G,facesParametric,51,59.6341735635,
./stim/MorphM10_04_orig.jpg,81,,,,,0,81,81,81,,,,,,,,,,,,,,,,,,,-2.9296875,-13.154296875,0,0,1,1.06895899773,,,,,2015_Nov_05_1419,G,facesParametric,51,59.6341735635,
./stim/MorphF3_02_orig.jpg,82,,,,,0,82,82,82,,,,,,,,,,,,,,,,,,,-2.9296875,-13.154296875,1,0,0,6.33396196365,,,,,2015_Nov_05_1419,G,facesParametric,51,59.6341735635,
./stim/MorphF4_04_orig.jpg,83,,,,,0,83,83,83,,,,,,,,,,,,,,,,,,,-2.9296875,-13.154296875,0,0,1,1.8413040638,,,,,2015_Nov_05_1419,G,facesParametric,51,59.6341735635,
./stim/MorphF10_05_orig.jpg,84,,,,,0,84,84,84,,,,,,,,,,,,,,,,,,,-2.9296875,-13.154296875,1,0,0,3.61813902855,,,,,2015_Nov_05_1419,G,facesParametric,51,59.6341735635,
./stim/MorphM2_05_orig.jpg,85,,,,,0,85,85,85,,,,,,,,,,,,,,,,,,,-2.9296875,-13.154296875,1,0,0,9.8184838295,,,,,2015_Nov_05_1419,G,facesParametric,51,59.6341735635,
./stim/MorphF8_04_orig.jpg,86,,,,,0,86,86,86,,,,,,,,,,,,,,,,,,,-2.9296875,-13.154296875,0,0,1,3.90315103531,,,,,2015_Nov_05_1419,G,facesParametric,51,59.6341735635,
./stim/MorphM3_00_orig.jpg,87,,,,,0,87,87,87,,,,,,,,,,,,,,,,,,,-2.9296875,-13.154296875,1,0,0,2.29549098015,,,,,2015_Nov_05_1419,G,facesParametric,51,59.6341735635,
./stim/MorphM8_06_orig.jpg,88,,,,,0,88,88,88,,,,,,,,,,,,,,,,,,,-2.9296875,-13.154296875,0,0,1,7.79145979881,,,,,2015_Nov_05_1419,G,facesParametric,51,59.6341735635,
./stim/MorphF9_01_orig.jpg,89,,,,,0,89,89,89,,,,,,,,,,,,,,,,,,,-2.9296875,-13.154296875,1,0,0,3.11592197418,,,,,2015_Nov_05_1419,G,facesParametric,51,59.6341735635,
./stim/MorphM10_07_orig.jpg,90,,,,,0,90,90,90,,,,,,,,,,,,,,,,,,,-2.9296875,-13.154296875,0,0,1,1.15294408798,,,,,2015_Nov_05_1419,G,facesParametric,51,59.6341735635,
./stim/MorphF4_02_orig.jpg,91,,,,,0,91,91,91,,,,,,,,,,,,,,,,,,,-2.9296875,-13.154296875,0,0,1,2.29443383217,,,,,2015_Nov_05_1419,G,facesParametric,51,59.6341735635,
./stim/MorphM1_05_orig.jpg,92,,,,,0,92,92,92,,,,,,,,,,,,,,,,,,,-2.9296875,-13.154296875,1,0,0,3.13313102722,,,,,2015_Nov_05_1419,G,facesParametric,51,59.6341735635,
./stim/MorphF10_07_orig.jpg,93,,,,,0,93,93,93,,,,,,,,,,,,,,,,,,,-2.9296875,-13.154296875,0,0,1,1.64010286331,,,,,2015_Nov_05_1419,G,facesParametric,51,59.6341735635,
./stim/MorphF5_08_orig.jpg,94,,,,,0,94,94,94,,,,,,,,,,,,,,,,,,,-2.9296875,-13.154296875,1,0,0,1.89284300804,,,,,2015_Nov_05_1419,G,facesParametric,51,59.6341735635,
./stim/MorphM5_04_orig.jpg,95,,,,,0,95,95,95,,,,,,,,,,,,,,,,,,,-2.9296875,-13.154296875,0,0,1,3.50138306618,,,,,2015_Nov_05_1419,G,facesParametric,51,59.6341735635,
./stim/MorphF3_10_orig.jpg,96,,,,,0,96,96,96,,,,,,,,,,,,,,,,,,,-2.9296875,-13.154296875,0,0,1,1.27251601219,,,,,2015_Nov_05_1419,G,facesParametric,51,59.6341735635,
./stim/MorphF8_10_orig.jpg,97,,,,,0,97,97,97,,,,,,,,,,,,,,,,,,,-2.9296875,-13.154296875,1,0,0,1.48886704445,,,,,2015_Nov_05_1419,G,facesParametric,51,59.6341735635,
./stim/MorphF9_07_orig.jpg,98,,,,,0,98,98,98,,,,,,,,,,,,,,,,,,,-2.9296875,-13.154296875,1,0,0,2.09222912788,,,,,2015_Nov_05_1419,G,facesParametric,51,59.6341735635,
./stim/MorphM5_01_orig.jpg,99,,,,,0,99,99,99,,,,,,,,,,,,,,,,,,,-2.9296875,-13.154296875,1,0,0,1.32284188271,,,,,2015_Nov_05_1419,G,facesParametric,51,59.6341735635,
./stim/MorphM6_05_orig.jpg,100,,,,,0,100,100,100,,,,,,,,,,,,,,,,,,,-2.9296875,-13.154296875,1,0,0,2.22819185257,,,,,2015_Nov_05_1419,G,facesParametric,51,59.6341735635,
./stim/MorphF1_07_orig.jpg,101,,,,,0,101,101,101,,,,,,,,,,,,,,,,,,,-2.9296875,-13.154296875,1,0,0,2.14362597466,,,,,2015_Nov_05_1419,G,facesParametric,51,59.6341735635,
./stim/MorphM10_02_orig.jpg,102,,,,,0,102,102,102,,,,,,,,,,,,,,,,,,,-2.9296875,-13.154296875,0,0,1,1.74095010757,,,,,2015_Nov_05_1419,G,facesParametric,51,59.6341735635,
./stim/MorphF2_07_orig.jpg,103,,,,,0,103,103,103,,,,,,,,,,,,,,,,,,,-2.9296875,-13.154296875,1,0,0,1.32252287865,,,,,2015_Nov_05_1419,G,facesParametric,51,59.6341735635,
./stim/MorphM2_07_orig.jpg,104,,,,,0,104,104,104,,,,,,,,,,,,,,,,,,,-2.9296875,-13.154296875,0,0,1,2.00923299789,,,,,2015_Nov_05_1419,G,facesParametric,51,59.6341735635,
./stim/MorphM9_06_orig.jpg,105,,,,,0,105,105,105,,,,,,,,,,,,,,,,,,,-2.9296875,-13.154296875,1,0,0,2.29515886307,,,,,2015_Nov_05_1419,G,facesParametric,51,59.6341735635,
./stim/MorphF4_06_orig.jpg,106,,,,,0,106,106,106,,,,,,,,,,,,,,,,,,,-2.9296875,-13.154296875,0,0,1,3.55121994019,,,,,2015_Nov_05_1419,G,facesParametric,51,59.6341735635,
./stim/MorphM2_09_orig.jpg,107,,,,,0,107,107,107,,,,,,,,,,,,,,,,,,,-2.9296875,-13.154296875,1,0,0,2.09233808517,,,,,2015_Nov_05_1419,G,facesParametric,51,59.6341735635,
./stim/MorphM8_07_orig.jpg,108,,,,,0,108,108,108,,,,,,,,,,,,,,,,,,,-2.9296875,-13.154296875,0,0,1,1.95978713036,,,,,2015_Nov_05_1419,G,facesParametric,51,59.6341735635,
./stim/MorphF2_01_orig.jpg,109,,,,,0,109,109,109,,,,,,,,,,,,,,,,,,,-2.9296875,-13.154296875,0,0,1,14.6787118912,,,,,2015_Nov_05_1419,G,facesParametric,51,59.6341735635,
./stim/MorphM5_06_orig.jpg,110,,,,,0,110,110,110,,,,,,,,,,,,,,,,,,,-2.9296875,-13.154296875,1,0,0,4.05472993851,,,,,2015_Nov_05_1419,G,facesParametric,51,59.6341735635,
./stim/MorphF2_05_orig.jpg,111,,,,,0,111,111,111,,,,,,,,,,,,,,,,,,,-2.9296875,-13.154296875,0,0,1,23.3949291706,,,,,2015_Nov_05_1419,G,facesParametric,51,59.6341735635,
./stim/MorphM3_03_orig.jpg,112,,,,,0,112,112,112,,,,,,,,,,,,,,,,,,,-2.9296875,-13.154296875,0,0,1,9.21677803993,,,,,2015_Nov_05_1419,G,facesParametric,51,59.6341735635,
./stim/MorphF7_00_orig.jpg,113,,,,,0,113,113,113,,,,,,,,,,,,,,,,,,,-2.9296875,-13.154296875,1,0,0,1.08717489243,,,,,2015_Nov_05_1419,G,facesParametric,51,59.6341735635,
./stim/MorphM3_01_orig.jpg,114,,,,,0,114,114,114,,,,,,,,,,,,,,,,,,,-2.9296875,-13.154296875,0,0,1,1.50675296783,,,,,2015_Nov_05_1419,G,facesParametric,51,59.6341735635,
./stim/MorphM9_04_orig.jpg,115,,,,,0,115,115,115,,,,,,,,,,,,,,,,,,,-2.9296875,-13.154296875,1,0,0,3.95346593857,,,,,2015_Nov_05_1419,G,facesParametric,51,59.6341735635,
./stim/MorphM8_04_orig.jpg,116,,,,,0,116,116,116,,,,,,,,,,,,,,,,,,,-2.9296875,-13.154296875,0,0,1,1.50721096992,,,,,2015_Nov_05_1419,G,facesParametric,51,59.6341735635,
./stim/MorphM10_10_orig.jpg,117,,,,,0,117,117,117,,,,,,,,,,,,,,,,,,,-2.9296875,-13.154296875,1,0,0,1.84254813194,,,,,2015_Nov_05_1419,G,facesParametric,51,59.6341735635,
./stim/MorphM4_04_orig.jpg,118,,,,,0,118,118,118,,,,,,,,,,,,,,,,,,,-2.9296875,-13.154296875,0,0,1,14.0932340622,,,,,2015_Nov_05_1419,G,facesParametric,51,59.6341735635,
./stim/MorphF3_09_orig.jpg,119,,,,,0,119,119,119,,,,,,,,,,,,,,,,,,,-2.9296875,-13.154296875,0,0,1,2.76325702667,,,,,2015_Nov_05_1419,G,facesParametric,51,59.6341735635,
./stim/MorphM3_10_orig.jpg,120,,,,,0,120,120,120,,,,,,,,,,,,,,,,,,,-2.9296875,-13.154296875,1,0,0,1.47397899628,,,,,2015_Nov_05_1419,G,facesParametric,51,59.6341735635,
./stim/MorphM2_04_orig.jpg,121,,,,,0,121,121,121,,,,,,,,,,,,,,,,,,,-2.9296875,-13.154296875,0,0,1,1.28775119781,,,,,2015_Nov_05_1419,G,facesParametric,51,59.6341735635,
./stim/MorphM9_10_orig.jpg,122,,,,,0,122,122,122,,,,,,,,,,,,,,,,,,,-2.9296875,-13.154296875,1,0,0,1.62483215332,,,,,2015_Nov_05_1419,G,facesParametric,51,59.6341735635,
./stim/MorphM6_01_orig.jpg,123,,,,,0,123,123,123,,,,,,,,,,,,,,,,,,,-2.9296875,-13.154296875,0,0,1,2.26059007645,,,,,2015_Nov_05_1419,G,facesParametric,51,59.6341735635,
./stim/MorphF7_07_orig.jpg,124,,,,,0,124,124,124,,,,,,,,,,,,,,,,,,,-2.9296875,-13.154296875,0,0,1,2.2449529171,,,,,2015_Nov_05_1419,G,facesParametric,51,59.6341735635,
./stim/MorphF6_09_orig.jpg,125,,,,,0,125,125,125,,,,,,,,,,,,,,,,,,,-2.9296875,-13.154296875,0,0,1,2.82869005203,,,,,2015_Nov_05_1419,G,facesParametric,51,59.6341735635,
./stim/MorphF2_04_orig.jpg,126,,,,,0,126,126,126,,,,,,,,,,,,,,,,,,,-2.9296875,-13.154296875,0,0,1,3.50132703781,,,,,2015_Nov_05_1419,G,facesParametric,51,59.6341735635,
./stim/MorphF6_02_orig.jpg,127,,,,,0,127,127,127,,,,,,,,,,,,,,,,,,,-2.9296875,-13.154296875,1,0,0,4.58966898918,,,,,2015_Nov_05_1419,G,facesParametric,51,59.6341735635,
./stim/MorphF10_10_orig.jpg,128,,,,,0,128,128,128,,,,,,,,,,,,,,,,,,,-2.9296875,-13.154296875,0,0,1,4.0860850811,,,,,2015_Nov_05_1419,G,facesParametric,51,59.6341735635,
./stim/MorphM9_07_orig.jpg,129,,,,,0,129,129,129,,,,,,,,,,,,,,,,,,,-2.9296875,-13.154296875,1,0,0,5.51229906082,,,,,2015_Nov_05_1419,G,facesParametric,51,59.6341735635,
./stim/MorphM4_05_orig.jpg,130,,,,,0,130,130,130,,,,,,,,,,,,,,,,,,,-2.9296875,-13.154296875,0,0,1,13.2552690506,,,,,2015_Nov_05_1419,G,facesParametric,51,59.6341735635,
./stim/MorphF8_06_orig.jpg,131,,,,,0,131,131,131,,,,,,,,,,,,,,,,,,,-2.9296875,-13.154296875,1,0,0,1.47292113304,,,,,2015_Nov_05_1419,G,facesParametric,51,59.6341735635,
./stim/MorphM3_07_orig.jpg,132,,,,,0,132,132,132,,,,,,,,,,,,,,,,,,,-2.9296875,-13.154296875,0,0,1,1.84226417542,,,,,2015_Nov_05_1419,G,facesParametric,51,59.6341735635,
./stim/MorphF5_03_orig.jpg,133,,,,,0,133,133,133,,,,,,,,,,,,,,,,,,,-2.9296875,-13.154296875,0,0,1,6.01551413536,,,,,2015_Nov_05_1419,G,facesParametric,51,59.6341735635,
./stim/MorphM8_09_orig.jpg,134,,,,,0,134,134,134,,,,,,,,,,,,,,,,,,,-2.9296875,-13.154296875,1,0,0,1.44002103806,,,,,2015_Nov_05_1419,G,facesParametric,51,59.6341735635,
./stim/MorphM2_00_orig.jpg,135,,,,,0,135,135,135,,,,,,,,,,,,,,,,,,,-2.9296875,-13.154296875,0,0,1,1.20411705971,,,,,2015_Nov_05_1419,G,facesParametric,51,59.6341735635,
./stim/MorphM8_02_orig.jpg,136,,,,,0,136,136,136,,,,,,,,,,,,,,,,,,,-2.9296875,-13.154296875,1,0,0,1.59068608284,,,,,2015_Nov_05_1419,G,facesParametric,51,59.6341735635,
./stim/MorphF7_04_orig.jpg,137,,,,,0,137,137,137,,,,,,,,,,,,,,,,,,,-2.9296875,-13.154296875,0,0,1,1.44000506401,,,,,2015_Nov_05_1419,G,facesParametric,51,59.6341735635,
./stim/MorphF6_00_orig.jpg,138,,,,,0,138,138,138,,,,,,,,,,,,,,,,,,,-2.9296875,-13.154296875,0,0,1,1.69109296799,,,,,2015_Nov_05_1419,G,facesParametric,51,59.6341735635,
./stim/MorphF10_04_orig.jpg,139,,,,,0,139,139,139,,,,,,,,,,,,,,,,,,,-2.9296875,-13.154296875,1,0,0,18.9203131199,,,,,2015_Nov_05_1419,G,facesParametric,51,59.6341735635,
./stim/MorphF9_09_orig.jpg,140,,,,,0,140,140,140,,,,,,,,,,,,,,,,,,,-2.9296875,-13.154296875,0,0,1,0.920587062836,,,,,2015_Nov_05_1419,G,facesParametric,51,59.6341735635,
./stim/MorphM5_10_orig.jpg,141,,,,,0,141,141,141,,,,,,,,,,,,,,,,,,,-2.9296875,-13.154296875,1,0,0,1.42308187485,,,,,2015_Nov_05_1419,G,facesParametric,51,59.6341735635,
./stim/MorphM7_08_orig.jpg,142,,,,,0,142,142,142,,,,,,,,,,,,,,,,,,,-2.9296875,-13.154296875,0,0,1,2.96503591537,,,,,2015_Nov_05_1419,G,facesParametric,51,59.6341735635,
./stim/MorphF7_08_orig.jpg,143,,,,,0,143,143,143,,,,,,,,,,,,,,,,,,,-2.9296875,-13.154296875,1,0,0,6.2157998085,,,,,2015_Nov_05_1419,G,facesParametric,51,59.6341735635,
./stim/MorphF4_10_orig.jpg,144,,,,,0,144,144,144,,,,,,,,,,,,,,,,,,,-2.9296875,-13.154296875,0,0,1,3.21661305428,,,,,2015_Nov_05_1419,G,facesParametric,51,59.6341735635,
./stim/MorphF1_10_orig.jpg,145,,,,,0,145,145,145,,,,,,,,,,,,,,,,,,,-2.9296875,-13.154296875,1,0,0,5.37828803062,,,,,2015_Nov_05_1419,G,facesParametric,51,59.6341735635,
./stim/MorphF7_03_orig.jpg,146,,,,,0,146,146,146,,,,,,,,,,,,,,,,,,,-2.9296875,-13.154296875,0,0,1,0.885438919067,,,,,2015_Nov_05_1419,G,facesParametric,51,59.6341735635,
./stim/MorphF5_04_orig.jpg,147,,,,,0,147,147,147,,,,,,,,,,,,,,,,,,,-2.9296875,-13.154296875,1,0,0,1.59038090706,,,,,2015_Nov_05_1419,G,facesParametric,51,59.6341735635,
./stim/MorphM8_01_orig.jpg,148,,,,,0,148,148,148,,,,,,,,,,,,,,,,,,,-2.9296875,-13.154296875,0,0,1,1.53960204124,,,,,2015_Nov_05_1419,G,facesParametric,51,59.6341735635,
./stim/MorphF2_06_orig.jpg,149,,,,,0,149,149,149,,,,,,,,,,,,,,,,,,,-2.9296875,-13.154296875,0,0,1,6.51807188988,,,,,2015_Nov_05_1419,G,facesParametric,51,59.6341735635,
./stim/MorphF7_05_orig.jpg,150,,,,,0,150,150,150,,,,,,,,,,,,,,,,,,,-2.9296875,-13.154296875,1,0,0,1.65764594078,,,,,2015_Nov_05_1419,G,facesParametric,51,59.6341735635,
./stim/MorphM4_03_orig.jpg,151,,,,,0,151,151,151,,,,,,,,,,,,,,,,,,,-2.9296875,-13.154296875,0,0,1,1.89090299606,,,,,2015_Nov_05_1419,G,facesParametric,51,59.6341735635,
./stim/MorphM6_08_orig.jpg,152,,,,,0,152,152,152,,,,,,,,,,,,,,,,,,,-2.9296875,-13.154296875,0,0,1,2.76382303238,,,,,2015_Nov_05_1419,G,facesParametric,51,59.6341735635,
./stim/MorphF7_02_orig.jpg,153,,,,,0,153,153,153,,,,,,,,,,,,,,,,,,,-2.9296875,-13.154296875,1,0,0,2.83038687706,,,,,2015_Nov_05_1419,G,facesParametric,51,59.6341735635,
./stim/MorphM6_07_orig.jpg,154,,,,,0,154,154,154,,,,,,,,,,,,,,,,,,,-2.9296875,-13.154296875,0,0,1,1.65687298775,,,,,2015_Nov_05_1419,G,facesParametric,51,59.6341735635,
./stim/MorphF8_02_orig.jpg,155,,,,,0,155,155,155,,,,,,,,,,,,,,,,,,,-2.9296875,-13.154296875,0,0,1,11.1102888584,,,,,2015_Nov_05_1419,G,facesParametric,51,59.6341735635,
./stim/MorphF4_03_orig.jpg,156,,,,,0,156,156,156,,,,,,,,,,,,,,,,,,,-2.9296875,-13.154296875,1,0,0,3.75222492218,,,,,2015_Nov_05_1419,G,facesParametric,51,59.6341735635,
./stim/MorphF1_01_orig.jpg,157,,,,,0,157,157,157,,,,,,,,,,,,,,,,,,,-2.9296875,-13.154296875,0,0,1,1.87623000145,,,,,2015_Nov_05_1419,G,facesParametric,51,59.6341735635,
./stim/MorphF10_00_orig.jpg,158,,,,,0,158,158,158,,,,,,,,,,,,,,,,,,,-2.9296875,-13.154296875,0,0,1,2.0763502121,,,,,2015_Nov_05_1419,G,facesParametric,51,59.6341735635,
./stim/MorphM5_08_orig.jpg,159,,,,,0,159,159,159,,,,,,,,,,,,,,,,,,,-2.9296875,-13.154296875,1,0,0,5.62862992287,,,,,2015_Nov_05_1419,G,facesParametric,51,59.6341735635,
./stim/MorphF8_01_orig.jpg,160,,,,,0,160,160,160,,,,,,,,,,,,,,,,,,,-2.9296875,-13.154296875,1,0,0,1.42279195786,,,,,2015_Nov_05_1419,G,facesParametric,51,59.6341735635,
./stim/MorphF1_06_orig.jpg,161,,,,,0,161,161,161,,,,,,,,,,,,,,,,,,,-2.9296875,-13.154296875,1,0,0,2.69499492645,,,,,2015_Nov_05_1419,G,facesParametric,51,59.6341735635,
./stim/MorphF4_07_orig.jpg,162,,,,,0,162,162,162,,,,,,,,,,,,,,,,,,,-2.9296875,-13.154296875,1,0,0,26.2284228802,,,,,2015_Nov_05_1419,G,facesParametric,51,59.6341735635,
./stim/MorphM6_00_orig.jpg,163,,,,,0,163,163,163,,,,,,,,,,,,,,,,,,,-2.9296875,-13.154296875,0,0,1,0.901752948761,,,,,2015_Nov_05_1419,G,facesParametric,51,59.6341735635,
./stim/MorphF5_00_orig.jpg,164,,,,,0,164,164,164,,,,,,,,,,,,,,,,,,,-2.9296875,-13.154296875,1,0,0,4.42146492004,,,,,2015_Nov_05_1419,G,facesParametric,51,59.6341735635,
./stim/MorphM1_03_orig.jpg,165,,,,,0,165,165,165,,,,,,,,,,,,,,,,,,,-2.9296875,-13.154296875,0,0,1,1.02092504501,,,,,2015_Nov_05_1419,G,facesParametric,51,59.6341735635,
./stim/MorphF3_03_orig.jpg,166,,,,,0,166,166,166,,,,,,,,,,,,,,,,,,,-2.9296875,-13.154296875,1,0,0,3.6849899292,,,,,2015_Nov_05_1419,G,facesParametric,51,59.6341735635,
./stim/MorphM5_05_orig.jpg,167,,,,,0,167,167,167,,,,,,,,,,,,,,,,,,,-2.9296875,-13.154296875,0,0,1,1.07143807411,,,,,2015_Nov_05_1419,G,facesParametric,51,59.6341735635,
./stim/MorphF4_05_orig.jpg,168,,,,,0,168,168,168,,,,,,,,,,,,,,,,,,,-2.9296875,-13.154296875,1,0,0,7.27224516869,,,,,2015_Nov_05_1419,G,facesParametric,51,59.6341735635,
./stim/MorphM1_07_orig.jpg,169,,,,,0,169,169,169,,,,,,,,,,,,,,,,,,,-2.9296875,-13.154296875,0,0,1,1.54048013687,,,,,2015_Nov_05_1419,G,facesParametric,51,59.6341735635,
./stim/MorphM3_04_orig.jpg,170,,,,,0,170,170,170,,,,,,,,,,,,,,,,,,,-2.9296875,-13.154296875,1,0,0,1.70830392838,,,,,2015_Nov_05_1419,G,facesParametric,51,59.6341735635,
./stim/MorphF2_03_orig.jpg,171,,,,,0,171,171,171,,,,,,,,,,,,,,,,,,,-2.9296875,-13.154296875,0,0,1,4.10275292397,,,,,2015_Nov_05_1419,G,facesParametric,51,59.6341735635,
./stim/MorphM6_04_orig.jpg,172,,,,,0,172,172,172,,,,,,,,,,,,,,,,,,,-2.9296875,-13.154296875,1,0,0,1.08885216713,,,,,2015_Nov_05_1419,G,facesParametric,51,59.6341735635,
./stim/MorphF9_10_orig.jpg,173,,,,,0,173,173,173,,,,,,,,,,,,,,,,,,,-2.9296875,-13.154296875,0,0,1,1.33683514595,,,,,2015_Nov_05_1419,G,facesParametric,51,59.6341735635,
./stim/MorphF6_06_orig.jpg,174,,,,,0,174,174,174,,,,,,,,,,,,,,,,,,,-2.9296875,-13.154296875,1,0,0,3.65223002434,,,,,2015_Nov_05_1419,G,facesParametric,51,59.6341735635,
./stim/MorphF5_01_orig.jpg,175,,,,,0,175,175,175,,,,,,,,,,,,,,,,,,,-2.9296875,-13.154296875,1,0,0,4.03778505325,,,,,2015_Nov_05_1419,G,facesParametric,51,59.6341735635,
./stim/MorphM7_05_orig.jpg,176,,,,,0,176,176,176,,,,,,,,,,,,,,,,,,,-2.9296875,-13.154296875,1,0,0,2.2278380394,,,,,2015_Nov_05_1419,G,facesParametric,51,59.6341735635,
./stim/MorphF9_08_orig.jpg,177,,,,,0,177,177,177,,,,,,,,,,,,,,,,,,,-2.9296875,-13.154296875,1,0,0,29.6796720028,,,,,2015_Nov_05_1419,G,facesParametric,51,59.6341735635,
./stim/MorphF4_00_orig.jpg,178,,,,,0,178,178,178,,,,,,,,,,,,,,,,,,,-2.9296875,-13.154296875,0,0,1,0.818677902222,,,,,2015_Nov_05_1419,G,facesParametric,51,59.6341735635,
./stim/MorphF6_04_orig.jpg,179,,,,,0,179,179,179,,,,,,,,,,,,,,,,,,,-2.9296875,-13.154296875,1,0,0,1.05485200882,,,,,2015_Nov_05_1419,G,facesParametric,51,59.6341735635,
./stim/MorphM4_06_orig.jpg,180,,,,,0,180,180,180,,,,,,,,,,,,,,,,,,,-2.9296875,-13.154296875,0,0,1,1.28908491135,,,,,2015_Nov_05_1419,G,facesParametric,51,59.6341735635,
./stim/MorphF10_06_orig.jpg,181,,,,,0,181,181,181,,,,,,,,,,,,,,,,,,,-2.9296875,-13.154296875,1,0,0,16.5570640564,,,,,2015_Nov_05_1419,G,facesParametric,51,59.6341735635,
./stim/MorphM5_02_orig.jpg,182,,,,,0,182,182,182,,,,,,,,,,,,,,,,,,,-2.9296875,-13.154296875,0,0,1,0.820168972015,,,,,2015_Nov_05_1419,G,facesParametric,51,59.6341735635,
./stim/MorphF9_04_orig.jpg,183,,,,,0,183,183,183,,,,,,,,,,,,,,,,,,,-2.9296875,-13.154296875,1,0,0,3.09922385216,,,,,2015_Nov_05_1419,G,facesParametric,51,59.6341735635,
./stim/MorphM1_01_orig.jpg,184,,,,,0,184,184,184,,,,,,,,,,,,,,,,,,,-2.9296875,-13.154296875,0,0,1,1.05430293083,,,,,2015_Nov_05_1419,G,facesParametric,51,59.6341735635,
./stim/MorphM10_05_orig.jpg,185,,,,,0,185,185,185,,,,,,,,,,,,,,,,,,,-2.9296875,-13.154296875,1,0,0,12.6180260181,,,,,2015_Nov_05_1419,G,facesParametric,51,59.6341735635,
./stim/MorphF1_03_orig.jpg,186,,,,,0,186,186,186,,,,,,,,,,,,,,,,,,,-2.9296875,-13.154296875,0,0,1,1.08740115166,,,,,2015_Nov_05_1419,G,facesParametric,51,59.6341735635,
./stim/MorphF6_07_orig.jpg,187,,,,,0,187,187,187,,,,,,,,,,,,,,,,,,,-2.9296875,-13.154296875,1,0,0,1.4070110321,,,,,2015_Nov_05_1419,G,facesParametric,51,59.6341735635,
./stim/MorphF5_05_orig.jpg,188,,,,,0,188,188,188,,,,,,,,,,,,,,,,,,,-2.9296875,-13.154296875,1,0,0,6.66791510582,,,,,2015_Nov_05_1419,G,facesParametric,51,59.6341735635,
./stim/MorphF3_00_orig.jpg,189,,,,,0,189,189,189,,,,,,,,,,,,,,,,,,,-2.9296875,-13.154296875,0,0,1,1.44014191628,,,,,2015_Nov_05_1419,G,facesParametric,51,59.6341735635,
./stim/MorphF10_01_orig.jpg,190,,,,,0,190,190,190,,,,,,,,,,,,,,,,,,,-2.9296875,-13.154296875,1,0,0,2.96517896652,,,,,2015_Nov_05_1419,G,facesParametric,51,59.6341735635,
./stim/MorphM4_08_orig.jpg,191,,,,,0,191,191,191,,,,,,,,,,,,,,,,,,,-2.9296875,-13.154296875,0,0,1,2.99785900116,,,,,2015_Nov_05_1419,G,facesParametric,51,59.6341735635,
./stim/MorphF3_05_orig.jpg,192,,,,,0,192,192,192,,,,,,,,,,,,,,,,,,,-2.9296875,-13.154296875,0,0,1,1.07142114639,,,,,2015_Nov_05_1419,G,facesParametric,51,59.6341735635,
./stim/MorphM2_02_orig.jpg,193,,,,,0,193,193,193,,,,,,,,,,,,,,,,,,,-2.9296875,-13.154296875,1,0,0,1.35578298569,,,,,2015_Nov_05_1419,G,facesParametric,51,59.6341735635,
./stim/MorphM4_02_orig.jpg,194,,,,,0,194,194,194,,,,,,,,,,,,,,,,,,,-2.9296875,-13.154296875,0,0,1,1.12141799927,,,,,2015_Nov_05_1419,G,facesParametric,51,59.6341735635,
./stim/MorphF7_06_orig.jpg,195,,,,,0,195,195,195,,,,,,,,,,,,,,,,,,,-2.9296875,-13.154296875,0,0,1,1.74009513855,,,,,2015_Nov_05_1419,G,facesParametric,51,59.6341735635,
./stim/MorphF2_09_orig.jpg,196,,,,,0,196,196,196,,,,,,,,,,,,,,,,,,,-2.9296875,-13.154296875,1,0,0,1.38979887962,,,,,2015_Nov_05_1419,G,facesParametric,51,59.6341735635,
./stim/MorphF10_08_orig.jpg,197,,,,,0,197,197,197,,,,,,,,,,,,,,,,,,,-2.9296875,-13.154296875,0,0,1,1.84200000763,,,,,2015_Nov_05_1419,G,facesParametric,51,59.6341735635,
./stim/MorphM10_01_orig.jpg,198,,,,,0,198,198,198,,,,,,,,,,,,,,,,,,,-2.9296875,-13.154296875,0,0,1,1.30632400513,,,,,2015_Nov_05_1419,G,facesParametric,51,59.6341735635,
./stim/MorphM6_02_orig.jpg,199,,,,,0,199,199,199,,,,,,,,,,,,,,,,,,,-2.9296875,-13.154296875,1,0,0,1.20548701286,,,,,2015_Nov_05_1419,G,facesParametric,51,59.6341735635,
./stim/MorphF9_06_orig.jpg,200,,,,,0,200,200,200,,,,,,,,,,,,,,,,,,,-2.9296875,-13.154296875,1,0,0,1.5058991909,,,,,2015_Nov_05_1419,G,facesParametric,51,59.6341735635,
./stim/MorphF2_02_orig.jpg,201,,,,,0,201,201,201,,,,,,,,,,,,,,,,,,,-2.9296875,-13.154296875,1,0,0,1.00324606895,,,,,2015_Nov_05_1419,G,facesParametric,51,59.6341735635,
./stim/MorphF10_02_orig.jpg,202,,,,,0,202,202,202,,,,,,,,,,,,,,,,,,,-2.9296875,-13.154296875,0,0,1,0.98773598671,,,,,2015_Nov_05_1419,G,facesParametric,51,59.6341735635,
./stim/MorphM9_08_orig.jpg,203,,,,,0,203,203,203,,,,,,,,,,,,,,,,,,,-2.9296875,-13.154296875,1,0,0,1.12166500092,,,,,2015_Nov_05_1419,G,facesParametric,51,59.6341735635,
./stim/MorphM8_08_orig.jpg,204,,,,,0,204,204,204,,,,,,,,,,,,,,,,,,,-2.9296875,-13.154296875,0,0,1,2.01003789902,,,,,2015_Nov_05_1419,G,facesParametric,51,59.6341735635,
./stim/MorphF7_09_orig.jpg,205,,,,,0,205,205,205,,,,,,,,,,,,,,,,,,,-2.9296875,-13.154296875,0,0,1,1.48842382431,,,,,2015_Nov_05_1419,G,facesParametric,51,59.6341735635,
./stim/MorphM6_06_orig.jpg,206,,,,,0,206,206,206,,,,,,,,,,,,,,,,,,,-2.9296875,-13.154296875,1,0,0,1.28672194481,,,,,2015_Nov_05_1419,G,facesParametric,51,59.6341735635,
./stim/MorphM5_09_orig.jpg,207,,,,,0,207,207,207,,,,,,,,,,,,,,,,,,,-2.9296875,-13.154296875,1,0,0,1.13899302483,,,,,2015_Nov_05_1419,G,facesParametric,51,59.6341735635,
./stim/MorphM1_10_orig.jpg,208,,,,,0,208,208,208,,,,,,,,,,,,,,,,,,,-2.9296875,-13.154296875,0,0,1,1.28884196281,,,,,2015_Nov_05_1419,G,facesParametric,51,59.6341735635,
./stim/MorphM3_02_orig.jpg,209,,,,,0,209,209,209,,,,,,,,,,,,,,,,,,,-2.9296875,-13.154296875,1,0,0,1.25580906868,,,,,2015_Nov_05_1419,G,facesParametric,51,59.6341735635,
./stim/MorphF3_06_orig.jpg,210,,,,,0,210,210,210,,,,,,,,,,,,,,,,,,,-2.9296875,-13.154296875,0,0,1,3.8364610672,,,,,2015_Nov_05_1419,G,facesParametric,51,59.6341735635,
./stim/MorphF9_05_orig.jpg,211,,,,,0,211,211,211,,,,,,,,,,,,,,,,,,,-2.9296875,-13.154296875,1,0,0,3.03134679794,,,,,2015_Nov_05_1419,G,facesParametric,51,59.6341735635,
./stim/MorphM4_09_orig.jpg,212,,,,,0,212,212,212,,,,,,,,,,,,,,,,,,,-2.9296875,-13.154296875,0,0,1,1.84203886986,,,,,2015_Nov_05_1419,G,facesParametric,51,59.6341735635,
./stim/MorphF9_02_orig.jpg,213,,,,,0,213,213,213,,,,,,,,,,,,,,,,,,,-2.9296875,-13.154296875,1,0,0,4.39110589027,,,,,2015_Nov_05_1419,G,facesParametric,51,59.6341735635,
./stim/MorphF8_07_orig.jpg,214,,,,,0,214,214,214,,,,,,,,,,,,,,,,,,,-2.9296875,-13.154296875,1,0,0,1.06998801231,,,,,2015_Nov_05_1419,G,facesParametric,51,59.6341735635,
./stim/MorphM5_07_orig.jpg,215,,,,,0,215,215,215,,,,,,,,,,,,,,,,,,,-2.9296875,-13.154296875,0,0,1,2.10844802856,,,,,2015_Nov_05_1419,G,facesParametric,51,59.6341735635,
./stim/MorphM7_01_orig.jpg,216,,,,,0,216,216,216,,,,,,,,,,,,,,,,,,,-2.9296875,-13.154296875,0,0,1,1.02022409439,,,,,2015_Nov_05_1419,G,facesParametric,51,59.6341735635,
./stim/MorphM9_00_orig.jpg,217,,,,,0,217,217,217,,,,,,,,,,,,,,,,,,,-2.9296875,-13.154296875,1,0,0,1.17293190956,,,,,2015_Nov_05_1419,G,facesParametric,51,59.6341735635,
./stim/MorphF4_08_orig.jpg,218,,,,,0,218,218,218,,,,,,,,,,,,,,,,,,,-2.9296875,-13.154296875,0,0,1,1.73904800415,,,,,2015_Nov_05_1419,G,facesParametric,51,59.6341735635,
./stim/MorphF2_10_orig.jpg,219,,,,,0,219,219,219,,,,,,,,,,,,,,,,,,,-2.9296875,-13.154296875,0,0,1,2.66373920441,,,,,2015_Nov_05_1419,G,facesParametric,51,59.6341735635,
,,,,,,,,,,,,,,,,,,,,,,,,,,,,,,,,,,return,36.9723091125,,,2015_Nov_05_1419,G,facesParametric,51,59.6341735635,
./stim/MorphM4_02_orig.jpg,0,,,,,,,,,0,0,0,0,,,,,,,,,,,,,,,-2.9296875,-13.154296875,1,0,0,2.38461899757,,,,,2015_Nov_05_1419,G,facesParametric,51,59.6341735635,
./stim/MorphM8_00_orig.jpg,1,,,,,,,,,0,1,1,1,,,,,,,,,,,,,,,-2.9296875,-13.154296875,1,0,0,2.02382206917,,,,,2015_Nov_05_1419,G,facesParametric,51,59.6341735635,
./stim/MorphM6_02_orig.jpg,2,,,,,,,,,0,2,2,2,,,,,,,,,,,,,,,-2.9296875,-13.154296875,1,0,0,0.986597776413,,,,,2015_Nov_05_1419,G,facesParametric,51,59.6341735635,
./stim/MorphF8_00_orig.jpg,3,,,,,,,,,0,3,3,3,,,,,,,,,,,,,,,-2.9296875,-13.154296875,0,0,1,1.00417399406,,,,,2015_Nov_05_1419,G,facesParametric,51,59.6341735635,
./stim/MorphM8_05_orig.jpg,4,,,,,,,,,0,4,4,4,,,,,,,,,,,,,,,-2.9296875,-13.154296875,1,0,0,0.953840017319,,,,,2015_Nov_05_1419,G,facesParametric,51,59.6341735635,
./stim/MorphM7_04_orig.jpg,5,,,,,,,,,0,5,5,5,,,,,,,,,,,,,,,-2.9296875,-13.154296875,0,0,1,1.55763888359,,,,,2015_Nov_05_1419,G,facesParametric,51,59.6341735635,
./stim/MorphM1_07_orig.jpg,6,,,,,,,,,0,6,6,6,,,,,,,,,,,,,,,-2.9296875,-13.154296875,1,0,0,1.33775496483,,,,,2015_Nov_05_1419,G,facesParametric,51,59.6341735635,
./stim/MorphM7_10_orig.jpg,7,,,,,,,,,0,7,7,7,,,,,,,,,,,,,,,-2.9296875,-13.154296875,0,0,1,1.75773096085,,,,,2015_Nov_05_1419,G,facesParametric,51,59.6341735635,
./stim/MorphM6_03_orig.jpg,8,,,,,,,,,0,8,8,8,,,,,,,,,,,,,,,-2.9296875,-13.154296875,1,0,0,1.57267594337,,,,,2015_Nov_05_1419,G,facesParametric,51,59.6341735635,
./stim/MorphM1_09_orig.jpg,9,,,,,,,,,0,9,9,9,,,,,,,,,,,,,,,-2.9296875,-13.154296875,0,0,1,1.23692798615,,,,,2015_Nov_05_1419,G,facesParametric,51,59.6341735635,
./stim/MorphM10_05_orig.jpg,10,,,,,,,,,0,10,10,10,,,,,,,,,,,,,,,-2.9296875,-13.154296875,0,0,1,1.53899407387,,,,,2015_Nov_05_1419,G,facesParametric,51,59.6341735635,
./stim/MorphM7_00_orig.jpg,11,,,,,,,,,0,11,11,11,,,,,,,,,,,,,,,-2.9296875,-13.154296875,1,0,0,1.03773593903,,,,,2015_Nov_05_1419,G,facesParametric,51,59.6341735635,
./stim/MorphF3_00_orig.jpg,12,,,,,,,,,0,12,12,12,,,,,,,,,,,,,,,-2.9296875,-13.154296875,1,0,0,1.69171118736,,,,,2015_Nov_05_1419,G,facesParametric,51,59.6341735635,
./stim/MorphF2_07_orig.jpg,13,,,,,,,,,0,13,13,13,,,,,,,,,,,,,,,-2.9296875,-13.154296875,1,0,0,2.36113905907,,,,,2015_Nov_05_1419,G,facesParametric,51,59.6341735635,
./stim/MorphM3_08_orig.jpg,14,,,,,,,,,0,14,14,14,,,,,,,,,,,,,,,-2.9296875,-13.154296875,0,0,1,1.44038581848,,,,,2015_Nov_05_1419,G,facesParametric,51,59.6341735635,
./stim/MorphF6_09_orig.jpg,15,,,,,,,,,0,15,15,15,,,,,,,,,,,,,,,-2.9296875,-13.154296875,0,0,1,1.17196416855,,,,,2015_Nov_05_1419,G,facesParametric,51,59.6341735635,
./stim/MorphF10_10_orig.jpg,16,,,,,,,,,0,16,16,16,,,,,,,,,,,,,,,-2.9296875,-13.154296875,0,0,1,0.885673999786,,,,,2015_Nov_05_1419,G,facesParametric,51,59.6341735635,
./stim/MorphM6_01_orig.jpg,17,,,,,,,,,0,17,17,17,,,,,,,,,,,,,,,-2.9296875,-13.154296875,1,0,0,3.6347849369,,,,,2015_Nov_05_1419,G,facesParametric,51,59.6341735635,
./stim/MorphF6_01_orig.jpg,18,,,,,,,,,0,18,18,18,,,,,,,,,,,,,,,-2.9296875,-13.154296875,1,0,0,2.00940585136,,,,,2015_Nov_05_1419,G,facesParametric,51,59.6341735635,
./stim/MorphF7_09_orig.jpg,19,,,,,,,,,0,19,19,19,,,,,,,,,,,,,,,-2.9296875,-13.154296875,1,0,0,2.21022510529,,,,,2015_Nov_05_1419,G,facesParametric,51,59.6341735635,
./stim/MorphF6_04_orig.jpg,20,,,,,,,,,0,20,20,20,,,,,,,,,,,,,,,-2.9296875,-13.154296875,1,0,0,0.985641956329,,,,,2015_Nov_05_1419,G,facesParametric,51,59.6341735635,
./stim/MorphM7_01_orig.jpg,21,,,,,,,,,0,21,21,21,,,,,,,,,,,,,,,-2.9296875,-13.154296875,0,0,1,1.27257609367,,,,,2015_Nov_05_1419,G,facesParametric,51,59.6341735635,
./stim/MorphF4_04_orig.jpg,22,,,,,,,,,0,22,22,22,,,,,,,,,,,,,,,-2.9296875,-13.154296875,1,0,0,2.5969851017,,,,,2015_Nov_05_1419,G,facesParametric,51,59.6341735635,
./stim/MorphF6_05_orig.jpg,23,,,,,,,,,0,23,23,23,,,,,,,,,,,,,,,-2.9296875,-13.154296875,1,0,0,1.92327594757,,,,,2015_Nov_05_1419,G,facesParametric,51,59.6341735635,
./stim/MorphF4_09_orig.jpg,24,,,,,,,,,0,24,24,24,,,,,,,,,,,,,,,-2.9296875,-13.154296875,1,0,0,1.7915289402,,,,,2015_Nov_05_1419,G,facesParametric,51,59.6341735635,
./stim/MorphF10_02_orig.jpg,25,,,,,,,,,0,25,25,25,,,,,,,,,,,,,,,-2.9296875,-13.154296875,0,0,1,1.23879599571,,,,,2015_Nov_05_1419,G,facesParametric,51,59.6341735635,
./stim/MorphM1_06_orig.jpg,26,,,,,,,,,0,26,26,26,,,,,,,,,,,,,,,-2.9296875,-13.154296875,1,0,0,0.954359054565,,,,,2015_Nov_05_1419,G,facesParametric,51,59.6341735635,
./stim/MorphF10_04_orig.jpg,27,,,,,,,,,0,27,27,27,,,,,,,,,,,,,,,-2.9296875,-13.154296875,0,0,1,1.74134397507,,,,,2015_Nov_05_1419,G,facesParametric,51,59.6341735635,
./stim/MorphM7_09_orig.jpg,28,,,,,,,,,0,28,28,28,,,,,,,,,,,,,,,-2.9296875,-13.154296875,1,0,0,2.12565803528,,,,,2015_Nov_05_1419,G,facesParametric,51,59.6341735635,
./stim/MorphF8_09_orig.jpg,29,,,,,,,,,0,29,29,29,,,,,,,,,,,,,,,-2.9296875,-13.154296875,0,0,1,1.15343594551,,,,,2015_Nov_05_1419,G,facesParametric,51,59.6341735635,
./stim/MorphF1_03_orig.jpg,30,,,,,,,,,0,30,30,30,,,,,,,,,,,,,,,-2.9296875,-13.154296875,1,0,0,1.8590631485,,,,,2015_Nov_05_1419,G,facesParametric,51,59.6341735635,
./stim/MorphM8_07_orig.jpg,31,,,,,,,,,0,31,31,31,,,,,,,,,,,,,,,-2.9296875,-13.154296875,0,0,1,1.15453886986,,,,,2015_Nov_05_1419,G,facesParametric,51,59.6341735635,
./stim/MorphM9_08_orig.jpg,32,,,,,,,,,0,32,32,32,,,,,,,,,,,,,,,-2.9296875,-13.154296875,1,0,0,1.45721888542,,,,,2015_Nov_05_1419,G,facesParametric,51,59.6341735635,
./stim/MorphF2_04_orig.jpg,33,,,,,,,,,0,33,33,33,,,,,,,,,,,,,,,-2.9296875,-13.154296875,0,0,1,1.37210512161,,,,,2015_Nov_05_1419,G,facesParametric,51,59.6341735635,
./stim/MorphF1_10_orig.jpg,34,,,,,,,,,0,34,34,34,,,,,,,,,,,,,,,-2.9296875,-13.154296875,1,0,0,1.99284315109,,,,,2015_Nov_05_1419,G,facesParametric,51,59.6341735635,
./stim/MorphM2_08_orig.jpg,35,,,,,,,,,0,35,35,35,,,,,,,,,,,,,,,-2.9296875,-13.154296875,0,0,1,2.66184997559,,,,,2015_Nov_05_1419,G,facesParametric,51,59.6341735635,
./stim/MorphF1_02_orig.jpg,36,,,,,,,,,0,36,36,36,,,,,,,,,,,,,,,-2.9296875,-13.154296875,1,0,0,2.91504192352,,,,,2015_Nov_05_1419,G,facesParametric,51,59.6341735635,
./stim/MorphM2_04_orig.jpg,37,,,,,,,,,0,37,37,37,,,,,,,,,,,,,,,-2.9296875,-13.154296875,0,0,1,1.32277178764,,,,,2015_Nov_05_1419,G,facesParametric,51,59.6341735635,
./stim/MorphF1_06_orig.jpg,38,,,,,,,,,0,38,38,38,,,,,,,,,,,,,,,-2.9296875,-13.154296875,0,0,1,2.24459195137,,,,,2015_Nov_05_1419,G,facesParametric,51,59.6341735635,
./stim/MorphF3_02_orig.jpg,39,,,,,,,,,0,39,39,39,,,,,,,,,,,,,,,-2.9296875,-13.154296875,1,0,0,3.63546395302,,,,,2015_Nov_05_1419,G,facesParametric,51,59.6341735635,
./stim/MorphF6_07_orig.jpg,40,,,,,,,,,0,40,40,40,,,,,,,,,,,,,,,-2.9296875,-13.154296875,1,0,0,1.92473006248,,,,,2015_Nov_05_1419,G,facesParametric,51,59.6341735635,
./stim/MorphM5_00_orig.jpg,41,,,,,,,,,0,41,41,41,,,,,,,,,,,,,,,-2.9296875,-13.154296875,1,0,0,1.3733022213,,,,,2015_Nov_05_1419,G,facesParametric,51,59.6341735635,
./stim/MorphM3_05_orig.jpg,42,,,,,,,,,0,42,42,42,,,,,,,,,,,,,,,-2.9296875,-13.154296875,1,0,0,3.16642785072,,,,,2015_Nov_05_1419,G,facesParametric,51,59.6341735635,
./stim/MorphM4_08_orig.jpg,43,,,,,,,,,0,43,43,43,,,,,,,,,,,,,,,-2.9296875,-13.154296875,0,0,1,1.25573301315,,,,,2015_Nov_05_1419,G,facesParametric,51,59.6341735635,
./stim/MorphF9_03_orig.jpg,44,,,,,,,,,0,44,44,44,,,,,,,,,,,,,,,-2.9296875,-13.154296875,1,0,0,1.5405600071,,,,,2015_Nov_05_1419,G,facesParametric,51,59.6341735635,
./stim/MorphF1_07_orig.jpg,45,,,,,,,,,0,45,45,45,,,,,,,,,,,,,,,-2.9296875,-13.154296875,1,0,0,1.13679695129,,,,,2015_Nov_05_1419,G,facesParametric,51,59.6341735635,
./stim/MorphM4_00_orig.jpg,46,,,,,,,,,0,46,46,46,,,,,,,,,,,,,,,-2.9296875,-13.154296875,1,0,0,1.82585597038,,,,,2015_Nov_05_1419,G,facesParametric,51,59.6341735635,
./stim/MorphF9_07_orig.jpg,47,,,,,,,,,0,47,47,47,,,,,,,,,,,,,,,-2.9296875,-13.154296875,1,0,0,1.8415119648,,,,,2015_Nov_05_1419,G,facesParametric,51,59.6341735635,
./stim/MorphF1_05_orig.jpg,48,,,,,,,,,0,48,48,48,,,,,,,,,,,,,,,-2.9296875,-13.154296875,1,0,0,1.50754404068,,,,,2015_Nov_05_1419,G,facesParametric,51,59.6341735635,
./stim/MorphF3_09_orig.jpg,49,,,,,,,,,0,49,49,49,,,,,,,,,,,,,,,-2.9296875,-13.154296875,0,0,1,2.86488699913,,,,,2015_Nov_05_1419,G,facesParametric,51,59.6341735635,
./stim/MorphF7_01_orig.jpg,50,,,,,,,,,0,50,50,50,,,,,,,,,,,,,,,-2.9296875,-13.154296875,0,0,1,1.47116088867,,,,,2015_Nov_05_1419,G,facesParametric,51,59.6341735635,
./stim/MorphM6_05_orig.jpg,51,,,,,,,,,0,51,51,51,,,,,,,,,,,,,,,-2.9296875,-13.154296875,1,0,0,5.24577498436,,,,,2015_Nov_05_1419,G,facesParametric,51,59.6341735635,
./stim/MorphF7_02_orig.jpg,52,,,,,,,,,0,52,52,52,,,,,,,,,,,,,,,-2.9296875,-13.154296875,1,0,0,1.64036202431,,,,,2015_Nov_05_1419,G,facesParametric,51,59.6341735635,
./stim/MorphM9_03_orig.jpg,53,,,,,,,,,0,53,53,53,,,,,,,,,,,,,,,-2.9296875,-13.154296875,1,0,0,1.82440495491,,,,,2015_Nov_05_1419,G,facesParametric,51,59.6341735635,
./stim/MorphM6_08_orig.jpg,54,,,,,,,,,0,54,54,54,,,,,,,,,,,,,,,-2.9296875,-13.154296875,1,0,0,1.59130096436,,,,,2015_Nov_05_1419,G,facesParametric,51,59.6341735635,
./stim/MorphF2_00_orig.jpg,55,,,,,,,,,0,55,55,55,,,,,,,,,,,,,,,-2.9296875,-13.154296875,1,0,0,2.96475505829,,,,,2015_Nov_05_1419,G,facesParametric,51,59.6341735635,
./stim/MorphM4_01_orig.jpg,56,,,,,,,,,0,56,56,56,,,,,,,,,,,,,,,-2.9296875,-13.154296875,0,0,1,4.97617983818,,,,,2015_Nov_05_1419,G,facesParametric,51,59.6341735635,
./stim/MorphM1_04_orig.jpg,57,,,,,,,,,0,57,57,57,,,,,,,,,,,,,,,-2.9296875,-13.154296875,1,0,0,1.47350788116,,,,,2015_Nov_05_1419,G,facesParametric,51,59.6341735635,
./stim/MorphM7_03_orig.jpg,58,,,,,,,,,0,58,58,58,,,,,,,,,,,,,,,-2.9296875,-13.154296875,0,0,1,1.43995714188,,,,,2015_Nov_05_1419,G,facesParametric,51,59.6341735635,
./stim/MorphF5_10_orig.jpg,59,,,,,,,,,0,59,59,59,,,,,,,,,,,,,,,-2.9296875,-13.154296875,1,0,0,2.44550800323,,,,,2015_Nov_05_1419,G,facesParametric,51,59.6341735635,
./stim/MorphF1_09_orig.jpg,60,,,,,,,,,0,60,60,60,,,,,,,,,,,,,,,-2.9296875,-13.154296875,1,0,0,2.02698016167,,,,,2015_Nov_05_1419,G,facesParametric,51,59.6341735635,
./stim/MorphF2_03_orig.jpg,61,,,,,,,,,0,61,61,61,,,,,,,,,,,,,,,-2.9296875,-13.154296875,0,0,1,2.96488881111,,,,,2015_Nov_05_1419,G,facesParametric,51,59.6341735635,
./stim/MorphF9_06_orig.jpg,62,,,,,,,,,0,62,62,62,,,,,,,,,,,,,,,-2.9296875,-13.154296875,1,0,0,2.94770908356,,,,,2015_Nov_05_1419,G,facesParametric,51,59.6341735635,
./stim/MorphM4_03_orig.jpg,63,,,,,,,,,0,63,63,63,,,,,,,,,,,,,,,-2.9296875,-13.154296875,0,0,1,2.99902892113,,,,,2015_Nov_05_1419,G,facesParametric,51,59.6341735635,
./stim/MorphM7_08_orig.jpg,64,,,,,,,,,0,64,64,64,,,,,,,,,,,,,,,-2.9296875,-13.154296875,1,0,0,3.53483700752,,,,,2015_Nov_05_1419,G,facesParametric,51,59.6341735635,
./stim/MorphM9_04_orig.jpg,65,,,,,,,,,0,65,65,65,,,,,,,,,,,,,,,-2.9296875,-13.154296875,0,0,1,1.80846500397,,,,,2015_Nov_05_1419,G,facesParametric,51,59.6341735635,
./stim/MorphM4_09_orig.jpg,66,,,,,,,,,0,66,66,66,,,,,,,,,,,,,,,-2.9296875,-13.154296875,1,0,0,5.02597403526,,,,,2015_Nov_05_1419,G,facesParametric,51,59.6341735635,
./stim/MorphM1_00_orig.jpg,67,,,,,,,,,0,67,67,67,,,,,,,,,,,,,,,-2.9296875,-13.154296875,0,0,1,1.65720200539,,,,,2015_Nov_05_1419,G,facesParametric,51,59.6341735635,
./stim/MorphM6_04_orig.jpg,68,,,,,,,,,0,68,68,68,,,,,,,,,,,,,,,-2.9296875,-13.154296875,0,0,1,3.83704805374,,,,,2015_Nov_05_1419,G,facesParametric,51,59.6341735635,
./stim/MorphM10_08_orig.jpg,69,,,,,,,,,0,69,69,69,,,,,,,,,,,,,,,-2.9296875,-13.154296875,1,0,0,3.08192396164,,,,,2015_Nov_05_1419,G,facesParametric,51,59.6341735635,
./stim/MorphM1_01_orig.jpg,70,,,,,,,,,0,70,70,70,,,,,,,,,,,,,,,-2.9296875,-13.154296875,0,0,1,1.33945894241,,,,,2015_Nov_05_1419,G,facesParametric,51,59.6341735635,
./stim/MorphM6_07_orig.jpg,71,,,,,,,,,0,71,71,71,,,,,,,,,,,,,,,-2.9296875,-13.154296875,0,0,1,3.28360104561,,,,,2015_Nov_05_1419,G,facesParametric,51,59.6341735635,
./stim/MorphF2_08_orig.jpg,72,,,,,,,,,0,72,72,72,,,,,,,,,,,,,,,-2.9296875,-13.154296875,1,0,0,1.20549798012,,,,,2015_Nov_05_1419,G,facesParametric,51,59.6341735635,
./stim/MorphF5_00_orig.jpg,73,,,,,,,,,0,73,73,73,,,,,,,,,,,,,,,-2.9296875,-13.154296875,1,0,0,1.82587099075,,,,,2015_Nov_05_1419,G,facesParametric,51,59.6341735635,
./stim/MorphM8_04_orig.jpg,74,,,,,,,,,0,74,74,74,,,,,,,,,,,,,,,-2.9296875,-13.154296875,1,0,0,2.22570896149,,,,,2015_Nov_05_1419,G,facesParametric,51,59.6341735635,
./stim/MorphM3_04_orig.jpg,75,,,,,,,,,0,75,75,75,,,,,,,,,,,,,,,-2.9296875,-13.154296875,0,0,1,4.67467498779,,,,,2015_Nov_05_1419,G,facesParametric,51,59.6341735635,
./stim/MorphF7_03_orig.jpg,76,,,,,,,,,0,76,76,76,,,,,,,,,,,,,,,-2.9296875,-13.154296875,1,0,0,2.31163096428,,,,,2015_Nov_05_1419,G,facesParametric,51,59.6341735635,
./stim/MorphM2_10_orig.jpg,77,,,,,,,,,0,77,77,77,,,,,,,,,,,,,,,-2.9296875,-13.154296875,0,0,1,1.69189190865,,,,,2015_Nov_05_1419,G,facesParametric,51,59.6341735635,
./stim/MorphM6_09_orig.jpg,78,,,,,,,,,0,78,78,78,,,,,,,,,,,,,,,-2.9296875,-13.154296875,1,0,0,1.25505304337,,,,,2015_Nov_05_1419,G,facesParametric,51,59.6341735635,
./stim/MorphM3_10_orig.jpg,79,,,,,,,,,0,79,79,79,,,,,,,,,,,,,,,-2.9296875,-13.154296875,0,0,1,4.5240240097,,,,,2015_Nov_05_1419,G,facesParametric,51,59.6341735635,
./stim/MorphF9_05_orig.jpg,80,,,,,,,,,0,80,80,80,,,,,,,,,,,,,,,-2.9296875,-13.154296875,1,0,0,1.50546789169,,,,,2015_Nov_05_1419,G,facesParametric,51,59.6341735635,
./stim/MorphF1_00_orig.jpg,81,,,,,,,,,0,81,81,81,,,,,,,,,,,,,,,-2.9296875,-13.154296875,0,0,1,2.24335002899,,,,,2015_Nov_05_1419,G,facesParametric,51,59.6341735635,
./stim/MorphM10_07_orig.jpg,82,,,,,,,,,0,82,82,82,,,,,,,,,,,,,,,-2.9296875,-13.154296875,1,0,0,2.37765002251,,,,,2015_Nov_05_1419,G,facesParametric,51,59.6341735635,
./stim/MorphF3_10_orig.jpg,83,,,,,,,,,0,83,83,83,,,,,,,,,,,,,,,-2.9296875,-13.154296875,0,0,1,2.73044991493,,,,,2015_Nov_05_1419,G,facesParametric,51,59.6341735635,
./stim/MorphM3_03_orig.jpg,84,,,,,,,,,0,84,84,84,,,,,,,,,,,,,,,-2.9296875,-13.154296875,1,0,0,2.73098683357,,,,,2015_Nov_05_1419,G,facesParametric,51,59.6341735635,
./stim/MorphM2_05_orig.jpg,85,,,,,,,,,0,85,85,85,,,,,,,,,,,,,,,-2.9296875,-13.154296875,0,0,1,3.31675195694,,,,,2015_Nov_05_1419,G,facesParametric,51,59.6341735635,
./stim/MorphF9_02_orig.jpg,86,,,,,,,,,0,86,86,86,,,,,,,,,,,,,,,-2.9296875,-13.154296875,1,0,0,2.88156604767,,,,,2015_Nov_05_1419,G,facesParametric,51,59.6341735635,
./stim/MorphM1_02_orig.jpg,87,,,,,,,,,0,87,87,87,,,,,,,,,,,,,,,-2.9296875,-13.154296875,1,0,0,4.01948404312,,,,,2015_Nov_05_1419,G,facesParametric,51,59.6341735635,
./stim/MorphM6_10_orig.jpg,88,,,,,,,,,0,88,88,88,,,,,,,,,,,,,,,-2.9296875,-13.154296875,1,0,0,1.20538115501,,,,,2015_Nov_05_1419,G,facesParametric,51,59.6341735635,
./stim/MorphF5_05_orig.jpg,89,,,,,,,,,0,89,89,89,,,,,,,,,,,,,,,-2.9296875,-13.154296875,1,0,0,1.18780422211,,,,,2015_Nov_05_1419,G,facesParametric,51,59.6341735635,
./stim/MorphM3_09_orig.jpg,90,,,,,,,,,0,90,90,90,,,,,,,,,,,,,,,-2.9296875,-13.154296875,0,0,1,1.25356602669,,,,,2015_Nov_05_1419,G,facesParametric,51,59.6341735635,
./stim/MorphF7_07_orig.jpg,91,,,,,,,,,0,91,91,91,,,,,,,,,,,,,,,-2.9296875,-13.154296875,0,0,1,1.22194600105,,,,,2015_Nov_05_1419,G,facesParametric,51,59.6341735635,
./stim/MorphM2_07_orig.jpg,92,,,,,,,,,0,92,92,92,,,,,,,,,,,,,,,-2.9296875,-13.154296875,1,0,0,1.00490808487,,,,,2015_Nov_05_1419,G,facesParametric,51,59.6341735635,
./stim/MorphF1_04_orig.jpg,93,,,,,,,,,0,93,93,93,,,,,,,,,,,,,,,-2.9296875,-13.154296875,1,0,0,1.52297186852,,,,,2015_Nov_05_1419,G,facesParametric,51,59.6341735635,
./stim/MorphF9_08_orig.jpg,94,,,,,,,,,0,94,94,94,,,,,,,,,,,,,,,-2.9296875,-13.154296875,1,0,0,1.00398612022,,,,,2015_Nov_05_1419,G,facesParametric,51,59.6341735635,
./stim/MorphF4_05_orig.jpg,95,,,,,,,,,0,95,95,95,,,,,,,,,,,,,,,-2.9296875,-13.154296875,1,0,0,2.2777929306,,,,,2015_Nov_05_1419,G,facesParametric,51,59.6341735635,
./stim/MorphM9_06_orig.jpg,96,,,,,,,,,0,96,96,96,,,,,,,,,,,,,,,-2.9296875,-13.154296875,1,0,0,1.90929794312,,,,,2015_Nov_05_1419,G,facesParametric,51,59.6341735635,
./stim/MorphF6_08_orig.jpg,97,,,,,,,,,0,97,97,97,,,,,,,,,,,,,,,-2.9296875,-13.154296875,0,0,1,1.84254384041,,,,,2015_Nov_05_1419,G,facesParametric,51,59.6341735635,
./stim/MorphM7_02_orig.jpg,98,,,,,,,,,0,98,98,98,,,,,,,,,,,,,,,-2.9296875,-13.154296875,0,0,1,1.11914896965,,,,,2015_Nov_05_1419,G,facesParametric,51,59.6341735635,
./stim/MorphM5_05_orig.jpg,99,,,,,,,,,0,99,99,99,,,,,,,,,,,,,,,-2.9296875,-13.154296875,1,0,0,0.870038032532,,,,,2015_Nov_05_1419,G,facesParametric,51,59.6341735635,
./stim/MorphM7_07_orig.jpg,100,,,,,,,,,0,100,100,100,,,,,,,,,,,,,,,-2.9296875,-13.154296875,0,0,1,1.35626006126,,,,,2015_Nov_05_1419,G,facesParametric,51,59.6341735635,
./stim/MorphM10_06_orig.jpg,101,,,,,,,,,0,101,101,101,,,,,,,,,,,,,,,-2.9296875,-13.154296875,0,0,1,1.8087580204,,,,,2015_Nov_05_1419,G,facesParametric,51,59.6341735635,
./stim/MorphF8_02_orig.jpg,102,,,,,,,,,0,102,102,102,,,,,,,,,,,,,,,-2.9296875,-13.154296875,0,0,1,0.987498044968,,,,,2015_Nov_05_1419,G,facesParametric,51,59.6341735635,
./stim/MorphF7_10_orig.jpg,103,,,,,,,,,0,103,103,103,,,,,,,,,,,,,,,-2.9296875,-13.154296875,0,0,1,1.1714348793,,,,,2015_Nov_05_1419,G,facesParametric,51,59.6341735635,
./stim/MorphM10_09_orig.jpg,104,,,,,,,,,0,104,104,104,,,,,,,,,,,,,,,-2.9296875,-13.154296875,0,0,1,0.836697101593,,,,,2015_Nov_05_1419,G,facesParametric,51,59.6341735635,
./stim/MorphF9_10_orig.jpg,105,,,,,,,,,0,105,105,105,,,,,,,,,,,,,,,-2.9296875,-13.154296875,1,0,0,0.819684028625,,,,,2015_Nov_05_1419,G,facesParametric,51,59.6341735635,
./stim/MorphF7_05_orig.jpg,106,,,,,,,,,0,106,106,106,,,,,,,,,,,,,,,-2.9296875,-13.154296875,0,0,1,1.10337114334,,,,,2015_Nov_05_1419,G,facesParametric,51,59.6341735635,
./stim/MorphM2_02_orig.jpg,107,,,,,,,,,0,107,107,107,,,,,,,,,,,,,,,-2.9296875,-13.154296875,0,0,1,1.18837785721,,,,,2015_Nov_05_1419,G,facesParametric,51,59.6341735635,
./stim/MorphF8_03_orig.jpg,108,,,,,,,,,0,108,108,108,,,,,,,,,,,,,,,-2.9296875,-13.154296875,0,0,1,1.99230694771,,,,,2015_Nov_05_1419,G,facesParametric,51,59.6341735635,
./stim/MorphM5_10_orig.jpg,109,,,,,,,,,0,109,109,109,,,,,,,,,,,,,,,-2.9296875,-13.154296875,1,0,0,0.937211036682,,,,,2015_Nov_05_1419,G,facesParametric,51,59.6341735635,
./stim/MorphM8_01_orig.jpg,110,,,,,,,,,0,110,110,110,,,,,,,,,,,,,,,-2.9296875,-13.154296875,0,0,1,0.953790903091,,,,,2015_Nov_05_1419,G,facesParametric,51,59.6341735635,
./stim/MorphF4_08_orig.jpg,111,,,,,,,,,0,111,111,111,,,,,,,,,,,,,,,-2.9296875,-13.154296875,1,0,0,0.918792963028,,,,,2015_Nov_05_1419,G,facesParametric,51,59.6341735635,
./stim/MorphF5_04_orig.jpg,112,,,,,,,,,0,112,112,112,,,,,,,,,,,,,,,-2.9296875,-13.154296875,1,0,0,1.15534806252,,,,,2015_Nov_05_1419,G,facesParametric,51,59.6341735635,
./stim/MorphM5_07_orig.jpg,113,,,,,,,,,0,113,113,113,,,,,,,,,,,,,,,-2.9296875,-13.154296875,1,0,0,1.289083004,,,,,2015_Nov_05_1419,G,facesParametric,51,59.6341735635,
./stim/MorphM3_01_orig.jpg,114,,,,,,,,,0,114,114,114,,,,,,,,,,,,,,,-2.9296875,-13.154296875,0,0,1,0.920800924301,,,,,2015_Nov_05_1419,G,facesParametric,51,59.6341735635,
./stim/MorphM2_03_orig.jpg,115,,,,,,,,,0,115,115,115,,,,,,,,,,,,,,,-2.9296875,-13.154296875,0,0,1,1.42329502106,,,,,2015_Nov_05_1419,G,facesParametric,51,59.6341735635,
./stim/MorphM9_07_orig.jpg,116,,,,,,,,,0,116,116,116,,,,,,,,,,,,,,,-2.9296875,-13.154296875,1,0,0,1.18846011162,,,,,2015_Nov_05_1419,G,facesParametric,51,59.6341735635,
./stim/MorphM2_00_orig.jpg,117,,,,,,,,,0,117,117,117,,,,,,,,,,,,,,,-2.9296875,-13.154296875,0,0,1,1.12188506126,,,,,2015_Nov_05_1419,G,facesParametric,51,59.6341735635,
./stim/MorphF8_08_orig.jpg,118,,,,,,,,,0,118,118,118,,,,,,,,,,,,,,,-2.9296875,-13.154296875,0,0,1,1.62207102776,,,,,2015_Nov_05_1419,G,facesParametric,51,59.6341735635,
./stim/MorphF2_01_orig.jpg,119,,,,,,,,,0,119,119,119,,,,,,,,,,,,,,,-2.9296875,-13.154296875,1,0,0,1.44035291672,,,,,2015_Nov_05_1419,G,facesParametric,51,59.6341735635,
./stim/MorphM8_10_orig.jpg,120,,,,,,,,,0,120,120,120,,,,,,,,,,,,,,,-2.9296875,-13.154296875,1,0,0,1.80889606476,,,,,2015_Nov_05_1419,G,facesParametric,51,59.6341735635,
./stim/MorphF5_02_orig.jpg,121,,,,,,,,,0,121,121,121,,,,,,,,,,,,,,,-2.9296875,-13.154296875,1,0,0,1.18883895874,,,,,2015_Nov_05_1419,G,facesParametric,51,59.6341735635,
./stim/MorphF4_00_orig.jpg,122,,,,,,,,,0,122,122,122,,,,,,,,,,,,,,,-2.9296875,-13.154296875,1,0,0,1.28906798363,,,,,2015_Nov_05_1419,G,facesParametric,51,59.6341735635,
./stim/MorphF8_07_orig.jpg,123,,,,,,,,,0,123,123,123,,,,,,,,,,,,,,,-2.9296875,-13.154296875,0,0,1,1.37270498276,,,,,2015_Nov_05_1419,G,facesParametric,51,59.6341735635,
./stim/MorphF3_01_orig.jpg,124,,,,,,,,,0,124,124,124,,,,,,,,,,,,,,,-2.9296875,-13.154296875,1,0,0,1.12088799477,,,,,2015_Nov_05_1419,G,facesParametric,51,59.6341735635,
./stim/MorphM5_01_orig.jpg,125,,,,,,,,,0,125,125,125,,,,,,,,,,,,,,,-2.9296875,-13.154296875,1,0,0,1.57371592522,,,,,2015_Nov_05_1419,G,facesParametric,51,59.6341735635,
./stim/MorphF6_00_orig.jpg,126,,,,,,,,,0,126,126,126,,,,,,,,,,,,,,,-2.9296875,-13.154296875,0,0,1,1.07176208496,,,,,2015_Nov_05_1419,G,facesParametric,51,59.6341735635,
./stim/MorphM8_03_orig.jpg,127,,,,,,,,,0,127,127,127,,,,,,,,,,,,,,,-2.9296875,-13.154296875,1,0,0,1.54054808617,,,,,2015_Nov_05_1419,G,facesParametric,51,59.6341735635,
./stim/MorphF8_06_orig.jpg,128,,,,,,,,,0,128,128,128,,,,,,,,,,,,,,,-2.9296875,-13.154296875,0,0,1,0.870364189148,,,,,2015_Nov_05_1419,G,facesParametric,51,59.6341735635,
./stim/MorphM1_05_orig.jpg,129,,,,,,,,,0,129,129,129,,,,,,,,,,,,,,,-2.9296875,-13.154296875,1,0,0,3.33238387108,,,,,2015_Nov_05_1419,G,facesParametric,51,59.6341735635,
./stim/MorphM6_00_orig.jpg,130,,,,,,,,,0,130,130,130,,,,,,,,,,,,,,,-2.9296875,-13.154296875,0,0,1,1.3890581131,,,,,2015_Nov_05_1419,G,facesParametric,51,59.6341735635,
./stim/MorphM10_02_orig.jpg,131,,,,,,,,,0,131,131,131,,,,,,,,,,,,,,,-2.9296875,-13.154296875,1,0,0,1.9258852005,,,,,2015_Nov_05_1419,G,facesParametric,51,59.6341735635,
./stim/MorphF8_05_orig.jpg,132,,,,,,,,,0,132,132,132,,,,,,,,,,,,,,,-2.9296875,-13.154296875,0,0,1,1.10496711731,,,,,2015_Nov_05_1419,G,facesParametric,51,59.6341735635,
./stim/MorphM2_09_orig.jpg,133,,,,,,,,,0,133,133,133,,,,,,,,,,,,,,,-2.9296875,-13.154296875,1,0,0,1.38865399361,,,,,2015_Nov_05_1419,G,facesParametric,51,59.6341735635,
./stim/MorphF8_10_orig.jpg,134,,,,,,,,,0,134,134,134,,,,,,,,,,,,,,,-2.9296875,-13.154296875,0,0,1,2.19412517548,,,,,2015_Nov_05_1419,G,facesParametric,51,59.6341735635,
./stim/MorphM8_02_orig.jpg,135,,,,,,,,,0,135,135,135,,,,,,,,,,,,,,,-2.9296875,-13.154296875,0,0,1,0.836817026138,,,,,2015_Nov_05_1419,G,facesParametric,51,59.6341735635,
./stim/MorphF10_07_orig.jpg,136,,,,,,,,,0,136,136,136,,,,,,,,,,,,,,,-2.9296875,-13.154296875,0,0,1,0.651051998138,,,,,2015_Nov_05_1419,G,facesParametric,51,59.6341735635,
./stim/MorphM8_08_orig.jpg,137,,,,,,,,,0,137,137,137,,,,,,,,,,,,,,,-2.9296875,-13.154296875,1,0,0,0.786052942276,,,,,2015_Nov_05_1419,G,facesParametric,51,59.6341735635,
./stim/MorphF9_04_orig.jpg,138,,,,,,,,,0,138,138,138,,,,,,,,,,,,,,,-2.9296875,-13.154296875,0,0,1,0.819934129715,,,,,2015_Nov_05_1419,G,facesParametric,51,59.6341735635,
./stim/MorphF6_10_orig.jpg,139,,,,,,,,,0,139,139,139,,,,,,,,,,,,,,,-2.9296875,-13.154296875,1,0,0,0.952815055847,,,,,2015_Nov_05_1419,G,facesParametric,51,59.6341735635,
./stim/MorphF2_09_orig.jpg,140,,,,,,,,,0,140,140,140,,,,,,,,,,,,,,,-2.9296875,-13.154296875,1,0,0,2.09367895126,,,,,2015_Nov_05_1419,G,facesParametric,51,59.6341735635,
./stim/MorphM4_10_orig.jpg,141,,,,,,,,,0,141,141,141,,,,,,,,,,,,,,,-2.9296875,-13.154296875,1,0,0,1.1387360096,,,,,2015_Nov_05_1419,G,facesParametric,51,59.6341735635,
./stim/MorphF10_08_orig.jpg,142,,,,,,,,,0,142,142,142,,,,,,,,,,,,,,,-2.9296875,-13.154296875,0,0,1,0.903810024261,,,,,2015_Nov_05_1419,G,facesParametric,51,59.6341735635,
./stim/MorphF9_01_orig.jpg,143,,,,,,,,,0,143,143,143,,,,,,,,,,,,,,,-2.9296875,-13.154296875,0,0,1,1.15524697304,,,,,2015_Nov_05_1419,G,facesParametric,51,59.6341735635,
./stim/MorphF4_10_orig.jpg,144,,,,,,,,,0,144,144,144,,,,,,,,,,,,,,,-2.9296875,-13.154296875,1,0,0,0.886678934097,,,,,2015_Nov_05_1419,G,facesParametric,51,59.6341735635,
./stim/MorphF2_10_orig.jpg,145,,,,,,,,,0,145,145,145,,,,,,,,,,,,,,,-2.9296875,-13.154296875,0,0,1,1.44041800499,,,,,2015_Nov_05_1419,G,facesParametric,51,59.6341735635,
./stim/MorphM1_08_orig.jpg,146,,,,,,,,,0,146,146,146,,,,,,,,,,,,,,,-2.9296875,-13.154296875,1,0,0,1.97576713562,,,,,2015_Nov_05_1419,G,facesParametric,51,59.6341735635,
./stim/MorphF7_00_orig.jpg,147,,,,,,,,,0,147,147,147,,,,,,,,,,,,,,,-2.9296875,-13.154296875,0,0,1,1.23868489265,,,,,2015_Nov_05_1419,G,facesParametric,51,59.6341735635,
./stim/MorphM4_06_orig.jpg,148,,,,,,,,,0,148,148,148,,,,,,,,,,,,,,,-2.9296875,-13.154296875,1,0,0,1.725055933,,,,,2015_Nov_05_1419,G,facesParametric,51,59.6341735635,
./stim/MorphF10_03_orig.jpg,149,,,,,,,,,0,149,149,149,,,,,,,,,,,,,,,-2.9296875,-13.154296875,0,0,1,1.01953101158,,,,,2015_Nov_05_1419,G,facesParametric,51,59.6341735635,
./stim/MorphM5_06_orig.jpg,150,,,,,,,,,0,150,150,150,,,,,,,,,,,,,,,-2.9296875,-13.154296875,1,0,0,1.64233779907,,,,,2015_Nov_05_1419,G,facesParametric,51,59.6341735635,
./stim/MorphF8_01_orig.jpg,151,,,,,,,,,0,151,151,151,,,,,,,,,,,,,,,-2.9296875,-13.154296875,0,0,1,0.919711828232,,,,,2015_Nov_05_1419,G,facesParametric,51,59.6341735635,
./stim/MorphF10_01_orig.jpg,152,,,,,,,,,0,152,152,152,,,,,,,,,,,,,,,-2.9296875,-13.154296875,1,0,0,1.05488586426,,,,,2015_Nov_05_1419,G,facesParametric,51,59.6341735635,
./stim/MorphF5_08_orig.jpg,153,,,,,,,,,0,153,153,153,,,,,,,,,,,,,,,-2.9296875,-13.154296875,0,0,1,2.46083188057,,,,,2015_Nov_05_1419,G,facesParametric,51,59.6341735635,
./stim/MorphM9_10_orig.jpg,154,,,,,,,,,0,154,154,154,,,,,,,,,,,,,,,-2.9296875,-13.154296875,1,0,0,1.02195096016,,,,,2015_Nov_05_1419,G,facesParametric,51,59.6341735635,
./stim/MorphM5_04_orig.jpg,155,,,,,,,,,0,155,155,155,,,,,,,,,,,,,,,-2.9296875,-13.154296875,1,0,0,1.7906908989,,,,,2015_Nov_05_1419,G,facesParametric,51,59.6341735635,
./stim/MorphF6_03_orig.jpg,156,,,,,,,,,0,156,156,156,,,,,,,,,,,,,,,-2.9296875,-13.154296875,0,0,1,1.15509915352,,,,,2015_Nov_05_1419,G,facesParametric,51,59.6341735635,
./stim/MorphM6_06_orig.jpg,157,,,,,,,,,0,157,157,157,,,,,,,,,,,,,,,-2.9296875,-13.154296875,1,0,0,1.15532803535,,,,,2015_Nov_05_1419,G,facesParametric,51,59.6341735635,
./stim/MorphF9_09_orig.jpg,158,,,,,,,,,0,158,158,158,,,,,,,,,,,,,,,-2.9296875,-13.154296875,1,0,0,1.03727698326,,,,,2015_Nov_05_1419,G,facesParametric,51,59.6341735635,
./stim/MorphF3_05_orig.jpg,159,,,,,,,,,0,159,159,159,,,,,,,,,,,,,,,-2.9296875,-13.154296875,1,0,0,1.92616200447,,,,,2015_Nov_05_1419,G,facesParametric,51,59.6341735635,
./stim/MorphM4_07_orig.jpg,160,,,,,,,,,0,160,160,160,,,,,,,,,,,,,,,-2.9296875,-13.154296875,1,0,0,2.00996112823,,,,,2015_Nov_05_1419,G,facesParametric,51,59.6341735635,
./stim/MorphF5_01_orig.jpg,161,,,,,,,,,0,161,161,161,,,,,,,,,,,,,,,-2.9296875,-13.154296875,1,0,0,1.55529999733,,,,,2015_Nov_05_1419,G,facesParametric,51,59.6341735635,
./stim/MorphF2_06_orig.jpg,162,,,,,,,,,0,162,162,162,,,,,,,,,,,,,,,-2.9296875,-13.154296875,0,0,1,1.25428104401,,,,,2015_Nov_05_1419,G,facesParametric,51,59.6341735635,
./stim/MorphF4_07_orig.jpg,163,,,,,,,,,0,163,163,163,,,,,,,,,,,,,,,-2.9296875,-13.154296875,1,0,0,1.33761715889,,,,,2015_Nov_05_1419,G,facesParametric,51,59.6341735635,
./stim/MorphF1_01_orig.jpg,164,,,,,,,,,0,164,164,164,,,,,,,,,,,,,,,-2.9296875,-13.154296875,1,0,0,2.24434709549,,,,,2015_Nov_05_1419,G,facesParametric,51,59.6341735635,
./stim/MorphF2_02_orig.jpg,165,,,,,,,,,0,165,165,165,,,,,,,,,,,,,,,-2.9296875,-13.154296875,1,0,0,1.22290492058,,,,,2015_Nov_05_1419,G,facesParametric,51,59.6341735635,
./stim/MorphM2_06_orig.jpg,166,,,,,,,,,0,166,166,166,,,,,,,,,,,,,,,-2.9296875,-13.154296875,1,0,0,2.16036009789,,,,,2015_Nov_05_1419,G,facesParametric,51,59.6341735635,
./stim/MorphM4_05_orig.jpg,167,,,,,,,,,0,167,167,167,,,,,,,,,,,,,,,-2.9296875,-13.154296875,1,0,0,0.985796928406,,,,,2015_Nov_05_1419,G,facesParametric,51,59.6341735635,
./stim/MorphM9_05_orig.jpg,168,,,,,,,,,0,168,168,168,,,,,,,,,,,,,,,-2.9296875,-13.154296875,1,0,0,1.69100880623,,,,,2015_Nov_05_1419,G,facesParametric,51,59.6341735635,
./stim/MorphM2_01_orig.jpg,169,,,,,,,,,0,169,169,169,,,,,,,,,,,,,,,-2.9296875,-13.154296875,0,0,1,0.903841018677,,,,,2015_Nov_05_1419,G,facesParametric,51,59.6341735635,
./stim/MorphM5_08_orig.jpg,170,,,,,,,,,0,170,170,170,,,,,,,,,,,,,,,-2.9296875,-13.154296875,1,0,0,0.769559144974,,,,,2015_Nov_05_1419,G,facesParametric,51,59.6341735635,
./stim/MorphM4_04_orig.jpg,171,,,,,,,,,0,171,171,171,,,,,,,,,,,,,,,-2.9296875,-13.154296875,1,0,0,1.17217493057,,,,,2015_Nov_05_1419,G,facesParametric,51,59.6341735635,
./stim/MorphF6_02_orig.jpg,172,,,,,,,,,0,172,172,172,,,,,,,,,,,,,,,-2.9296875,-13.154296875,0,0,1,1.12102913857,,,,,2015_Nov_05_1419,G,facesParametric,51,59.6341735635,
./stim/MorphM9_01_orig.jpg,173,,,,,,,,,0,173,173,173,,,,,,,,,,,,,,,-2.9296875,-13.154296875,1,0,0,0.937043905258,,,,,2015_Nov_05_1419,G,facesParametric,51,59.6341735635,
./stim/MorphM8_06_orig.jpg,174,,,,,,,,,0,174,174,174,,,,,,,,,,,,,,,-2.9296875,-13.154296875,1,0,0,1.35494995117,,,,,2015_Nov_05_1419,G,facesParametric,51,59.6341735635,
./stim/MorphM5_09_orig.jpg,175,,,,,,,,,0,175,175,175,,,,,,,,,,,,,,,-2.9296875,-13.154296875,1,0,0,1.3394548893,,,,,2015_Nov_05_1419,G,facesParametric,51,59.6341735635,
./stim/MorphF6_06_orig.jpg,176,,,,,,,,,0,176,176,176,,,,,,,,,,,,,,,-2.9296875,-13.154296875,1,0,0,1.75823092461,,,,,2015_Nov_05_1419,G,facesParametric,51,59.6341735635,
./stim/MorphM7_05_orig.jpg,177,,,,,,,,,0,177,177,177,,,,,,,,,,,,,,,-2.9296875,-13.154296875,1,0,0,0.971480131149,,,,,2015_Nov_05_1419,G,facesParametric,51,59.6341735635,
./stim/MorphF7_04_orig.jpg,178,,,,,,,,,0,178,178,178,,,,,,,,,,,,,,,-2.9296875,-13.154296875,0,0,1,0.954502105713,,,,,2015_Nov_05_1419,G,facesParametric,51,59.6341735635,
./stim/MorphF10_00_orig.jpg,179,,,,,,,,,0,179,179,179,,,,,,,,,,,,,,,-2.9296875,-13.154296875,0,0,1,0.885694026947,,,,,2015_Nov_05_1419,G,facesParametric,51,59.6341735635,
./stim/MorphF5_06_orig.jpg,180,,,,,,,,,0,180,180,180,,,,,,,,,,,,,,,-2.9296875,-13.154296875,1,0,0,0.971158027649,,,,,2015_Nov_05_1419,G,facesParametric,51,59.6341735635,
./stim/MorphM10_10_orig.jpg,181,,,,,,,,,0,181,181,181,,,,,,,,,,,,,,,-2.9296875,-13.154296875,0,0,1,1.15493607521,,,,,2015_Nov_05_1419,G,facesParametric,51,59.6341735635,
./stim/MorphM3_02_orig.jpg,182,,,,,,,,,0,182,182,182,,,,,,,,,,,,,,,-2.9296875,-13.154296875,0,0,1,1.27199983597,,,,,2015_Nov_05_1419,G,facesParametric,51,59.6341735635,
./stim/MorphF4_06_orig.jpg,183,,,,,,,,,0,183,183,183,,,,,,,,,,,,,,,-2.9296875,-13.154296875,1,0,0,0.836443185806,,,,,2015_Nov_05_1419,G,facesParametric,51,59.6341735635,
./stim/MorphM7_06_orig.jpg,184,,,,,,,,,0,184,184,184,,,,,,,,,,,,,,,-2.9296875,-13.154296875,1,0,0,1.43882107735,,,,,2015_Nov_05_1419,G,facesParametric,51,59.6341735635,
./stim/MorphM1_10_orig.jpg,185,,,,,,,,,0,185,185,185,,,,,,,,,,,,,,,-2.9296875,-13.154296875,1,0,0,1.05405116081,,,,,2015_Nov_05_1419,G,facesParametric,51,59.6341735635,
./stim/MorphF3_08_orig.jpg,186,,,,,,,,,0,186,186,186,,,,,,,,,,,,,,,-2.9296875,-13.154296875,1,0,0,1.59120512009,,,,,2015_Nov_05_1419,G,facesParametric,51,59.6341735635,
./stim/MorphF7_08_orig.jpg,187,,,,,,,,,0,187,187,187,,,,,,,,,,,,,,,-2.9296875,-13.154296875,0,0,1,0.885963201523,,,,,2015_Nov_05_1419,G,facesParametric,51,59.6341735635,
./stim/MorphM3_06_orig.jpg,188,,,,,,,,,0,188,188,188,,,,,,,,,,,,,,,-2.9296875,-13.154296875,0,0,1,1.58931708336,,,,,2015_Nov_05_1419,G,facesParametric,51,59.6341735635,
./stim/MorphF3_06_orig.jpg,189,,,,,,,,,0,189,189,189,,,,,,,,,,,,,,,-2.9296875,-13.154296875,1,0,0,0.835685968399,,,,,2015_Nov_05_1419,G,facesParametric,51,59.6341735635,
./stim/MorphM5_02_orig.jpg,190,,,,,,,,,0,190,190,190,,,,,,,,,,,,,,,-2.9296875,-13.154296875,0,0,1,1.222042799,,,,,2015_Nov_05_1419,G,facesParametric,51,59.6341735635,
./stim/MorphM8_09_orig.jpg,191,,,,,,,,,0,191,191,191,,,,,,,,,,,,,,,-2.9296875,-13.154296875,1,0,0,1.32249903679,,,,,2015_Nov_05_1419,G,facesParametric,51,59.6341735635,
./stim/MorphM9_09_orig.jpg,192,,,,,,,,,0,192,192,192,,,,,,,,,,,,,,,-2.9296875,-13.154296875,0,0,1,0.987580060959,,,,,2015_Nov_05_1419,G,facesParametric,51,59.6341735635,
./stim/MorphF8_04_orig.jpg,193,,,,,,,,,0,193,193,193,,,,,,,,,,,,,,,-2.9296875,-13.154296875,0,0,1,1.27266001701,,,,,2015_Nov_05_1419,G,facesParametric,51,59.6341735635,
./stim/MorphM9_00_orig.jpg,194,,,,,,,,,0,194,194,194,,,,,,,,,,,,,,,-2.9296875,-13.154296875,0,0,1,1.10313200951,,,,,2015_Nov_05_1419,G,facesParametric,51,59.6341735635,
./stim/MorphF3_04_orig.jpg,195,,,,,,,,,0,195,195,195,,,,,,,,,,,,,,,-2.9296875,-13.154296875,1,0,0,1.00455498695,,,,,2015_Nov_05_1419,G,facesParametric,51,59.6341735635,
./stim/MorphM9_02_orig.jpg,196,,,,,,,,,0,196,196,196,,,,,,,,,,,,,,,-2.9296875,-13.154296875,0,0,1,1.35462403297,,,,,2015_Nov_05_1419,G,facesParametric,51,59.6341735635,
./stim/MorphF5_09_orig.jpg,197,,,,,,,,,0,197,197,197,,,,,,,,,,,,,,,-2.9296875,-13.154296875,1,0,0,1.72514605522,,,,,2015_Nov_05_1419,G,facesParametric,51,59.6341735635,
./stim/MorphF10_09_orig.jpg,198,,,,,,,,,0,198,198,198,,,,,,,,,,,,,,,-2.9296875,-13.154296875,0,0,1,1.64078903198,,,,,2015_Nov_05_1419,G,facesParametric,51,59.6341735635,
./stim/MorphM5_03_orig.jpg,199,,,,,,,,,0,199,199,199,,,,,,,,,,,,,,,-2.9296875,-13.154296875,1,0,0,0.903974056244,,,,,2015_Nov_05_1419,G,facesParametric,51,59.6341735635,
./stim/MorphF5_07_orig.jpg,200,,,,,,,,,0,200,200,200,,,,,,,,,,,,,,,-2.9296875,-13.154296875,1,0,0,1.90958690643,,,,,2015_Nov_05_1419,G,facesParametric,51,59.6341735635,
./stim/MorphF7_06_orig.jpg,201,,,,,,,,,0,201,201,201,,,,,,,,,,,,,,,-2.9296875,-13.154296875,0,0,1,0.853315830231,,,,,2015_Nov_05_1419,G,facesParametric,51,59.6341735635,
./stim/MorphF2_05_orig.jpg,202,,,,,,,,,0,202,202,202,,,,,,,,,,,,,,,-2.9296875,-13.154296875,1,0,0,1.18735694885,,,,,2015_Nov_05_1419,G,facesParametric,51,59.6341735635,
./stim/MorphF4_01_orig.jpg,203,,,,,,,,,0,203,203,203,,,,,,,,,,,,,,,-2.9296875,-13.154296875,1,0,0,1.1047308445,,,,,2015_Nov_05_1419,G,facesParametric,51,59.6341735635,
./stim/MorphM10_03_orig.jpg,204,,,,,,,,,0,204,204,204,,,,,,,,,,,,,,,-2.9296875,-13.154296875,0,0,1,1.08614110947,,,,,2015_Nov_05_1419,G,facesParametric,51,59.6341735635,
./stim/MorphF4_03_orig.jpg,205,,,,,,,,,0,205,205,205,,,,,,,,,,,,,,,-2.9296875,-13.154296875,1,0,0,1.27216911316,,,,,2015_Nov_05_1419,G,facesParametric,51,59.6341735635,
./stim/MorphF5_03_orig.jpg,206,,,,,,,,,0,206,206,206,,,,,,,,,,,,,,,-2.9296875,-13.154296875,1,0,0,1.088367939,,,,,2015_Nov_05_1419,G,facesParametric,51,59.6341735635,
./stim/MorphM10_00_orig.jpg,207,,,,,,,,,0,207,207,207,,,,,,,,,,,,,,,-2.9296875,-13.154296875,0,0,1,0.987463951111,,,,,2015_Nov_05_1419,G,facesParametric,51,59.6341735635,
./stim/MorphM3_07_orig.jpg,208,,,,,,,,,0,208,208,208,,,,,,,,,,,,,,,-2.9296875,-13.154296875,0,0,1,0.85377407074,,,,,2015_Nov_05_1419,G,facesParametric,51,59.6341735635,
./stim/MorphM1_03_orig.jpg,209,,,,,,,,,0,209,209,209,,,,,,,,,,,,,,,-2.9296875,-13.154296875,1,0,0,0.934758901596,,,,,2015_Nov_05_1419,G,facesParametric,51,59.6341735635,
./stim/MorphM10_04_orig.jpg,210,,,,,,,,,0,210,210,210,,,,,,,,,,,,,,,-2.9296875,-13.154296875,0,0,1,0.870177030563,,,,,2015_Nov_05_1419,G,facesParametric,51,59.6341735635,
./stim/MorphF1_08_orig.jpg,211,,,,,,,,,0,211,211,211,,,,,,,,,,,,,,,-2.9296875,-13.154296875,1,0,0,0.870656013489,,,,,2015_Nov_05_1419,G,facesParametric,51,59.6341735635,
./stim/MorphF10_05_orig.jpg,212,,,,,,,,,0,212,212,212,,,,,,,,,,,,,,,-2.9296875,-13.154296875,0,0,1,0.769637107849,,,,,2015_Nov_05_1419,G,facesParametric,51,59.6341735635,
./stim/MorphF3_07_orig.jpg,213,,,,,,,,,0,213,213,213,,,,,,,,,,,,,,,-2.9296875,-13.154296875,1,0,0,0.853086948395,,,,,2015_Nov_05_1419,G,facesParametric,51,59.6341735635,
./stim/MorphF9_00_orig.jpg,214,,,,,,,,,0,214,214,214,,,,,,,,,,,,,,,-2.9296875,-13.154296875,0,0,1,0.870016098022,,,,,2015_Nov_05_1419,G,facesParametric,51,59.6341735635,
./stim/MorphM10_01_orig.jpg,215,,,,,,,,,0,215,215,215,,,,,,,,,,,,,,,-2.9296875,-13.154296875,1,0,0,1.05446720123,,,,,2015_Nov_05_1419,G,facesParametric,51,59.6341735635,
./stim/MorphF10_06_orig.jpg,216,,,,,,,,,0,216,216,216,,,,,,,,,,,,,,,-2.9296875,-13.154296875,0,0,1,1.12170100212,,,,,2015_Nov_05_1419,G,facesParametric,51,59.6341735635,
./stim/MorphF4_02_orig.jpg,217,,,,,,,,,0,217,217,217,,,,,,,,,,,,,,,-2.9296875,-13.154296875,1,0,0,2.56283903122,,,,,2015_Nov_05_1419,G,facesParametric,51,59.6341735635,
./stim/MorphM3_00_orig.jpg,218,,,,,,,,,0,218,218,218,,,,,,,,,,,,,,,-2.9296875,-13.154296875,0,0,1,1.28926491737,,,,,2015_Nov_05_1419,G,facesParametric,51,59.6341735635,
./stim/MorphF3_03_orig.jpg,219,,,,,,,,,0,219,219,219,,,,,,,,,,,,,,,-2.9296875,-13.154296875,1,0,0,0.98540687561,,,,,2015_Nov_05_1419,G,facesParametric,51,59.6341735635,
,,,,,,,,,,,,,,,,,,,,,,,,,,,,,,,,,,,,return,3.46137595177,2015_Nov_05_1419,G,facesParametric,51,59.6341735635,
