img,num,basicLoop.thisRepN,basicLoop.thisTrialN,basicLoop.thisN,basicLoop.thisIndex,trials.thisRepN,trials.thisTrialN,trials.thisN,trials.thisIndex,trials2.thisRepN,trials2.thisTrialN,trials2.thisN,trials2.thisIndex,key_resp_2.keys,key_resp_2.rt,basicRating1.response,basicRating1.rt,basicRating2.response,basicRating2.rt,basicRating3.response,basicRating3.rt,basicRating4.response,basicRating4.rt,key_resp_3.keys,key_resp_3.rt,key_resp_4.keys,key_resp_4.rt,mouseResp.x,mouseResp.y,mouseResp.leftButton,mouseResp.midButton,mouseResp.rightButton,mouseResp.time,key_resp_5.keys,key_resp_5.rt,key_resp_7.keys,key_resp_7.rt,date,group,expName,participant,frameRate,
,,,,,,,,,,,,,,return,45.3526861668,,,,,,,,,,,,,,,,,,,,,,,2015_Nov_05_1529,G,facesParametric,26,59.6893362497,
./basicStim/01F_DI_O.jpg,,0,0,0,1,,,,,,,,,,,None,None,ANG,11.017,None,None,None,None,,,,,,,,,,,,,,,2015_Nov_05_1529,G,facesParametric,26,59.6893362497,
./basicStim/06F_SA_C.jpg,,0,1,1,25,,,,,,,,,,,None,None,None,None,SUP,7.765,None,None,,,,,,,,,,,,,,,2015_Nov_05_1529,G,facesParametric,26,59.6893362497,
./basicStim/09F_DI_O.jpg,,0,2,2,36,,,,,,,,,,,None,None,None,None,DIS,9.42,None,None,,,,,,,,,,,,,,,2015_Nov_05_1529,G,facesParametric,26,59.6893362497,
./basicStim/34M_SP_O.jpg,,0,3,3,75,,,,,,,,,,,None,None,None,None,SUP,2.137,None,None,,,,,,,,,,,,,,,2015_Nov_05_1529,G,facesParametric,26,59.6893362497,
./basicStim/24M_SP_O.jpg,,0,4,4,61,,,,,,,,,,,None,None,None,None,None,None,NTR,8.065,,,,,,,,,,,,,,,2015_Nov_05_1529,G,facesParametric,26,59.6893362497,
./basicStim/24M_AN_O.jpg,,0,5,5,56,,,,,,,,,,,None,None,ANG,2.657,None,None,None,None,,,,,,,,,,,,,,,2015_Nov_05_1529,G,facesParametric,26,59.6893362497,
./basicStim/02F_AN_O.jpg,,0,6,6,7,,,,,,,,,,,None,None,ANG,9.109,None,None,None,None,,,,,,,,,,,,,,,2015_Nov_05_1529,G,facesParametric,26,59.6893362497,
./basicStim/02F_NE_C.jpg,,0,7,7,13,,,,,,,,,,,None,None,None,None,None,None,NTR,1.273,,,,,,,,,,,,,,,2015_Nov_05_1529,G,facesParametric,26,59.6893362497,
./basicStim/21M_FE_O.jpg,,0,8,8,44,,,,,,,,,,,None,None,FEA,3.19,None,None,None,None,,,,,,,,,,,,,,,2015_Nov_05_1529,G,facesParametric,26,59.6893362497,
./basicStim/07F_DI_O.jpg,,0,9,9,29,,,,,,,,,,,None,None,None,None,DIS,1.915,None,None,,,,,,,,,,,,,,,2015_Nov_05_1529,G,facesParametric,26,59.6893362497,
./basicStim/21M_SP_O.jpg,,0,10,10,47,,,,,,,,,,,None,None,None,None,SUP,2.852,None,None,,,,,,,,,,,,,,,2015_Nov_05_1529,G,facesParametric,26,59.6893362497,
./basicStim/03F_SA_C.jpg,,0,11,11,18,,,,,,,,,,,SAD,2.67,None,None,None,None,None,None,,,,,,,,,,,,,,,2015_Nov_05_1529,G,facesParametric,26,59.6893362497,
./basicStim/23M_NE_C.jpg,,0,12,12,55,,,,,,,,,,,None,None,None,None,None,None,NTR,1.846,,,,,,,,,,,,,,,2015_Nov_05_1529,G,facesParametric,26,59.6893362497,
./basicStim/34M_DI_O.jpg,,0,13,13,71,,,,,,,,,,,None,None,None,None,DIS,2.388,None,None,,,,,,,,,,,,,,,2015_Nov_05_1529,G,facesParametric,26,59.6893362497,
./basicStim/03F_FE_O.jpg,,0,14,14,16,,,,,,,,,,,None,None,FEA,1.864,None,None,None,None,,,,,,,,,,,,,,,2015_Nov_05_1529,G,facesParametric,26,59.6893362497,
./basicStim/36M_HA_O.jpg,,0,15,15,80,,,,,,,,,,,HAP,2.785,None,None,None,None,None,None,,,,,,,,,,,,,,,2015_Nov_05_1529,G,facesParametric,26,59.6893362497,
./basicStim/23M_AN_O.jpg,,0,16,16,49,,,,,,,,,,,None,None,ANG,2.097,None,None,None,None,,,,,,,,,,,,,,,2015_Nov_05_1529,G,facesParametric,26,59.6893362497,
./basicStim/01F_HA_O.jpg,,0,17,17,3,,,,,,,,,,,HAP,3.259,None,None,None,None,None,None,,,,,,,,,,,,,,,2015_Nov_05_1529,G,facesParametric,26,59.6893362497,
./basicStim/23M_HA_O.jpg,,0,18,18,52,,,,,,,,,,,HAP,0.877,None,None,None,None,None,None,,,,,,,,,,,,,,,2015_Nov_05_1529,G,facesParametric,26,59.6893362497,
./basicStim/23M_FE_O.jpg,,0,19,19,51,,,,,,,,,,,None,None,None,None,DIS,7.539,None,None,,,,,,,,,,,,,,,2015_Nov_05_1529,G,facesParametric,26,59.6893362497,
./basicStim/34M_FE_O.jpg,,0,20,20,72,,,,,,,,,,,None,None,FEA,1.652,None,None,None,None,,,,,,,,,,,,,,,2015_Nov_05_1529,G,facesParametric,26,59.6893362497,
./basicStim/36M_NE_C.jpg,,0,21,21,83,,,,,,,,,,,None,None,None,None,None,None,NTR,2.281,,,,,,,,,,,,,,,2015_Nov_05_1529,G,facesParametric,26,59.6893362497,
./basicStim/02F_FE_O.jpg,,0,22,22,9,,,,,,,,,,,None,None,FEA,3.825,None,None,None,None,,,,,,,,,,,,,,,2015_Nov_05_1529,G,facesParametric,26,59.6893362497,
./basicStim/07F_FE_O.jpg,,0,23,23,30,,,,,,,,,,,None,None,FEA,3.807,None,None,None,None,,,,,,,,,,,,,,,2015_Nov_05_1529,G,facesParametric,26,59.6893362497,
./basicStim/36M_DI_O.jpg,,0,24,24,78,,,,,,,,,,,None,None,None,None,DIS,2.247,None,None,,,,,,,,,,,,,,,2015_Nov_05_1529,G,facesParametric,26,59.6893362497,
./basicStim/28M_DI_O.jpg,,0,25,25,64,,,,,,,,,,,None,None,None,None,DIS,6.854,None,None,,,,,,,,,,,,,,,2015_Nov_05_1529,G,facesParametric,26,59.6893362497,
./basicStim/07F_SA_C.jpg,,0,26,26,32,,,,,,,,,,,SAD,2.541,None,None,None,None,None,None,,,,,,,,,,,,,,,2015_Nov_05_1529,G,facesParametric,26,59.6893362497,
./basicStim/23M_SA_C.jpg,,0,27,27,53,,,,,,,,,,,SAD,6.342,None,None,None,None,None,None,,,,,,,,,,,,,,,2015_Nov_05_1529,G,facesParametric,26,59.6893362497,
./basicStim/24M_FE_O.jpg,,0,28,28,58,,,,,,,,,,,None,None,None,None,SUP,6.864,None,None,,,,,,,,,,,,,,,2015_Nov_05_1529,G,facesParametric,26,59.6893362497,
./basicStim/02F_DI_O.jpg,,0,29,29,8,,,,,,,,,,,None,None,None,None,DIS,12.037,None,None,,,,,,,,,,,,,,,2015_Nov_05_1529,G,facesParametric,26,59.6893362497,
./basicStim/23M_SP_O.jpg,,0,30,30,54,,,,,,,,,,,None,None,None,None,SUP,2.221,None,None,,,,,,,,,,,,,,,2015_Nov_05_1529,G,facesParametric,26,59.6893362497,
./basicStim/03F_SP_O.jpg,,0,31,31,19,,,,,,,,,,,HAP,5.014,None,None,None,None,None,None,,,,,,,,,,,,,,,2015_Nov_05_1529,G,facesParametric,26,59.6893362497,
./basicStim/06F_FE_O.jpg,,0,32,32,23,,,,,,,,,,,None,None,FEA,4.1,None,None,None,None,,,,,,,,,,,,,,,2015_Nov_05_1529,G,facesParametric,26,59.6893362497,
./basicStim/07F_AN_O.jpg,,0,33,33,28,,,,,,,,,,,None,None,ANG,5.667,None,None,None,None,,,,,,,,,,,,,,,2015_Nov_05_1529,G,facesParametric,26,59.6893362497,
./basicStim/07F_SP_O.jpg,,0,34,34,33,,,,,,,,,,,None,None,None,None,DIS,6.892,None,None,,,,,,,,,,,,,,,2015_Nov_05_1529,G,facesParametric,26,59.6893362497,
./basicStim/06F_AN_O.jpg,,0,35,35,21,,,,,,,,,,,None,None,None,None,None,None,NTR,8.026,,,,,,,,,,,,,,,2015_Nov_05_1529,G,facesParametric,26,59.6893362497,
./basicStim/21M_NE_C.jpg,,0,36,36,48,,,,,,,,,,,None,None,None,None,None,None,NTR,4.343,,,,,,,,,,,,,,,2015_Nov_05_1529,G,facesParametric,26,59.6893362497,
./basicStim/09F_HA_O.jpg,,0,37,37,38,,,,,,,,,,,HAP,6.489,None,None,None,None,None,None,,,,,,,,,,,,,,,2015_Nov_05_1529,G,facesParametric,26,59.6893362497,
./basicStim/06F_NE_C.jpg,,0,38,38,27,,,,,,,,,,,None,None,None,None,None,None,NTR,3.672,,,,,,,,,,,,,,,2015_Nov_05_1529,G,facesParametric,26,59.6893362497,
./basicStim/21M_HA_O.jpg,,0,39,39,45,,,,,,,,,,,HAP,2.719,None,None,None,None,None,None,,,,,,,,,,,,,,,2015_Nov_05_1529,G,facesParametric,26,59.6893362497,
./basicStim/28M_HA_O.jpg,,0,40,40,66,,,,,,,,,,,HAP,0.529,None,None,None,None,None,None,,,,,,,,,,,,,,,2015_Nov_05_1529,G,facesParametric,26,59.6893362497,
./basicStim/07F_NE_C.jpg,,0,41,41,34,,,,,,,,,,,None,None,None,None,None,None,NTR,1.392,,,,,,,,,,,,,,,2015_Nov_05_1529,G,facesParametric,26,59.6893362497,
./basicStim/02F_HA_O.jpg,,0,42,42,10,,,,,,,,,,,HAP,1.919,None,None,None,None,None,None,,,,,,,,,,,,,,,2015_Nov_05_1529,G,facesParametric,26,59.6893362497,
./basicStim/06F_SP_O.jpg,,0,43,43,26,,,,,,,,,,,None,None,None,None,SUP,1.765,None,None,,,,,,,,,,,,,,,2015_Nov_05_1529,G,facesParametric,26,59.6893362497,
./basicStim/34M_HA_O.jpg,,0,44,44,73,,,,,,,,,,,HAP,2.033,None,None,None,None,None,None,,,,,,,,,,,,,,,2015_Nov_05_1529,G,facesParametric,26,59.6893362497,
./basicStim/01F_SA_C.jpg,,0,45,45,4,,,,,,,,,,,None,None,ANG,4.697,None,None,None,None,,,,,,,,,,,,,,,2015_Nov_05_1529,G,facesParametric,26,59.6893362497,
./basicStim/02F_SP_O.jpg,,0,46,46,12,,,,,,,,,,,None,None,None,None,SUP,1.934,None,None,,,,,,,,,,,,,,,2015_Nov_05_1529,G,facesParametric,26,59.6893362497,
./basicStim/09F_SA_C.jpg,,0,47,47,39,,,,,,,,,,,SAD,2.132,None,None,None,None,None,None,,,,,,,,,,,,,,,2015_Nov_05_1529,G,facesParametric,26,59.6893362497,
./basicStim/06F_DI_O.jpg,,0,48,48,22,,,,,,,,,,,None,None,None,None,DIS,2.288,None,None,,,,,,,,,,,,,,,2015_Nov_05_1529,G,facesParametric,26,59.6893362497,
./basicStim/24M_HA_O.jpg,,0,49,49,59,,,,,,,,,,,HAP,1.363,None,None,None,None,None,None,,,,,,,,,,,,,,,2015_Nov_05_1529,G,facesParametric,26,59.6893362497,
./basicStim/23M_DI_O.jpg,,0,50,50,50,,,,,,,,,,,SAD,8.924,None,None,None,None,None,None,,,,,,,,,,,,,,,2015_Nov_05_1529,G,facesParametric,26,59.6893362497,
./basicStim/09F_NE_C.jpg,,0,51,51,41,,,,,,,,,,,None,None,None,None,None,None,NTR,1.873,,,,,,,,,,,,,,,2015_Nov_05_1529,G,facesParametric,26,59.6893362497,
./basicStim/36M_SP_O.jpg,,0,52,52,82,,,,,,,,,,,None,None,None,None,SUP,8.67,None,None,,,,,,,,,,,,,,,2015_Nov_05_1529,G,facesParametric,26,59.6893362497,
./basicStim/02F_SA_C.jpg,,0,53,53,11,,,,,,,,,,,SAD,3.678,None,None,None,None,None,None,,,,,,,,,,,,,,,2015_Nov_05_1529,G,facesParametric,26,59.6893362497,
./basicStim/34M_AN_O.jpg,,0,54,54,70,,,,,,,,,,,None,None,ANG,2.167,None,None,None,None,,,,,,,,,,,,,,,2015_Nov_05_1529,G,facesParametric,26,59.6893362497,
./basicStim/03F_HA_O.jpg,,0,55,55,17,,,,,,,,,,,HAP,1.431,None,None,None,None,None,None,,,,,,,,,,,,,,,2015_Nov_05_1529,G,facesParametric,26,59.6893362497,
./basicStim/09F_SP_O.jpg,,0,56,56,40,,,,,,,,,,,None,None,None,None,SUP,1.947,None,None,,,,,,,,,,,,,,,2015_Nov_05_1529,G,facesParametric,26,59.6893362497,
./basicStim/07F_HA_O.jpg,,0,57,57,31,,,,,,,,,,,HAP,2.342,None,None,None,None,None,None,,,,,,,,,,,,,,,2015_Nov_05_1529,G,facesParametric,26,59.6893362497,
./basicStim/06F_HA_O.jpg,,0,58,58,24,,,,,,,,,,,HAP,3.106,None,None,None,None,None,None,,,,,,,,,,,,,,,2015_Nov_05_1529,G,facesParametric,26,59.6893362497,
./basicStim/24M_NE_C.jpg,,0,59,59,62,,,,,,,,,,,None,None,None,None,None,None,NTR,1.331,,,,,,,,,,,,,,,2015_Nov_05_1529,G,facesParametric,26,59.6893362497,
./basicStim/36M_AN_O.jpg,,0,60,60,77,,,,,,,,,,,None,None,ANG,4.464,None,None,None,None,,,,,,,,,,,,,,,2015_Nov_05_1529,G,facesParametric,26,59.6893362497,
./basicStim/24M_SA_C.jpg,,0,61,61,60,,,,,,,,,,,SAD,2.106,None,None,None,None,None,None,,,,,,,,,,,,,,,2015_Nov_05_1529,G,facesParametric,26,59.6893362497,
./basicStim/34M_SA_C.jpg,,0,62,62,74,,,,,,,,,,,SAD,4.013,None,None,None,None,None,None,,,,,,,,,,,,,,,2015_Nov_05_1529,G,facesParametric,26,59.6893362497,
./basicStim/03F_DI_O.jpg,,0,63,63,15,,,,,,,,,,,None,None,None,None,DIS,2.55,None,None,,,,,,,,,,,,,,,2015_Nov_05_1529,G,facesParametric,26,59.6893362497,
./basicStim/21M_DI_O.jpg,,0,64,64,43,,,,,,,,,,,None,None,None,None,DIS,3.173,None,None,,,,,,,,,,,,,,,2015_Nov_05_1529,G,facesParametric,26,59.6893362497,
./basicStim/21M_SA_C.jpg,,0,65,65,46,,,,,,,,,,,SAD,2.15,None,None,None,None,None,None,,,,,,,,,,,,,,,2015_Nov_05_1529,G,facesParametric,26,59.6893362497,
./basicStim/28M_AN_O.jpg,,0,66,66,63,,,,,,,,,,,None,None,ANG,2.316,None,None,None,None,,,,,,,,,,,,,,,2015_Nov_05_1529,G,facesParametric,26,59.6893362497,
./basicStim/01F_AN_O.jpg,,0,67,67,0,,,,,,,,,,,None,None,ANG,1.765,None,None,None,None,,,,,,,,,,,,,,,2015_Nov_05_1529,G,facesParametric,26,59.6893362497,
./basicStim/28M_SP_O.jpg,,0,68,68,68,,,,,,,,,,,None,None,None,None,SUP,5.015,None,None,,,,,,,,,,,,,,,2015_Nov_05_1529,G,facesParametric,26,59.6893362497,
./basicStim/36M_SA_C.jpg,,0,69,69,81,,,,,,,,,,,SAD,1.867,None,None,None,None,None,None,,,,,,,,,,,,,,,2015_Nov_05_1529,G,facesParametric,26,59.6893362497,
./basicStim/03F_NE_C.jpg,,0,70,70,20,,,,,,,,,,,None,None,None,None,None,None,NTR,1.743,,,,,,,,,,,,,,,2015_Nov_05_1529,G,facesParametric,26,59.6893362497,
./basicStim/09F_AN_O.jpg,,0,71,71,35,,,,,,,,,,,None,None,ANG,1.58,None,None,None,None,,,,,,,,,,,,,,,2015_Nov_05_1529,G,facesParametric,26,59.6893362497,
./basicStim/28M_NE_C.jpg,,0,72,72,69,,,,,,,,,,,None,None,None,None,None,None,NTR,2.301,,,,,,,,,,,,,,,2015_Nov_05_1529,G,facesParametric,26,59.6893362497,
./basicStim/28M_SA_C.jpg,,0,73,73,67,,,,,,,,,,,None,None,None,None,SUP,3.544,None,None,,,,,,,,,,,,,,,2015_Nov_05_1529,G,facesParametric,26,59.6893362497,
./basicStim/24M_DI_O.jpg,,0,74,74,57,,,,,,,,,,,None,None,ANG,6.376,None,None,None,None,,,,,,,,,,,,,,,2015_Nov_05_1529,G,facesParametric,26,59.6893362497,
./basicStim/34M_NE_C.jpg,,0,75,75,76,,,,,,,,,,,None,None,None,None,None,None,NTR,2.535,,,,,,,,,,,,,,,2015_Nov_05_1529,G,facesParametric,26,59.6893362497,
./basicStim/03F_AN_O.jpg,,0,76,76,14,,,,,,,,,,,None,None,ANG,6.276,None,None,None,None,,,,,,,,,,,,,,,2015_Nov_05_1529,G,facesParametric,26,59.6893362497,
./basicStim/01F_FE_O.jpg,,0,77,77,2,,,,,,,,,,,None,None,None,None,SUP,1.913,None,None,,,,,,,,,,,,,,,2015_Nov_05_1529,G,facesParametric,26,59.6893362497,
./basicStim/01F_NE_C.jpg,,0,78,78,6,,,,,,,,,,,None,None,None,None,None,None,NTR,4.069,,,,,,,,,,,,,,,2015_Nov_05_1529,G,facesParametric,26,59.6893362497,
./basicStim/36M_FE_O.jpg,,0,79,79,79,,,,,,,,,,,None,None,FEA,1.967,None,None,None,None,,,,,,,,,,,,,,,2015_Nov_05_1529,G,facesParametric,26,59.6893362497,
./basicStim/09F_FE_O.jpg,,0,80,80,37,,,,,,,,,,,None,None,FEA,0.831,None,None,None,None,,,,,,,,,,,,,,,2015_Nov_05_1529,G,facesParametric,26,59.6893362497,
./basicStim/28M_FE_O.jpg,,0,81,81,65,,,,,,,,,,,None,None,None,None,SUP,3.325,None,None,,,,,,,,,,,,,,,2015_Nov_05_1529,G,facesParametric,26,59.6893362497,
./basicStim/01F_SP_O.jpg,,0,82,82,5,,,,,,,,,,,None,None,None,None,SUP,4.625,None,None,,,,,,,,,,,,,,,2015_Nov_05_1529,G,facesParametric,26,59.6893362497,
./basicStim/21M_AN_O.jpg,,0,83,83,42,,,,,,,,,,,None,None,ANG,1.867,None,None,None,None,,,,,,,,,,,,,,,2015_Nov_05_1529,G,facesParametric,26,59.6893362497,
,,,,,,,,,,,,,,,,,,,,,,,,return,17.6819238663,,,,,,,,,,,,,2015_Nov_05_1529,G,facesParametric,26,59.6893362497,
,,,,,,,,,,,,,,return,2.93360114098,,,,,,,,,,,,,,,,,,,,,,,2015_Nov_05_1529,G,facesParametric,26,59.6893362497,
,,,,,,,,,,,,,,,,,,,,,,,,return,11.7973680496,,,,,,,,,,,,,2015_Nov_05_1529,G,facesParametric,26,59.6893362497,
,,,,,,,,,,,,,,,,,,,,,,,,,,return,5.43019485474,,,,,,,,,,,2015_Nov_05_1529,G,facesParametric,26,59.6893362497,
./stim/MorphM6_00_orig.jpg,0,,,,,0,0,0,0,,,,,,,,,,,,,,,,,,,7.32421875,-0.703125,0,0,1,4.64713692665,,,,,2015_Nov_05_1529,G,facesParametric,26,59.6893362497,
./stim/MorphF1_08_orig.jpg,1,,,,,0,1,1,1,,,,,,,,,,,,,,,,,,,7.32421875,-0.703125,1,0,0,2.41159105301,,,,,2015_Nov_05_1529,G,facesParametric,26,59.6893362497,
./stim/MorphM7_07_orig.jpg,2,,,,,0,2,2,2,,,,,,,,,,,,,,,,,,,7.32421875,-0.703125,1,0,0,5.07723212242,,,,,2015_Nov_05_1529,G,facesParametric,26,59.6893362497,
./stim/MorphF7_04_orig.jpg,3,,,,,0,3,3,3,,,,,,,,,,,,,,,,,,,7.32421875,-0.703125,0,0,1,1.30620288849,,,,,2015_Nov_05_1529,G,facesParametric,26,59.6893362497,
./stim/MorphF4_00_orig.jpg,4,,,,,0,4,4,4,,,,,,,,,,,,,,,,,,,7.32421875,-0.703125,0,0,1,1.38800501823,,,,,2015_Nov_05_1529,G,facesParametric,26,59.6893362497,
./stim/MorphF6_07_orig.jpg,5,,,,,0,5,5,5,,,,,,,,,,,,,,,,,,,7.32421875,-0.703125,1,0,0,1.37243413925,,,,,2015_Nov_05_1529,G,facesParametric,26,59.6893362497,
./stim/MorphF9_02_orig.jpg,6,,,,,0,6,6,6,,,,,,,,,,,,,,,,,,,7.32421875,-0.703125,0,0,1,1.25576710701,,,,,2015_Nov_05_1529,G,facesParametric,26,59.6893362497,
./stim/MorphM5_07_orig.jpg,7,,,,,0,7,7,7,,,,,,,,,,,,,,,,,,,7.32421875,-0.703125,1,0,0,1.80887889862,,,,,2015_Nov_05_1529,G,facesParametric,26,59.6893362497,
./stim/MorphF9_10_orig.jpg,8,,,,,0,8,8,8,,,,,,,,,,,,,,,,,,,7.32421875,-0.703125,1,0,0,1.01941394806,,,,,2015_Nov_05_1529,G,facesParametric,26,59.6893362497,
./stim/MorphM5_10_orig.jpg,9,,,,,0,9,9,9,,,,,,,,,,,,,,,,,,,7.32421875,-0.703125,1,0,0,1.4065451622,,,,,2015_Nov_05_1529,G,facesParametric,26,59.6893362497,
./stim/MorphF5_03_orig.jpg,10,,,,,0,10,10,10,,,,,,,,,,,,,,,,,,,7.32421875,-0.703125,0,0,1,2.31150388718,,,,,2015_Nov_05_1529,G,facesParametric,26,59.6893362497,
./stim/MorphM1_10_orig.jpg,11,,,,,0,11,11,11,,,,,,,,,,,,,,,,,,,7.32421875,-0.703125,1,0,0,1.52373600006,,,,,2015_Nov_05_1529,G,facesParametric,26,59.6893362497,
./stim/MorphM3_09_orig.jpg,12,,,,,0,12,12,12,,,,,,,,,,,,,,,,,,,7.32421875,-0.703125,1,0,0,1.13796591759,,,,,2015_Nov_05_1529,G,facesParametric,26,59.6893362497,
./stim/MorphF10_03_orig.jpg,13,,,,,0,13,13,13,,,,,,,,,,,,,,,,,,,7.32421875,-0.703125,1,0,0,1.32089304924,,,,,2015_Nov_05_1529,G,facesParametric,26,59.6893362497,
./stim/MorphM8_01_orig.jpg,14,,,,,0,14,14,14,,,,,,,,,,,,,,,,,,,7.32421875,-0.703125,0,0,1,7.01962399483,,,,,2015_Nov_05_1529,G,facesParametric,26,59.6893362497,
./stim/MorphF1_10_orig.jpg,15,,,,,0,15,15,15,,,,,,,,,,,,,,,,,,,7.32421875,-0.703125,1,0,0,3.36747002602,,,,,2015_Nov_05_1529,G,facesParametric,26,59.6893362497,
./stim/MorphF8_09_orig.jpg,16,,,,,0,16,16,16,,,,,,,,,,,,,,,,,,,7.32421875,-0.703125,0,0,1,3.36728000641,,,,,2015_Nov_05_1529,G,facesParametric,26,59.6893362497,
./stim/MorphF2_03_orig.jpg,17,,,,,0,17,17,17,,,,,,,,,,,,,,,,,,,7.32421875,-0.703125,0,0,1,3.19827198982,,,,,2015_Nov_05_1529,G,facesParametric,26,59.6893362497,
./stim/MorphM1_02_orig.jpg,18,,,,,0,18,18,18,,,,,,,,,,,,,,,,,,,7.32421875,-0.703125,0,0,1,1.0710849762,,,,,2015_Nov_05_1529,G,facesParametric,26,59.6893362497,
./stim/MorphM4_07_orig.jpg,19,,,,,0,19,19,19,,,,,,,,,,,,,,,,,,,7.32421875,-0.703125,1,0,0,2.29452610016,,,,,2015_Nov_05_1529,G,facesParametric,26,59.6893362497,
./stim/MorphF5_07_orig.jpg,20,,,,,0,20,20,20,,,,,,,,,,,,,,,,,,,7.32421875,-0.703125,1,0,0,1.1051158905,,,,,2015_Nov_05_1529,G,facesParametric,26,59.6893362497,
./stim/MorphM3_10_orig.jpg,21,,,,,0,21,21,21,,,,,,,,,,,,,,,,,,,7.32421875,-0.703125,1,0,0,9.2157869339,,,,,2015_Nov_05_1529,G,facesParametric,26,59.6893362497,
./stim/MorphM4_00_orig.jpg,22,,,,,0,22,22,22,,,,,,,,,,,,,,,,,,,7.32421875,-0.703125,0,0,1,1.22184681892,,,,,2015_Nov_05_1529,G,facesParametric,26,59.6893362497,
./stim/MorphF1_02_orig.jpg,23,,,,,0,23,23,23,,,,,,,,,,,,,,,,,,,7.32421875,-0.703125,0,0,1,1.17175793648,,,,,2015_Nov_05_1529,G,facesParametric,26,59.6893362497,
./stim/MorphM1_00_orig.jpg,24,,,,,0,24,24,24,,,,,,,,,,,,,,,,,,,7.32421875,-0.703125,0,0,1,1.03799295425,,,,,2015_Nov_05_1529,G,facesParametric,26,59.6893362497,
./stim/MorphM8_08_orig.jpg,25,,,,,0,25,25,25,,,,,,,,,,,,,,,,,,,7.32421875,-0.703125,1,0,0,1.12154912949,,,,,2015_Nov_05_1529,G,facesParametric,26,59.6893362497,
./stim/MorphF4_03_orig.jpg,26,,,,,0,26,26,26,,,,,,,,,,,,,,,,,,,7.32421875,-0.703125,0,0,1,1.20338511467,,,,,2015_Nov_05_1529,G,facesParametric,26,59.6893362497,
./stim/MorphM3_03_orig.jpg,27,,,,,0,27,27,27,,,,,,,,,,,,,,,,,,,7.32421875,-0.703125,0,0,1,8.12671589851,,,,,2015_Nov_05_1529,G,facesParametric,26,59.6893362497,
./stim/MorphM7_06_orig.jpg,28,,,,,0,28,28,28,,,,,,,,,,,,,,,,,,,7.32421875,-0.703125,1,0,0,1.02055096626,,,,,2015_Nov_05_1529,G,facesParametric,26,59.6893362497,
./stim/MorphM10_02_orig.jpg,29,,,,,0,29,29,29,,,,,,,,,,,,,,,,,,,7.32421875,-0.703125,0,0,1,7.92547512054,,,,,2015_Nov_05_1529,G,facesParametric,26,59.6893362497,
./stim/MorphM3_02_orig.jpg,30,,,,,0,30,30,30,,,,,,,,,,,,,,,,,,,7.32421875,-0.703125,0,0,1,1.90962481499,,,,,2015_Nov_05_1529,G,facesParametric,26,59.6893362497,
./stim/MorphF6_01_orig.jpg,31,,,,,0,31,31,31,,,,,,,,,,,,,,,,,,,7.32421875,-0.703125,1,0,0,1.05356478691,,,,,2015_Nov_05_1529,G,facesParametric,26,59.6893362497,
./stim/MorphM9_05_orig.jpg,32,,,,,0,32,32,32,,,,,,,,,,,,,,,,,,,7.32421875,-0.703125,0,0,1,3.11468601227,,,,,2015_Nov_05_1529,G,facesParametric,26,59.6893362497,
./stim/MorphF1_01_orig.jpg,33,,,,,0,33,33,33,,,,,,,,,,,,,,,,,,,7.32421875,-0.703125,0,0,1,2.21117115021,,,,,2015_Nov_05_1529,G,facesParametric,26,59.6893362497,
./stim/MorphM2_03_orig.jpg,34,,,,,0,34,34,34,,,,,,,,,,,,,,,,,,,7.32421875,-0.703125,0,0,1,1.70868206024,,,,,2015_Nov_05_1529,G,facesParametric,26,59.6893362497,
./stim/MorphF4_08_orig.jpg,35,,,,,0,35,35,35,,,,,,,,,,,,,,,,,,,7.32421875,-0.703125,1,0,0,0.920585870743,,,,,2015_Nov_05_1529,G,facesParametric,26,59.6893362497,
./stim/MorphM6_02_orig.jpg,36,,,,,0,36,36,36,,,,,,,,,,,,,,,,,,,7.32421875,-0.703125,0,0,1,27.7193698883,,,,,2015_Nov_05_1529,G,facesParametric,26,59.6893362497,
./stim/MorphF3_06_orig.jpg,37,,,,,0,37,37,37,,,,,,,,,,,,,,,,,,,7.32421875,-0.703125,1,0,0,3.81978297234,,,,,2015_Nov_05_1529,G,facesParametric,26,59.6893362497,
./stim/MorphF5_00_orig.jpg,38,,,,,0,38,38,38,,,,,,,,,,,,,,,,,,,7.32421875,-0.703125,0,0,1,1.15512013435,,,,,2015_Nov_05_1529,G,facesParametric,26,59.6893362497,
./stim/MorphM7_08_orig.jpg,39,,,,,0,39,39,39,,,,,,,,,,,,,,,,,,,7.32421875,-0.703125,1,0,0,1.10471391678,,,,,2015_Nov_05_1529,G,facesParametric,26,59.6893362497,
./stim/MorphF8_05_orig.jpg,40,,,,,0,40,40,40,,,,,,,,,,,,,,,,,,,7.32421875,-0.703125,0,0,1,2.98241090775,,,,,2015_Nov_05_1529,G,facesParametric,26,59.6893362497,
./stim/MorphF6_04_orig.jpg,41,,,,,0,41,41,41,,,,,,,,,,,,,,,,,,,7.32421875,-0.703125,1,0,0,1.00223302841,,,,,2015_Nov_05_1529,G,facesParametric,26,59.6893362497,
./stim/MorphF4_09_orig.jpg,42,,,,,0,42,42,42,,,,,,,,,,,,,,,,,,,7.32421875,-0.703125,1,0,0,1.79177904129,,,,,2015_Nov_05_1529,G,facesParametric,26,59.6893362497,
./stim/MorphF10_02_orig.jpg,43,,,,,0,43,43,43,,,,,,,,,,,,,,,,,,,7.32421875,-0.703125,0,0,1,1.6576089859,,,,,2015_Nov_05_1529,G,facesParametric,26,59.6893362497,
./stim/MorphM1_05_orig.jpg,44,,,,,0,44,44,44,,,,,,,,,,,,,,,,,,,7.32421875,-0.703125,0,0,1,4.35628604889,,,,,2015_Nov_05_1529,G,facesParametric,26,59.6893362497,
./stim/MorphM6_10_orig.jpg,45,,,,,0,45,45,45,,,,,,,,,,,,,,,,,,,7.32421875,-0.703125,1,0,0,1.25522208214,,,,,2015_Nov_05_1529,G,facesParametric,26,59.6893362497,
./stim/MorphM4_09_orig.jpg,46,,,,,0,46,46,46,,,,,,,,,,,,,,,,,,,7.32421875,-0.703125,1,0,0,1.92440700531,,,,,2015_Nov_05_1529,G,facesParametric,26,59.6893362497,
./stim/MorphM10_07_orig.jpg,47,,,,,0,47,47,47,,,,,,,,,,,,,,,,,,,7.32421875,-0.703125,1,0,0,0.918469905853,,,,,2015_Nov_05_1529,G,facesParametric,26,59.6893362497,
./stim/MorphM1_03_orig.jpg,48,,,,,0,48,48,48,,,,,,,,,,,,,,,,,,,7.32421875,-0.703125,0,0,1,1.2393450737,,,,,2015_Nov_05_1529,G,facesParametric,26,59.6893362497,
./stim/MorphM7_03_orig.jpg,49,,,,,0,49,49,49,,,,,,,,,,,,,,,,,,,7.32421875,-0.703125,1,0,0,12.5851750374,,,,,2015_Nov_05_1529,G,facesParametric,26,59.6893362497,
./stim/MorphF4_06_orig.jpg,50,,,,,0,50,50,50,,,,,,,,,,,,,,,,,,,7.32421875,-0.703125,0,0,1,1.4564139843,,,,,2015_Nov_05_1529,G,facesParametric,26,59.6893362497,
./stim/MorphF9_09_orig.jpg,51,,,,,0,51,51,51,,,,,,,,,,,,,,,,,,,7.32421875,-0.703125,1,0,0,1.50707316399,,,,,2015_Nov_05_1529,G,facesParametric,26,59.6893362497,
./stim/MorphF2_06_orig.jpg,52,,,,,0,52,52,52,,,,,,,,,,,,,,,,,,,7.32421875,-0.703125,1,0,0,1.10531902313,,,,,2015_Nov_05_1529,G,facesParametric,26,59.6893362497,
./stim/MorphF3_09_orig.jpg,53,,,,,0,53,53,53,,,,,,,,,,,,,,,,,,,7.32421875,-0.703125,1,0,0,8.44573402405,,,,,2015_Nov_05_1529,G,facesParametric,26,59.6893362497,
./stim/MorphF8_06_orig.jpg,54,,,,,0,54,54,54,,,,,,,,,,,,,,,,,,,7.32421875,-0.703125,0,0,1,2.52744722366,,,,,2015_Nov_05_1529,G,facesParametric,26,59.6893362497,
./stim/MorphF7_02_orig.jpg,55,,,,,0,55,55,55,,,,,,,,,,,,,,,,,,,7.32421875,-0.703125,0,0,1,1.64128398895,,,,,2015_Nov_05_1529,G,facesParametric,26,59.6893362497,
./stim/MorphF5_01_orig.jpg,56,,,,,0,56,56,56,,,,,,,,,,,,,,,,,,,7.32421875,-0.703125,0,0,1,0.920624017715,,,,,2015_Nov_05_1529,G,facesParametric,26,59.6893362497,
./stim/MorphF1_07_orig.jpg,57,,,,,0,57,57,57,,,,,,,,,,,,,,,,,,,7.32421875,-0.703125,0,0,1,6.23370099068,,,,,2015_Nov_05_1529,G,facesParametric,26,59.6893362497,
./stim/MorphM2_08_orig.jpg,58,,,,,0,58,58,58,,,,,,,,,,,,,,,,,,,7.32421875,-0.703125,1,0,0,1.05417203903,,,,,2015_Nov_05_1529,G,facesParametric,26,59.6893362497,
./stim/MorphF2_04_orig.jpg,59,,,,,0,59,59,59,,,,,,,,,,,,,,,,,,,7.32421875,-0.703125,1,0,0,1.95974898338,,,,,2015_Nov_05_1529,G,facesParametric,26,59.6893362497,
./stim/MorphF5_09_orig.jpg,60,,,,,0,60,60,60,,,,,,,,,,,,,,,,,,,7.32421875,-0.703125,1,0,0,1.32275509834,,,,,2015_Nov_05_1529,G,facesParametric,26,59.6893362497,
./stim/MorphM9_10_orig.jpg,61,,,,,0,61,61,61,,,,,,,,,,,,,,,,,,,7.32421875,-0.703125,1,0,0,2.31201004982,,,,,2015_Nov_05_1529,G,facesParametric,26,59.6893362497,
./stim/MorphM4_08_orig.jpg,62,,,,,0,62,62,62,,,,,,,,,,,,,,,,,,,7.32421875,-0.703125,1,0,0,1.75697493553,,,,,2015_Nov_05_1529,G,facesParametric,26,59.6893362497,
./stim/MorphF1_06_orig.jpg,63,,,,,0,63,63,63,,,,,,,,,,,,,,,,,,,7.32421875,-0.703125,0,0,1,2.69764709473,,,,,2015_Nov_05_1529,G,facesParametric,26,59.6893362497,
./stim/MorphM5_02_orig.jpg,64,,,,,0,64,64,64,,,,,,,,,,,,,,,,,,,7.32421875,-0.703125,0,0,1,1.18961286545,,,,,2015_Nov_05_1529,G,facesParametric,26,59.6893362497,
./stim/MorphF4_05_orig.jpg,65,,,,,0,65,65,65,,,,,,,,,,,,,,,,,,,7.32421875,-0.703125,0,0,1,5.57724690437,,,,,2015_Nov_05_1529,G,facesParametric,26,59.6893362497,
./stim/MorphM6_05_orig.jpg,66,,,,,0,66,66,66,,,,,,,,,,,,,,,,,,,7.32421875,-0.703125,0,0,1,6.4320628643,,,,,2015_Nov_05_1529,G,facesParametric,26,59.6893362497,
./stim/MorphM7_01_orig.jpg,67,,,,,0,67,67,67,,,,,,,,,,,,,,,,,,,7.32421875,-0.703125,1,0,0,2.51211094856,,,,,2015_Nov_05_1529,G,facesParametric,26,59.6893362497,
./stim/MorphF2_09_orig.jpg,68,,,,,0,68,68,68,,,,,,,,,,,,,,,,,,,7.32421875,-0.703125,1,0,0,1.05577516556,,,,,2015_Nov_05_1529,G,facesParametric,26,59.6893362497,
./stim/MorphF8_08_orig.jpg,69,,,,,0,69,69,69,,,,,,,,,,,,,,,,,,,7.32421875,-0.703125,0,0,1,4.01998901367,,,,,2015_Nov_05_1529,G,facesParametric,26,59.6893362497,
./stim/MorphF9_00_orig.jpg,70,,,,,0,70,70,70,,,,,,,,,,,,,,,,,,,7.32421875,-0.703125,0,0,1,2.92990493774,,,,,2015_Nov_05_1529,G,facesParametric,26,59.6893362497,
./stim/MorphF4_02_orig.jpg,71,,,,,0,71,71,71,,,,,,,,,,,,,,,,,,,7.32421875,-0.703125,0,0,1,0.986983060837,,,,,2015_Nov_05_1529,G,facesParametric,26,59.6893362497,
./stim/MorphM9_06_orig.jpg,72,,,,,0,72,72,72,,,,,,,,,,,,,,,,,,,7.32421875,-0.703125,1,0,0,8.57986497879,,,,,2015_Nov_05_1529,G,facesParametric,26,59.6893362497,
./stim/MorphF8_01_orig.jpg,73,,,,,0,73,73,73,,,,,,,,,,,,,,,,,,,7.32421875,-0.703125,0,0,1,2.04330801964,,,,,2015_Nov_05_1529,G,facesParametric,26,59.6893362497,
./stim/MorphF3_01_orig.jpg,74,,,,,0,74,74,74,,,,,,,,,,,,,,,,,,,7.32421875,-0.703125,0,0,1,1.28898000717,,,,,2015_Nov_05_1529,G,facesParametric,26,59.6893362497,
./stim/MorphM2_00_orig.jpg,75,,,,,0,75,75,75,,,,,,,,,,,,,,,,,,,7.32421875,-0.703125,0,0,1,1.18840098381,,,,,2015_Nov_05_1529,G,facesParametric,26,59.6893362497,
./stim/MorphM3_06_orig.jpg,76,,,,,0,76,76,76,,,,,,,,,,,,,,,,,,,7.32421875,-0.703125,1,0,0,1.22119402885,,,,,2015_Nov_05_1529,G,facesParametric,26,59.6893362497,
./stim/MorphF10_06_orig.jpg,77,,,,,0,77,77,77,,,,,,,,,,,,,,,,,,,7.32421875,-0.703125,1,0,0,0.953315019608,,,,,2015_Nov_05_1529,G,facesParametric,26,59.6893362497,
./stim/MorphF3_05_orig.jpg,78,,,,,0,78,78,78,,,,,,,,,,,,,,,,,,,7.32421875,-0.703125,1,0,0,1.80870580673,,,,,2015_Nov_05_1529,G,facesParametric,26,59.6893362497,
./stim/MorphM2_02_orig.jpg,79,,,,,0,79,79,79,,,,,,,,,,,,,,,,,,,7.32421875,-0.703125,0,0,1,15.2835538387,,,,,2015_Nov_05_1529,G,facesParametric,26,59.6893362497,
./stim/MorphM3_07_orig.jpg,80,,,,,0,80,80,80,,,,,,,,,,,,,,,,,,,7.32421875,-0.703125,1,0,0,1.17229485512,,,,,2015_Nov_05_1529,G,facesParametric,26,59.6893362497,
./stim/MorphM10_04_orig.jpg,81,,,,,0,81,81,81,,,,,,,,,,,,,,,,,,,7.32421875,-0.703125,1,0,0,14.6801118851,,,,,2015_Nov_05_1529,G,facesParametric,26,59.6893362497,
./stim/MorphM8_09_orig.jpg,82,,,,,0,82,82,82,,,,,,,,,,,,,,,,,,,7.32421875,-0.703125,1,0,0,7.94103598595,,,,,2015_Nov_05_1529,G,facesParametric,26,59.6893362497,
./stim/MorphF10_00_orig.jpg,83,,,,,0,83,83,83,,,,,,,,,,,,,,,,,,,7.32421875,-0.703125,0,0,1,4.60759305954,,,,,2015_Nov_05_1529,G,facesParametric,26,59.6893362497,
./stim/MorphF6_05_orig.jpg,84,,,,,0,84,84,84,,,,,,,,,,,,,,,,,,,7.32421875,-0.703125,1,0,0,1.08785009384,,,,,2015_Nov_05_1529,G,facesParametric,26,59.6893362497,
./stim/MorphM1_06_orig.jpg,85,,,,,0,85,85,85,,,,,,,,,,,,,,,,,,,7.32421875,-0.703125,0,0,1,9.28395390511,,,,,2015_Nov_05_1529,G,facesParametric,26,59.6893362497,
./stim/MorphM10_08_orig.jpg,86,,,,,0,86,86,86,,,,,,,,,,,,,,,,,,,7.32421875,-0.703125,1,0,0,4.53950595856,,,,,2015_Nov_05_1529,G,facesParametric,26,59.6893362497,
./stim/MorphF2_05_orig.jpg,87,,,,,0,87,87,87,,,,,,,,,,,,,,,,,,,7.32421875,-0.703125,1,0,0,1.79182815552,,,,,2015_Nov_05_1529,G,facesParametric,26,59.6893362497,
./stim/MorphF5_02_orig.jpg,88,,,,,0,88,88,88,,,,,,,,,,,,,,,,,,,7.32421875,-0.703125,0,0,1,3.43434500694,,,,,2015_Nov_05_1529,G,facesParametric,26,59.6893362497,
./stim/MorphM9_00_orig.jpg,89,,,,,0,89,89,89,,,,,,,,,,,,,,,,,,,7.32421875,-0.703125,0,0,1,6.93753004074,,,,,2015_Nov_05_1529,G,facesParametric,26,59.6893362497,
./stim/MorphM8_00_orig.jpg,90,,,,,0,90,90,90,,,,,,,,,,,,,,,,,,,7.32421875,-0.703125,1,0,0,3.9876229763,,,,,2015_Nov_05_1529,G,facesParametric,26,59.6893362497,
./stim/MorphF10_04_orig.jpg,91,,,,,0,91,91,91,,,,,,,,,,,,,,,,,,,7.32421875,-0.703125,1,0,0,0.920472860336,,,,,2015_Nov_05_1529,G,facesParametric,26,59.6893362497,
./stim/MorphM6_06_orig.jpg,92,,,,,0,92,92,92,,,,,,,,,,,,,,,,,,,7.32421875,-0.703125,1,0,0,4.59043002129,,,,,2015_Nov_05_1529,G,facesParametric,26,59.6893362497,
./stim/MorphF2_07_orig.jpg,93,,,,,0,93,93,93,,,,,,,,,,,,,,,,,,,7.32421875,-0.703125,1,0,0,0.935859918594,,,,,2015_Nov_05_1529,G,facesParametric,26,59.6893362497,
./stim/MorphF3_04_orig.jpg,94,,,,,0,94,94,94,,,,,,,,,,,,,,,,,,,7.32421875,-0.703125,0,0,1,1.07143688202,,,,,2015_Nov_05_1529,G,facesParametric,26,59.6893362497,
./stim/MorphM7_09_orig.jpg,95,,,,,0,95,95,95,,,,,,,,,,,,,,,,,,,7.32421875,-0.703125,1,0,0,1.2557849884,,,,,2015_Nov_05_1529,G,facesParametric,26,59.6893362497,
./stim/MorphM5_06_orig.jpg,96,,,,,0,96,96,96,,,,,,,,,,,,,,,,,,,7.32421875,-0.703125,1,0,0,4.95850110054,,,,,2015_Nov_05_1529,G,facesParametric,26,59.6893362497,
./stim/MorphM4_10_orig.jpg,97,,,,,0,97,97,97,,,,,,,,,,,,,,,,,,,7.32421875,-0.703125,1,0,0,0.970722198486,,,,,2015_Nov_05_1529,G,facesParametric,26,59.6893362497,
./stim/MorphM10_00_orig.jpg,98,,,,,0,98,98,98,,,,,,,,,,,,,,,,,,,7.32421875,-0.703125,0,0,1,1.05461907387,,,,,2015_Nov_05_1529,G,facesParametric,26,59.6893362497,
./stim/MorphF3_03_orig.jpg,99,,,,,0,99,99,99,,,,,,,,,,,,,,,,,,,7.32421875,-0.703125,0,0,1,1.00447010994,,,,,2015_Nov_05_1529,G,facesParametric,26,59.6893362497,
./stim/MorphF6_02_orig.jpg,100,,,,,0,100,100,100,,,,,,,,,,,,,,,,,,,7.32421875,-0.703125,1,0,0,1.91034007072,,,,,2015_Nov_05_1529,G,facesParametric,26,59.6893362497,
./stim/MorphM10_05_orig.jpg,101,,,,,0,101,101,101,,,,,,,,,,,,,,,,,,,7.32421875,-0.703125,1,0,0,1.15432214737,,,,,2015_Nov_05_1529,G,facesParametric,26,59.6893362497,
./stim/MorphF8_10_orig.jpg,102,,,,,0,102,102,102,,,,,,,,,,,,,,,,,,,7.32421875,-0.703125,1,0,0,1.02116990089,,,,,2015_Nov_05_1529,G,facesParametric,26,59.6893362497,
./stim/MorphM8_05_orig.jpg,103,,,,,0,103,103,103,,,,,,,,,,,,,,,,,,,7.32421875,-0.703125,1,0,0,9.55065202713,,,,,2015_Nov_05_1529,G,facesParametric,26,59.6893362497,
./stim/MorphF1_04_orig.jpg,104,,,,,0,104,104,104,,,,,,,,,,,,,,,,,,,7.32421875,-0.703125,0,0,1,1.94351196289,,,,,2015_Nov_05_1529,G,facesParametric,26,59.6893362497,
./stim/MorphF3_02_orig.jpg,105,,,,,0,105,105,105,,,,,,,,,,,,,,,,,,,7.32421875,-0.703125,0,0,1,0.970520019531,,,,,2015_Nov_05_1529,G,facesParametric,26,59.6893362497,
./stim/MorphM10_10_orig.jpg,106,,,,,0,106,106,106,,,,,,,,,,,,,,,,,,,7.32421875,-0.703125,1,0,0,1.03766918182,,,,,2015_Nov_05_1529,G,facesParametric,26,59.6893362497,
./stim/MorphM3_00_orig.jpg,107,,,,,0,107,107,107,,,,,,,,,,,,,,,,,,,7.32421875,-0.703125,1,0,0,1.63971209526,,,,,2015_Nov_05_1529,G,facesParametric,26,59.6893362497,
./stim/MorphF2_01_orig.jpg,108,,,,,0,108,108,108,,,,,,,,,,,,,,,,,,,7.32421875,-0.703125,0,0,1,5.83215498924,,,,,2015_Nov_05_1529,G,facesParametric,26,59.6893362497,
./stim/MorphM7_02_orig.jpg,109,,,,,0,109,109,109,,,,,,,,,,,,,,,,,,,7.32421875,-0.703125,0,0,1,2.84644293785,,,,,2015_Nov_05_1529,G,facesParametric,26,59.6893362497,
./stim/MorphF3_10_orig.jpg,110,,,,,0,110,110,110,,,,,,,,,,,,,,,,,,,7.32421875,-0.703125,0,0,1,0.919149160385,,,,,2015_Nov_05_1529,G,facesParametric,26,59.6893362497,
./stim/MorphM4_04_orig.jpg,111,,,,,0,111,111,111,,,,,,,,,,,,,,,,,,,7.32421875,-0.703125,1,0,0,1.77523612976,,,,,2015_Nov_05_1529,G,facesParametric,26,59.6893362497,
./stim/MorphF7_03_orig.jpg,112,,,,,0,112,112,112,,,,,,,,,,,,,,,,,,,7.32421875,-0.703125,0,0,1,8.5294110775,,,,,2015_Nov_05_1529,G,facesParametric,26,59.6893362497,
./stim/MorphF9_01_orig.jpg,113,,,,,0,113,113,113,,,,,,,,,,,,,,,,,,,7.32421875,-0.703125,0,0,1,1.80876803398,,,,,2015_Nov_05_1529,G,facesParametric,26,59.6893362497,
./stim/MorphM10_01_orig.jpg,114,,,,,0,114,114,114,,,,,,,,,,,,,,,,,,,7.32421875,-0.703125,0,0,1,1.0378139019,,,,,2015_Nov_05_1529,G,facesParametric,26,59.6893362497,
./stim/MorphM6_09_orig.jpg,115,,,,,0,115,115,115,,,,,,,,,,,,,,,,,,,7.32421875,-0.703125,1,0,0,1.18881106377,,,,,2015_Nov_05_1529,G,facesParametric,26,59.6893362497,
./stim/MorphM5_00_orig.jpg,116,,,,,0,116,116,116,,,,,,,,,,,,,,,,,,,7.32421875,-0.703125,0,0,1,4.25547885895,,,,,2015_Nov_05_1529,G,facesParametric,26,59.6893362497,
./stim/MorphM2_06_orig.jpg,117,,,,,0,117,117,117,,,,,,,,,,,,,,,,,,,7.32421875,-0.703125,0,0,1,16.5898120403,,,,,2015_Nov_05_1529,G,facesParametric,26,59.6893362497,
./stim/MorphM1_07_orig.jpg,118,,,,,0,118,118,118,,,,,,,,,,,,,,,,,,,7.32421875,-0.703125,1,0,0,2.2113058567,,,,,2015_Nov_05_1529,G,facesParametric,26,59.6893362497,
./stim/MorphF8_02_orig.jpg,119,,,,,0,119,119,119,,,,,,,,,,,,,,,,,,,7.32421875,-0.703125,0,0,1,1.22223901749,,,,,2015_Nov_05_1529,G,facesParametric,26,59.6893362497,
./stim/MorphM7_05_orig.jpg,120,,,,,0,120,120,120,,,,,,,,,,,,,,,,,,,7.32421875,-0.703125,1,0,0,2.83087611198,,,,,2015_Nov_05_1529,G,facesParametric,26,59.6893362497,
./stim/MorphM5_08_orig.jpg,121,,,,,0,121,121,121,,,,,,,,,,,,,,,,,,,7.32421875,-0.703125,1,0,0,1.2722799778,,,,,2015_Nov_05_1529,G,facesParametric,26,59.6893362497,
./stim/MorphF1_05_orig.jpg,122,,,,,0,122,122,122,,,,,,,,,,,,,,,,,,,7.32421875,-0.703125,0,0,1,1.2725610733,,,,,2015_Nov_05_1529,G,facesParametric,26,59.6893362497,
./stim/MorphM2_10_orig.jpg,123,,,,,0,123,123,123,,,,,,,,,,,,,,,,,,,7.32421875,-0.703125,1,0,0,1.10501098633,,,,,2015_Nov_05_1529,G,facesParametric,26,59.6893362497,
./stim/MorphF2_00_orig.jpg,124,,,,,0,124,124,124,,,,,,,,,,,,,,,,,,,7.32421875,-0.703125,1,0,0,1.15556406975,,,,,2015_Nov_05_1529,G,facesParametric,26,59.6893362497,
./stim/MorphF8_03_orig.jpg,125,,,,,0,125,125,125,,,,,,,,,,,,,,,,,,,7.32421875,-0.703125,1,0,0,10.2051730156,,,,,2015_Nov_05_1529,G,facesParametric,26,59.6893362497,
./stim/MorphM7_10_orig.jpg,126,,,,,0,126,126,126,,,,,,,,,,,,,,,,,,,7.32421875,-0.703125,1,0,0,0.903822183609,,,,,2015_Nov_05_1529,G,facesParametric,26,59.6893362497,
./stim/MorphF7_01_orig.jpg,127,,,,,0,127,127,127,,,,,,,,,,,,,,,,,,,7.32421875,-0.703125,0,0,1,13.3066849709,,,,,2015_Nov_05_1529,G,facesParametric,26,59.6893362497,
./stim/MorphM2_05_orig.jpg,128,,,,,0,128,128,128,,,,,,,,,,,,,,,,,,,7.32421875,-0.703125,0,0,1,2.64589190483,,,,,2015_Nov_05_1529,G,facesParametric,26,59.6893362497,
./stim/MorphM6_03_orig.jpg,129,,,,,0,129,129,129,,,,,,,,,,,,,,,,,,,7.32421875,-0.703125,0,0,1,1.30612492561,,,,,2015_Nov_05_1529,G,facesParametric,26,59.6893362497,
./stim/MorphM3_04_orig.jpg,130,,,,,0,130,130,130,,,,,,,,,,,,,,,,,,,7.32421875,-0.703125,1,0,0,0.870251178741,,,,,2015_Nov_05_1529,G,facesParametric,26,59.6893362497,
./stim/MorphM9_08_orig.jpg,131,,,,,0,131,131,131,,,,,,,,,,,,,,,,,,,7.32421875,-0.703125,1,0,0,1.00514101982,,,,,2015_Nov_05_1529,G,facesParametric,26,59.6893362497,
./stim/MorphM8_03_orig.jpg,132,,,,,0,132,132,132,,,,,,,,,,,,,,,,,,,7.32421875,-0.703125,0,0,1,1.97415280342,,,,,2015_Nov_05_1529,G,facesParametric,26,59.6893362497,
./stim/MorphM2_04_orig.jpg,133,,,,,0,133,133,133,,,,,,,,,,,,,,,,,,,7.32421875,-0.703125,0,0,1,2.15907621384,,,,,2015_Nov_05_1529,G,facesParametric,26,59.6893362497,
./stim/MorphM3_01_orig.jpg,134,,,,,0,134,134,134,,,,,,,,,,,,,,,,,,,7.32421875,-0.703125,1,0,0,0.954282045364,,,,,2015_Nov_05_1529,G,facesParametric,26,59.6893362497,
./stim/MorphF7_00_orig.jpg,135,,,,,0,135,135,135,,,,,,,,,,,,,,,,,,,7.32421875,-0.703125,1,0,0,0.802949905396,,,,,2015_Nov_05_1529,G,facesParametric,26,59.6893362497,
./stim/MorphM6_07_orig.jpg,136,,,,,0,136,136,136,,,,,,,,,,,,,,,,,,,7.32421875,-0.703125,0,0,1,4.32312893867,,,,,2015_Nov_05_1529,G,facesParametric,26,59.6893362497,
./stim/MorphF10_01_orig.jpg,137,,,,,0,137,137,137,,,,,,,,,,,,,,,,,,,7.32421875,-0.703125,0,0,1,1.10469794273,,,,,2015_Nov_05_1529,G,facesParametric,26,59.6893362497,
./stim/MorphM6_08_orig.jpg,138,,,,,0,138,138,138,,,,,,,,,,,,,,,,,,,7.32421875,-0.703125,1,0,0,1.38914608955,,,,,2015_Nov_05_1529,G,facesParametric,26,59.6893362497,
./stim/MorphM3_08_orig.jpg,139,,,,,0,139,139,139,,,,,,,,,,,,,,,,,,,7.32421875,-0.703125,1,0,0,1.55707001686,,,,,2015_Nov_05_1529,G,facesParametric,26,59.6893362497,
./stim/MorphM9_07_orig.jpg,140,,,,,0,140,140,140,,,,,,,,,,,,,,,,,,,7.32421875,-0.703125,0,0,1,1.70808792114,,,,,2015_Nov_05_1529,G,facesParametric,26,59.6893362497,
./stim/MorphM7_00_orig.jpg,141,,,,,0,141,141,141,,,,,,,,,,,,,,,,,,,7.32421875,-0.703125,0,0,1,3.08291101456,,,,,2015_Nov_05_1529,G,facesParametric,26,59.6893362497,
./stim/MorphF1_00_orig.jpg,142,,,,,0,142,142,142,,,,,,,,,,,,,,,,,,,7.32421875,-0.703125,0,0,1,0.870395898819,,,,,2015_Nov_05_1529,G,facesParametric,26,59.6893362497,
./stim/MorphF3_08_orig.jpg,143,,,,,0,143,143,143,,,,,,,,,,,,,,,,,,,7.32421875,-0.703125,1,0,0,1.32264399529,,,,,2015_Nov_05_1529,G,facesParametric,26,59.6893362497,
./stim/MorphF9_03_orig.jpg,144,,,,,0,144,144,144,,,,,,,,,,,,,,,,,,,7.32421875,-0.703125,0,0,1,15.2665770054,,,,,2015_Nov_05_1529,G,facesParametric,26,59.6893362497,
./stim/MorphM7_04_orig.jpg,145,,,,,0,145,145,145,,,,,,,,,,,,,,,,,,,7.32421875,-0.703125,1,0,0,2.57970905304,,,,,2015_Nov_05_1529,G,facesParametric,26,59.6893362497,
./stim/MorphM8_02_orig.jpg,146,,,,,0,146,146,146,,,,,,,,,,,,,,,,,,,7.32421875,-0.703125,1,0,0,1.37167000771,,,,,2015_Nov_05_1529,G,facesParametric,26,59.6893362497,
./stim/MorphF6_09_orig.jpg,147,,,,,0,147,147,147,,,,,,,,,,,,,,,,,,,7.32421875,-0.703125,1,0,0,0.98784995079,,,,,2015_Nov_05_1529,G,facesParametric,26,59.6893362497,
./stim/MorphF4_04_orig.jpg,148,,,,,0,148,148,148,,,,,,,,,,,,,,,,,,,7.32421875,-0.703125,0,0,1,1.27276206017,,,,,2015_Nov_05_1529,G,facesParametric,26,59.6893362497,
./stim/MorphF6_08_orig.jpg,149,,,,,0,149,149,149,,,,,,,,,,,,,,,,,,,7.32421875,-0.703125,1,0,0,1.18656182289,,,,,2015_Nov_05_1529,G,facesParametric,26,59.6893362497,
./stim/MorphM5_03_orig.jpg,150,,,,,0,150,150,150,,,,,,,,,,,,,,,,,,,7.32421875,-0.703125,1,0,0,1.15504789352,,,,,2015_Nov_05_1529,G,facesParametric,26,59.6893362497,
./stim/MorphF3_07_orig.jpg,151,,,,,0,151,151,151,,,,,,,,,,,,,,,,,,,7.32421875,-0.703125,1,0,0,1.18834686279,,,,,2015_Nov_05_1529,G,facesParametric,26,59.6893362497,
./stim/MorphM2_01_orig.jpg,152,,,,,0,152,152,152,,,,,,,,,,,,,,,,,,,7.32421875,-0.703125,0,0,1,4.12278485298,,,,,2015_Nov_05_1529,G,facesParametric,26,59.6893362497,
./stim/MorphM4_05_orig.jpg,153,,,,,0,153,153,153,,,,,,,,,,,,,,,,,,,7.32421875,-0.703125,1,0,0,4.40551114082,,,,,2015_Nov_05_1529,G,facesParametric,26,59.6893362497,
./stim/MorphF5_06_orig.jpg,154,,,,,0,154,154,154,,,,,,,,,,,,,,,,,,,7.32421875,-0.703125,1,0,0,2.2100379467,,,,,2015_Nov_05_1529,G,facesParametric,26,59.6893362497,
./stim/MorphF4_01_orig.jpg,155,,,,,0,155,155,155,,,,,,,,,,,,,,,,,,,7.32421875,-0.703125,0,0,1,2.37749385834,,,,,2015_Nov_05_1529,G,facesParametric,26,59.6893362497,
./stim/MorphF9_05_orig.jpg,156,,,,,0,156,156,156,,,,,,,,,,,,,,,,,,,7.32421875,-0.703125,1,0,0,1.18840789795,,,,,2015_Nov_05_1529,G,facesParametric,26,59.6893362497,
./stim/MorphF4_10_orig.jpg,157,,,,,0,157,157,157,,,,,,,,,,,,,,,,,,,7.32421875,-0.703125,1,0,0,1.00354194641,,,,,2015_Nov_05_1529,G,facesParametric,26,59.6893362497,
./stim/MorphM8_07_orig.jpg,158,,,,,0,158,158,158,,,,,,,,,,,,,,,,,,,7.32421875,-0.703125,1,0,0,1.07246994972,,,,,2015_Nov_05_1529,G,facesParametric,26,59.6893362497,
./stim/MorphF10_09_orig.jpg,159,,,,,0,159,159,159,,,,,,,,,,,,,,,,,,,7.32421875,-0.703125,1,0,0,1.03478503227,,,,,2015_Nov_05_1529,G,facesParametric,26,59.6893362497,
./stim/MorphF6_10_orig.jpg,160,,,,,0,160,160,160,,,,,,,,,,,,,,,,,,,7.32421875,-0.703125,1,0,0,1.07172107697,,,,,2015_Nov_05_1529,G,facesParametric,26,59.6893362497,
./stim/MorphM10_06_orig.jpg,161,,,,,0,161,161,161,,,,,,,,,,,,,,,,,,,7.32421875,-0.703125,1,0,0,1.08698701859,,,,,2015_Nov_05_1529,G,facesParametric,26,59.6893362497,
./stim/MorphM9_01_orig.jpg,162,,,,,0,162,162,162,,,,,,,,,,,,,,,,,,,7.32421875,-0.703125,0,0,1,1.43991613388,,,,,2015_Nov_05_1529,G,facesParametric,26,59.6893362497,
./stim/MorphF7_06_orig.jpg,163,,,,,0,163,163,163,,,,,,,,,,,,,,,,,,,7.32421875,-0.703125,1,0,0,1.02118706703,,,,,2015_Nov_05_1529,G,facesParametric,26,59.6893362497,
./stim/MorphF6_06_orig.jpg,164,,,,,0,164,164,164,,,,,,,,,,,,,,,,,,,7.32421875,-0.703125,1,0,0,0.868422985077,,,,,2015_Nov_05_1529,G,facesParametric,26,59.6893362497,
./stim/MorphF7_05_orig.jpg,165,,,,,0,165,165,165,,,,,,,,,,,,,,,,,,,7.32421875,-0.703125,0,0,1,25.2037479877,,,,,2015_Nov_05_1529,G,facesParametric,26,59.6893362497,
./stim/MorphM9_02_orig.jpg,166,,,,,0,166,166,166,,,,,,,,,,,,,,,,,,,7.32421875,-0.703125,0,0,1,0.88713312149,,,,,2015_Nov_05_1529,G,facesParametric,26,59.6893362497,
./stim/MorphM8_10_orig.jpg,167,,,,,0,167,167,167,,,,,,,,,,,,,,,,,,,7.32421875,-0.703125,1,0,0,0.786552906036,,,,,2015_Nov_05_1529,G,facesParametric,26,59.6893362497,
./stim/MorphM10_03_orig.jpg,168,,,,,0,168,168,168,,,,,,,,,,,,,,,,,,,7.32421875,-0.703125,1,0,0,0.886915922165,,,,,2015_Nov_05_1529,G,facesParametric,26,59.6893362497,
./stim/MorphF7_10_orig.jpg,169,,,,,0,169,169,169,,,,,,,,,,,,,,,,,,,7.32421875,-0.703125,1,0,0,1.00416684151,,,,,2015_Nov_05_1529,G,facesParametric,26,59.6893362497,
./stim/MorphM4_02_orig.jpg,170,,,,,0,170,170,170,,,,,,,,,,,,,,,,,,,7.32421875,-0.703125,0,0,1,1.23744487762,,,,,2015_Nov_05_1529,G,facesParametric,26,59.6893362497,
./stim/MorphF10_08_orig.jpg,171,,,,,0,171,171,171,,,,,,,,,,,,,,,,,,,7.32421875,-0.703125,1,0,0,0.918179035187,,,,,2015_Nov_05_1529,G,facesParametric,26,59.6893362497,
./stim/MorphF7_08_orig.jpg,172,,,,,0,172,172,172,,,,,,,,,,,,,,,,,,,7.32421875,-0.703125,1,0,0,3.60332608223,,,,,2015_Nov_05_1529,G,facesParametric,26,59.6893362497,
./stim/MorphM1_01_orig.jpg,173,,,,,0,173,173,173,,,,,,,,,,,,,,,,,,,7.32421875,-0.703125,0,0,1,4.95929503441,,,,,2015_Nov_05_1529,G,facesParametric,26,59.6893362497,
./stim/MorphF3_00_orig.jpg,174,,,,,0,174,174,174,,,,,,,,,,,,,,,,,,,7.32421875,-0.703125,0,0,1,1.0552380085,,,,,2015_Nov_05_1529,G,facesParametric,26,59.6893362497,
./stim/MorphF7_07_orig.jpg,175,,,,,0,175,175,175,,,,,,,,,,,,,,,,,,,7.32421875,-0.703125,1,0,0,0.784294128418,,,,,2015_Nov_05_1529,G,facesParametric,26,59.6893362497,
./stim/MorphM1_04_orig.jpg,176,,,,,0,176,176,176,,,,,,,,,,,,,,,,,,,7.32421875,-0.703125,0,0,1,1.12160110474,,,,,2015_Nov_05_1529,G,facesParametric,26,59.6893362497,
./stim/MorphM4_06_orig.jpg,177,,,,,0,177,177,177,,,,,,,,,,,,,,,,,,,7.32421875,-0.703125,1,0,0,9.75289797783,,,,,2015_Nov_05_1529,G,facesParametric,26,59.6893362497,
./stim/MorphM3_05_orig.jpg,178,,,,,0,178,178,178,,,,,,,,,,,,,,,,,,,7.32421875,-0.703125,1,0,0,0.853147029877,,,,,2015_Nov_05_1529,G,facesParametric,26,59.6893362497,
./stim/MorphM5_05_orig.jpg,179,,,,,0,179,179,179,,,,,,,,,,,,,,,,,,,7.32421875,-0.703125,1,0,0,1.00464892387,,,,,2015_Nov_05_1529,G,facesParametric,26,59.6893362497,
./stim/MorphM9_09_orig.jpg,180,,,,,0,180,180,180,,,,,,,,,,,,,,,,,,,7.32421875,-0.703125,0,0,1,6.25010609627,,,,,2015_Nov_05_1529,G,facesParametric,26,59.6893362497,
./stim/MorphM2_07_orig.jpg,181,,,,,0,181,181,181,,,,,,,,,,,,,,,,,,,7.32421875,-0.703125,0,0,1,1.39003896713,,,,,2015_Nov_05_1529,G,facesParametric,26,59.6893362497,
./stim/MorphF9_07_orig.jpg,182,,,,,0,182,182,182,,,,,,,,,,,,,,,,,,,7.32421875,-0.703125,1,0,0,10.4066331387,,,,,2015_Nov_05_1529,G,facesParametric,26,59.6893362497,
./stim/MorphF6_03_orig.jpg,183,,,,,0,183,183,183,,,,,,,,,,,,,,,,,,,7.32421875,-0.703125,1,0,0,0.836849927902,,,,,2015_Nov_05_1529,G,facesParametric,26,59.6893362497,
./stim/MorphF10_05_orig.jpg,184,,,,,0,184,184,184,,,,,,,,,,,,,,,,,,,7.32421875,-0.703125,1,0,0,0.88622713089,,,,,2015_Nov_05_1529,G,facesParametric,26,59.6893362497,
./stim/MorphM4_03_orig.jpg,185,,,,,0,185,185,185,,,,,,,,,,,,,,,,,,,7.32421875,-0.703125,1,0,0,1.27144598961,,,,,2015_Nov_05_1529,G,facesParametric,26,59.6893362497,
./stim/MorphF5_04_orig.jpg,186,,,,,0,186,186,186,,,,,,,,,,,,,,,,,,,7.32421875,-0.703125,0,0,1,0.954432010651,,,,,2015_Nov_05_1529,G,facesParametric,26,59.6893362497,
./stim/MorphF2_02_orig.jpg,187,,,,,0,187,187,187,,,,,,,,,,,,,,,,,,,7.32421875,-0.703125,0,0,1,1.22208094597,,,,,2015_Nov_05_1529,G,facesParametric,26,59.6893362497,
./stim/MorphM5_09_orig.jpg,188,,,,,0,188,188,188,,,,,,,,,,,,,,,,,,,7.32421875,-0.703125,0,0,1,1.58883714676,,,,,2015_Nov_05_1529,G,facesParametric,26,59.6893362497,
./stim/MorphF8_00_orig.jpg,189,,,,,0,189,189,189,,,,,,,,,,,,,,,,,,,7.32421875,-0.703125,0,0,1,0.970467090607,,,,,2015_Nov_05_1529,G,facesParametric,26,59.6893362497,
./stim/MorphF1_09_orig.jpg,190,,,,,0,190,190,190,,,,,,,,,,,,,,,,,,,7.32421875,-0.703125,0,0,1,1.03818202019,,,,,2015_Nov_05_1529,G,facesParametric,26,59.6893362497,
./stim/MorphM5_04_orig.jpg,191,,,,,0,191,191,191,,,,,,,,,,,,,,,,,,,7.32421875,-0.703125,1,0,0,1.1202018261,,,,,2015_Nov_05_1529,G,facesParametric,26,59.6893362497,
./stim/MorphM6_01_orig.jpg,192,,,,,0,192,192,192,,,,,,,,,,,,,,,,,,,7.32421875,-0.703125,0,0,1,1.90889191628,,,,,2015_Nov_05_1529,G,facesParametric,26,59.6893362497,
./stim/MorphF1_03_orig.jpg,193,,,,,0,193,193,193,,,,,,,,,,,,,,,,,,,7.32421875,-0.703125,1,0,0,2.07720804214,,,,,2015_Nov_05_1529,G,facesParametric,26,59.6893362497,
./stim/MorphM2_09_orig.jpg,194,,,,,0,194,194,194,,,,,,,,,,,,,,,,,,,7.32421875,-0.703125,1,0,0,1.7738070488,,,,,2015_Nov_05_1529,G,facesParametric,26,59.6893362497,
./stim/MorphF8_07_orig.jpg,195,,,,,0,195,195,195,,,,,,,,,,,,,,,,,,,7.32421875,-0.703125,1,0,0,1.23822712898,,,,,2015_Nov_05_1529,G,facesParametric,26,59.6893362497,
./stim/MorphF9_06_orig.jpg,196,,,,,0,196,196,196,,,,,,,,,,,,,,,,,,,7.32421875,-0.703125,1,0,0,6.60063099861,,,,,2015_Nov_05_1529,G,facesParametric,26,59.6893362497,
./stim/MorphF8_04_orig.jpg,197,,,,,0,197,197,197,,,,,,,,,,,,,,,,,,,7.32421875,-0.703125,1,0,0,1.79135203362,,,,,2015_Nov_05_1529,G,facesParametric,26,59.6893362497,
./stim/MorphF9_08_orig.jpg,198,,,,,0,198,198,198,,,,,,,,,,,,,,,,,,,7.32421875,-0.703125,0,0,1,1.20515012741,,,,,2015_Nov_05_1529,G,facesParametric,26,59.6893362497,
./stim/MorphF4_07_orig.jpg,199,,,,,0,199,199,199,,,,,,,,,,,,,,,,,,,7.32421875,-0.703125,1,0,0,1.08708286285,,,,,2015_Nov_05_1529,G,facesParametric,26,59.6893362497,
./stim/MorphM4_01_orig.jpg,200,,,,,0,200,200,200,,,,,,,,,,,,,,,,,,,7.32421875,-0.703125,0,0,1,1.15508794785,,,,,2015_Nov_05_1529,G,facesParametric,26,59.6893362497,
./stim/MorphM9_03_orig.jpg,201,,,,,0,201,201,201,,,,,,,,,,,,,,,,,,,7.32421875,-0.703125,0,0,1,1.02119493484,,,,,2015_Nov_05_1529,G,facesParametric,26,59.6893362497,
./stim/MorphM8_04_orig.jpg,202,,,,,0,202,202,202,,,,,,,,,,,,,,,,,,,7.32421875,-0.703125,0,0,1,4.38905501366,,,,,2015_Nov_05_1529,G,facesParametric,26,59.6893362497,
./stim/MorphF7_09_orig.jpg,203,,,,,0,203,203,203,,,,,,,,,,,,,,,,,,,7.32421875,-0.703125,1,0,0,0.92166185379,,,,,2015_Nov_05_1529,G,facesParametric,26,59.6893362497,
./stim/MorphF2_10_orig.jpg,204,,,,,0,204,204,204,,,,,,,,,,,,,,,,,,,7.32421875,-0.703125,1,0,0,0.818717002869,,,,,2015_Nov_05_1529,G,facesParametric,26,59.6893362497,
./stim/MorphF5_05_orig.jpg,205,,,,,0,205,205,205,,,,,,,,,,,,,,,,,,,7.32421875,-0.703125,0,0,1,8.02636504173,,,,,2015_Nov_05_1529,G,facesParametric,26,59.6893362497,
./stim/MorphF6_00_orig.jpg,206,,,,,0,206,206,206,,,,,,,,,,,,,,,,,,,7.32421875,-0.703125,0,0,1,5.73032093048,,,,,2015_Nov_05_1529,G,facesParametric,26,59.6893362497,
./stim/MorphM1_09_orig.jpg,207,,,,,0,207,207,207,,,,,,,,,,,,,,,,,,,7.32421875,-0.703125,1,0,0,6.51856994629,,,,,2015_Nov_05_1529,G,facesParametric,26,59.6893362497,
./stim/MorphF5_10_orig.jpg,208,,,,,0,208,208,208,,,,,,,,,,,,,,,,,,,7.32421875,-0.703125,1,0,0,0.853526830673,,,,,2015_Nov_05_1529,G,facesParametric,26,59.6893362497,
./stim/MorphF9_04_orig.jpg,209,,,,,0,209,209,209,,,,,,,,,,,,,,,,,,,7.32421875,-0.703125,0,0,1,6.08023023605,,,,,2015_Nov_05_1529,G,facesParametric,26,59.6893362497,
./stim/MorphM10_09_orig.jpg,210,,,,,0,210,210,210,,,,,,,,,,,,,,,,,,,7.32421875,-0.703125,1,0,0,1.08882784843,,,,,2015_Nov_05_1529,G,facesParametric,26,59.6893362497,
./stim/MorphM1_08_orig.jpg,211,,,,,0,211,211,211,,,,,,,,,,,,,,,,,,,7.32421875,-0.703125,1,0,0,1.84234809875,,,,,2015_Nov_05_1529,G,facesParametric,26,59.6893362497,
./stim/MorphF10_10_orig.jpg,212,,,,,0,212,212,212,,,,,,,,,,,,,,,,,,,7.32421875,-0.703125,1,0,0,3.09712791443,,,,,2015_Nov_05_1529,G,facesParametric,26,59.6893362497,
./stim/MorphM9_04_orig.jpg,213,,,,,0,213,213,213,,,,,,,,,,,,,,,,,,,7.32421875,-0.703125,0,0,1,1.22230291367,,,,,2015_Nov_05_1529,G,facesParametric,26,59.6893362497,
./stim/MorphM8_06_orig.jpg,214,,,,,0,214,214,214,,,,,,,,,,,,,,,,,,,7.32421875,-0.703125,1,0,0,0.885147809982,,,,,2015_Nov_05_1529,G,facesParametric,26,59.6893362497,
./stim/MorphF10_07_orig.jpg,215,,,,,0,215,215,215,,,,,,,,,,,,,,,,,,,7.32421875,-0.703125,1,0,0,1.00504493713,,,,,2015_Nov_05_1529,G,facesParametric,26,59.6893362497,
./stim/MorphM5_01_orig.jpg,216,,,,,0,216,216,216,,,,,,,,,,,,,,,,,,,7.32421875,-0.703125,1,0,0,0.936758041382,,,,,2015_Nov_05_1529,G,facesParametric,26,59.6893362497,
./stim/MorphF2_08_orig.jpg,217,,,,,0,217,217,217,,,,,,,,,,,,,,,,,,,7.32421875,-0.703125,1,0,0,0.937648057938,,,,,2015_Nov_05_1529,G,facesParametric,26,59.6893362497,
./stim/MorphM6_04_orig.jpg,218,,,,,0,218,218,218,,,,,,,,,,,,,,,,,,,7.32421875,-0.703125,0,0,1,4.72375011444,,,,,2015_Nov_05_1529,G,facesParametric,26,59.6893362497,
./stim/MorphF5_08_orig.jpg,219,,,,,0,219,219,219,,,,,,,,,,,,,,,,,,,7.32421875,-0.703125,1,0,0,1.6405749321,,,,,2015_Nov_05_1529,G,facesParametric,26,59.6893362497,
,,,,,,,,,,,,,,,,,,,,,,,,,,,,,,,,,,return,9.65382695198,,,2015_Nov_05_1529,G,facesParametric,26,59.6893362497,
./stim/MorphM8_01_orig.jpg,0,,,,,,,,,0,0,0,0,,,,,,,,,,,,,,,7.353515625,-0.732421875,0,0,1,7.24790501595,,,,,2015_Nov_05_1529,G,facesParametric,26,59.6893362497,
./stim/MorphM3_10_orig.jpg,1,,,,,,,,,0,1,1,1,,,,,,,,,,,,,,,7.353515625,-0.732421875,1,0,0,0.90175318718,,,,,2015_Nov_05_1529,G,facesParametric,26,59.6893362497,
./stim/MorphF7_01_orig.jpg,2,,,,,,,,,0,2,2,2,,,,,,,,,,,,,,,7.353515625,-0.732421875,0,0,1,1.15336704254,,,,,2015_Nov_05_1529,G,facesParametric,26,59.6893362497,
./stim/MorphM10_05_orig.jpg,3,,,,,,,,,0,3,3,3,,,,,,,,,,,,,,,7.353515625,-0.732421875,1,0,0,1.45524907112,,,,,2015_Nov_05_1529,G,facesParametric,26,59.6893362497,
./stim/MorphF4_09_orig.jpg,4,,,,,,,,,0,4,4,4,,,,,,,,,,,,,,,7.353515625,-0.732421875,1,0,0,0.804414987564,,,,,2015_Nov_05_1529,G,facesParametric,26,59.6893362497,
./stim/MorphM2_04_orig.jpg,5,,,,,,,,,0,5,5,5,,,,,,,,,,,,,,,7.353515625,-0.732421875,0,0,1,0.900547981262,,,,,2015_Nov_05_1529,G,facesParametric,26,59.6893362497,
./stim/MorphM1_00_orig.jpg,6,,,,,,,,,0,6,6,6,,,,,,,,,,,,,,,7.353515625,-0.732421875,0,0,1,2.84704995155,,,,,2015_Nov_05_1529,G,facesParametric,26,59.6893362497,
./stim/MorphM4_02_orig.jpg,7,,,,,,,,,0,7,7,7,,,,,,,,,,,,,,,7.353515625,-0.732421875,0,0,1,1.35657191277,,,,,2015_Nov_05_1529,G,facesParametric,26,59.6893362497,
./stim/MorphM3_09_orig.jpg,8,,,,,,,,,0,8,8,8,,,,,,,,,,,,,,,7.353515625,-0.732421875,1,0,0,0.819620132446,,,,,2015_Nov_05_1529,G,facesParametric,26,59.6893362497,
./stim/MorphF5_04_orig.jpg,9,,,,,,,,,0,9,9,9,,,,,,,,,,,,,,,7.353515625,-0.732421875,0,0,1,1.28844189644,,,,,2015_Nov_05_1529,G,facesParametric,26,59.6893362497,
./stim/MorphM8_08_orig.jpg,10,,,,,,,,,0,10,10,10,,,,,,,,,,,,,,,7.353515625,-0.732421875,1,0,0,0.903593063354,,,,,2015_Nov_05_1529,G,facesParametric,26,59.6893362497,
./stim/MorphF10_08_orig.jpg,11,,,,,,,,,0,11,11,11,,,,,,,,,,,,,,,7.353515625,-0.732421875,1,0,0,0.819622993469,,,,,2015_Nov_05_1529,G,facesParametric,26,59.6893362497,
./stim/MorphF2_06_orig.jpg,12,,,,,,,,,0,12,12,12,,,,,,,,,,,,,,,7.353515625,-0.732421875,1,0,0,1.13801217079,,,,,2015_Nov_05_1529,G,facesParametric,26,59.6893362497,
./stim/MorphF10_01_orig.jpg,13,,,,,,,,,0,13,13,13,,,,,,,,,,,,,,,7.353515625,-0.732421875,0,0,1,1.1200530529,,,,,2015_Nov_05_1529,G,facesParametric,26,59.6893362497,
./stim/MorphM9_04_orig.jpg,14,,,,,,,,,0,14,14,14,,,,,,,,,,,,,,,7.353515625,-0.732421875,0,0,1,3.13284802437,,,,,2015_Nov_05_1529,G,facesParametric,26,59.6893362497,
./stim/MorphM10_09_orig.jpg,15,,,,,,,,,0,15,15,15,,,,,,,,,,,,,,,7.353515625,-0.732421875,1,0,0,0.786200046539,,,,,2015_Nov_05_1529,G,facesParametric,26,59.6893362497,
./stim/MorphM5_10_orig.jpg,16,,,,,,,,,0,16,16,16,,,,,,,,,,,,,,,7.353515625,-0.732421875,1,0,0,1.10548686981,,,,,2015_Nov_05_1529,G,facesParametric,26,59.6893362497,
./stim/MorphM2_06_orig.jpg,17,,,,,,,,,0,17,17,17,,,,,,,,,,,,,,,7.353515625,-0.732421875,1,0,0,2.02547693253,,,,,2015_Nov_05_1529,G,facesParametric,26,59.6893362497,
./stim/MorphF1_04_orig.jpg,18,,,,,,,,,0,18,18,18,,,,,,,,,,,,,,,7.353515625,-0.732421875,0,0,1,1.30604982376,,,,,2015_Nov_05_1529,G,facesParametric,26,59.6893362497,
./stim/MorphF8_06_orig.jpg,19,,,,,,,,,0,19,19,19,,,,,,,,,,,,,,,7.353515625,-0.732421875,1,0,0,1.49057579041,,,,,2015_Nov_05_1529,G,facesParametric,26,59.6893362497,
./stim/MorphM8_10_orig.jpg,20,,,,,,,,,0,20,20,20,,,,,,,,,,,,,,,7.353515625,-0.732421875,1,0,0,0.735900163651,,,,,2015_Nov_05_1529,G,facesParametric,26,59.6893362497,
./stim/MorphM1_10_orig.jpg,21,,,,,,,,,0,21,21,21,,,,,,,,,,,,,,,7.353515625,-0.732421875,1,0,0,0.870464086533,,,,,2015_Nov_05_1529,G,facesParametric,26,59.6893362497,
./stim/MorphM7_10_orig.jpg,22,,,,,,,,,0,22,22,22,,,,,,,,,,,,,,,7.353515625,-0.732421875,1,0,0,0.769695997238,,,,,2015_Nov_05_1529,G,facesParametric,26,59.6893362497,
./stim/MorphM3_05_orig.jpg,23,,,,,,,,,0,23,23,23,,,,,,,,,,,,,,,7.353515625,-0.732421875,0,0,1,1.37355208397,,,,,2015_Nov_05_1529,G,facesParametric,26,59.6893362497,
./stim/MorphF3_02_orig.jpg,24,,,,,,,,,0,24,24,24,,,,,,,,,,,,,,,7.353515625,-0.732421875,0,0,1,1.68996095657,,,,,2015_Nov_05_1529,G,facesParametric,26,59.6893362497,
./stim/MorphM6_07_orig.jpg,25,,,,,,,,,0,25,25,25,,,,,,,,,,,,,,,7.353515625,-0.732421875,1,0,0,1.40685105324,,,,,2015_Nov_05_1529,G,facesParametric,26,59.6893362497,
./stim/MorphM9_02_orig.jpg,26,,,,,,,,,0,26,26,26,,,,,,,,,,,,,,,7.353515625,-0.732421875,0,0,1,1.2199139595,,,,,2015_Nov_05_1529,G,facesParametric,26,59.6893362497,
./stim/MorphM6_09_orig.jpg,27,,,,,,,,,0,27,27,27,,,,,,,,,,,,,,,7.353515625,-0.732421875,1,0,0,1.7573890686,,,,,2015_Nov_05_1529,G,facesParametric,26,59.6893362497,
./stim/MorphF5_01_orig.jpg,28,,,,,,,,,0,28,28,28,,,,,,,,,,,,,,,7.353515625,-0.732421875,0,0,1,1.13659501076,,,,,2015_Nov_05_1529,G,facesParametric,26,59.6893362497,
./stim/MorphM1_06_orig.jpg,29,,,,,,,,,0,29,29,29,,,,,,,,,,,,,,,7.353515625,-0.732421875,0,0,1,7.15400290489,,,,,2015_Nov_05_1529,G,facesParametric,26,59.6893362497,
./stim/MorphF9_02_orig.jpg,30,,,,,,,,,0,30,30,30,,,,,,,,,,,,,,,7.353515625,-0.732421875,0,0,1,1.84261608124,,,,,2015_Nov_05_1529,G,facesParametric,26,59.6893362497,
./stim/MorphM8_07_orig.jpg,31,,,,,,,,,0,31,31,31,,,,,,,,,,,,,,,7.353515625,-0.732421875,1,0,0,4.87439990044,,,,,2015_Nov_05_1529,G,facesParametric,26,59.6893362497,
./stim/MorphM1_08_orig.jpg,32,,,,,,,,,0,32,32,32,,,,,,,,,,,,,,,7.353515625,-0.732421875,1,0,0,2.44434285164,,,,,2015_Nov_05_1529,G,facesParametric,26,59.6893362497,
./stim/MorphM6_10_orig.jpg,33,,,,,,,,,0,33,33,33,,,,,,,,,,,,,,,7.353515625,-0.732421875,1,0,0,1.28748703003,,,,,2015_Nov_05_1529,G,facesParametric,26,59.6893362497,
./stim/MorphF8_05_orig.jpg,34,,,,,,,,,0,34,34,34,,,,,,,,,,,,,,,7.353515625,-0.732421875,0,0,1,1.94328403473,,,,,2015_Nov_05_1529,G,facesParametric,26,59.6893362497,
./stim/MorphF4_00_orig.jpg,35,,,,,,,,,0,35,35,35,,,,,,,,,,,,,,,7.353515625,-0.732421875,0,0,1,0.769749164581,,,,,2015_Nov_05_1529,G,facesParametric,26,59.6893362497,
./stim/MorphF2_00_orig.jpg,36,,,,,,,,,0,36,36,36,,,,,,,,,,,,,,,7.353515625,-0.732421875,0,0,1,1.28885507584,,,,,2015_Nov_05_1529,G,facesParametric,26,59.6893362497,
./stim/MorphF5_09_orig.jpg,37,,,,,,,,,0,37,37,37,,,,,,,,,,,,,,,7.353515625,-0.732421875,1,0,0,1.40570116043,,,,,2015_Nov_05_1529,G,facesParametric,26,59.6893362497,
./stim/MorphM4_03_orig.jpg,38,,,,,,,,,0,38,38,38,,,,,,,,,,,,,,,7.353515625,-0.732421875,0,0,1,2.56246495247,,,,,2015_Nov_05_1529,G,facesParametric,26,59.6893362497,
./stim/MorphM6_08_orig.jpg,39,,,,,,,,,0,39,39,39,,,,,,,,,,,,,,,7.353515625,-0.732421875,0,0,1,1.90893387794,,,,,2015_Nov_05_1529,G,facesParametric,26,59.6893362497,
./stim/MorphF3_09_orig.jpg,40,,,,,,,,,0,40,40,40,,,,,,,,,,,,,,,7.353515625,-0.732421875,1,0,0,3.33437800407,,,,,2015_Nov_05_1529,G,facesParametric,26,59.6893362497,
./stim/MorphM10_02_orig.jpg,41,,,,,,,,,0,41,41,41,,,,,,,,,,,,,,,7.353515625,-0.732421875,0,0,1,1.02087903023,,,,,2015_Nov_05_1529,G,facesParametric,26,59.6893362497,
./stim/MorphM6_00_orig.jpg,42,,,,,,,,,0,42,42,42,,,,,,,,,,,,,,,7.353515625,-0.732421875,0,0,1,0.919929981232,,,,,2015_Nov_05_1529,G,facesParametric,26,59.6893362497,
./stim/MorphM2_05_orig.jpg,43,,,,,,,,,0,43,43,43,,,,,,,,,,,,,,,7.353515625,-0.732421875,0,0,1,0.954081058502,,,,,2015_Nov_05_1529,G,facesParametric,26,59.6893362497,
./stim/MorphF8_04_orig.jpg,44,,,,,,,,,0,44,44,44,,,,,,,,,,,,,,,7.353515625,-0.732421875,0,0,1,7.33952093124,,,,,2015_Nov_05_1529,G,facesParametric,26,59.6893362497,
./stim/MorphM1_03_orig.jpg,45,,,,,,,,,0,45,45,45,,,,,,,,,,,,,,,7.353515625,-0.732421875,0,0,1,1.0380589962,,,,,2015_Nov_05_1529,G,facesParametric,26,59.6893362497,
./stim/MorphF8_09_orig.jpg,46,,,,,,,,,0,46,46,46,,,,,,,,,,,,,,,7.353515625,-0.732421875,1,0,0,1.05437397957,,,,,2015_Nov_05_1529,G,facesParametric,26,59.6893362497,
./stim/MorphM5_02_orig.jpg,47,,,,,,,,,0,47,47,47,,,,,,,,,,,,,,,7.353515625,-0.732421875,1,0,0,0.985940933228,,,,,2015_Nov_05_1529,G,facesParametric,26,59.6893362497,
./stim/MorphM7_06_orig.jpg,48,,,,,,,,,0,48,48,48,,,,,,,,,,,,,,,7.353515625,-0.732421875,1,0,0,0.95405292511,,,,,2015_Nov_05_1529,G,facesParametric,26,59.6893362497,
./stim/MorphM10_04_orig.jpg,49,,,,,,,,,0,49,49,49,,,,,,,,,,,,,,,7.353515625,-0.732421875,1,0,0,17.781031847,,,,,2015_Nov_05_1529,G,facesParametric,26,59.6893362497,
./stim/MorphM8_04_orig.jpg,50,,,,,,,,,0,50,50,50,,,,,,,,,,,,,,,7.353515625,-0.732421875,1,0,0,1.32273006439,,,,,2015_Nov_05_1529,G,facesParametric,26,59.6893362497,
./stim/MorphM7_08_orig.jpg,51,,,,,,,,,0,51,51,51,,,,,,,,,,,,,,,7.353515625,-0.732421875,1,0,0,1.3060259819,,,,,2015_Nov_05_1529,G,facesParametric,26,59.6893362497,
./stim/MorphM4_09_orig.jpg,52,,,,,,,,,0,52,52,52,,,,,,,,,,,,,,,7.353515625,-0.732421875,1,0,0,1.32304406166,,,,,2015_Nov_05_1529,G,facesParametric,26,59.6893362497,
./stim/MorphF8_02_orig.jpg,53,,,,,,,,,0,53,53,53,,,,,,,,,,,,,,,7.353515625,-0.732421875,0,0,1,0.987689971924,,,,,2015_Nov_05_1529,G,facesParametric,26,59.6893362497,
./stim/MorphF2_01_orig.jpg,54,,,,,,,,,0,54,54,54,,,,,,,,,,,,,,,7.353515625,-0.732421875,0,0,1,0.820425033569,,,,,2015_Nov_05_1529,G,facesParametric,26,59.6893362497,
./stim/MorphF9_01_orig.jpg,55,,,,,,,,,0,55,55,55,,,,,,,,,,,,,,,7.353515625,-0.732421875,0,0,1,1.40398383141,,,,,2015_Nov_05_1529,G,facesParametric,26,59.6893362497,
./stim/MorphF3_06_orig.jpg,56,,,,,,,,,0,56,56,56,,,,,,,,,,,,,,,7.353515625,-0.732421875,0,0,1,0.920045852661,,,,,2015_Nov_05_1529,G,facesParametric,26,59.6893362497,
./stim/MorphF6_02_orig.jpg,57,,,,,,,,,0,57,57,57,,,,,,,,,,,,,,,7.353515625,-0.732421875,1,0,0,0.903859138489,,,,,2015_Nov_05_1529,G,facesParametric,26,59.6893362497,
./stim/MorphM3_01_orig.jpg,58,,,,,,,,,0,58,58,58,,,,,,,,,,,,,,,7.353515625,-0.732421875,0,0,1,3.33348608017,,,,,2015_Nov_05_1529,G,facesParametric,26,59.6893362497,
./stim/MorphM8_06_orig.jpg,59,,,,,,,,,0,59,59,59,,,,,,,,,,,,,,,7.353515625,-0.732421875,1,0,0,1.40677499771,,,,,2015_Nov_05_1529,G,facesParametric,26,59.6893362497,
./stim/MorphF4_03_orig.jpg,60,,,,,,,,,0,60,60,60,,,,,,,,,,,,,,,7.353515625,-0.732421875,0,0,1,2.32854318619,,,,,2015_Nov_05_1529,G,facesParametric,26,59.6893362497,
./stim/MorphF6_09_orig.jpg,61,,,,,,,,,0,61,61,61,,,,,,,,,,,,,,,7.353515625,-0.732421875,1,0,0,1.32371807098,,,,,2015_Nov_05_1529,G,facesParametric,26,59.6893362497,
./stim/MorphM9_01_orig.jpg,62,,,,,,,,,0,62,62,62,,,,,,,,,,,,,,,7.353515625,-0.732421875,0,0,1,0.917309045792,,,,,2015_Nov_05_1529,G,facesParametric,26,59.6893362497,
./stim/MorphM5_03_orig.jpg,63,,,,,,,,,0,63,63,63,,,,,,,,,,,,,,,7.353515625,-0.732421875,0,0,1,1.25617194176,,,,,2015_Nov_05_1529,G,facesParametric,26,59.6893362497,
./stim/MorphM4_05_orig.jpg,64,,,,,,,,,0,64,64,64,,,,,,,,,,,,,,,7.353515625,-0.732421875,1,0,0,2.96458983421,,,,,2015_Nov_05_1529,G,facesParametric,26,59.6893362497,
./stim/MorphF4_08_orig.jpg,65,,,,,,,,,0,65,65,65,,,,,,,,,,,,,,,7.353515625,-0.732421875,1,0,0,2.59486699104,,,,,2015_Nov_05_1529,G,facesParametric,26,59.6893362497,
./stim/MorphM8_05_orig.jpg,66,,,,,,,,,0,66,66,66,,,,,,,,,,,,,,,7.353515625,-0.732421875,1,0,0,1.22219395638,,,,,2015_Nov_05_1529,G,facesParametric,26,59.6893362497,
./stim/MorphM7_04_orig.jpg,67,,,,,,,,,0,67,67,67,,,,,,,,,,,,,,,7.353515625,-0.732421875,0,0,1,1.82561612129,,,,,2015_Nov_05_1529,G,facesParametric,26,59.6893362497,
./stim/MorphM9_10_orig.jpg,68,,,,,,,,,0,68,68,68,,,,,,,,,,,,,,,7.353515625,-0.732421875,1,0,0,3.23148918152,,,,,2015_Nov_05_1529,G,facesParametric,26,59.6893362497,
./stim/MorphM10_06_orig.jpg,69,,,,,,,,,0,69,69,69,,,,,,,,,,,,,,,7.353515625,-0.732421875,1,0,0,1.37288713455,,,,,2015_Nov_05_1529,G,facesParametric,26,59.6893362497,
./stim/MorphM3_02_orig.jpg,70,,,,,,,,,0,70,70,70,,,,,,,,,,,,,,,7.353515625,-0.732421875,0,0,1,1.20659589767,,,,,2015_Nov_05_1529,G,facesParametric,26,59.6893362497,
./stim/MorphM2_09_orig.jpg,71,,,,,,,,,0,71,71,71,,,,,,,,,,,,,,,7.353515625,-0.732421875,1,0,0,1.79211497307,,,,,2015_Nov_05_1529,G,facesParametric,26,59.6893362497,
./stim/MorphM7_07_orig.jpg,72,,,,,,,,,0,72,72,72,,,,,,,,,,,,,,,7.353515625,-0.732421875,1,0,0,1.42263793945,,,,,2015_Nov_05_1529,G,facesParametric,26,59.6893362497,
./stim/MorphF7_04_orig.jpg,73,,,,,,,,,0,73,73,73,,,,,,,,,,,,,,,7.353515625,-0.732421875,1,0,0,15.5014650822,,,,,2015_Nov_05_1529,G,facesParametric,26,59.6893362497,
./stim/MorphF9_07_orig.jpg,74,,,,,,,,,0,74,74,74,,,,,,,,,,,,,,,7.353515625,-0.732421875,1,0,0,2.61342310905,,,,,2015_Nov_05_1529,G,facesParametric,26,59.6893362497,
./stim/MorphF6_01_orig.jpg,75,,,,,,,,,0,75,75,75,,,,,,,,,,,,,,,7.353515625,-0.732421875,0,0,1,2.41210079193,,,,,2015_Nov_05_1529,G,facesParametric,26,59.6893362497,
./stim/MorphF10_04_orig.jpg,76,,,,,,,,,0,76,76,76,,,,,,,,,,,,,,,7.353515625,-0.732421875,1,0,0,2.16055297852,,,,,2015_Nov_05_1529,G,facesParametric,26,59.6893362497,
./stim/MorphF2_04_orig.jpg,77,,,,,,,,,0,77,77,77,,,,,,,,,,,,,,,7.353515625,-0.732421875,1,0,0,3.01568388939,,,,,2015_Nov_05_1529,G,facesParametric,26,59.6893362497,
./stim/MorphM9_03_orig.jpg,78,,,,,,,,,0,78,78,78,,,,,,,,,,,,,,,7.353515625,-0.732421875,0,0,1,2.46131110191,,,,,2015_Nov_05_1529,G,facesParametric,26,59.6893362497,
./stim/MorphF7_09_orig.jpg,79,,,,,,,,,0,79,79,79,,,,,,,,,,,,,,,7.353515625,-0.732421875,1,0,0,0.920437097549,,,,,2015_Nov_05_1529,G,facesParametric,26,59.6893362497,
./stim/MorphF1_08_orig.jpg,80,,,,,,,,,0,80,80,80,,,,,,,,,,,,,,,7.353515625,-0.732421875,1,0,0,4.97650313377,,,,,2015_Nov_05_1529,G,facesParametric,26,59.6893362497,
./stim/MorphM1_02_orig.jpg,81,,,,,,,,,0,81,81,81,,,,,,,,,,,,,,,7.353515625,-0.732421875,0,0,1,1.00411987305,,,,,2015_Nov_05_1529,G,facesParametric,26,59.6893362497,
./stim/MorphF2_10_orig.jpg,82,,,,,,,,,0,82,82,82,,,,,,,,,,,,,,,7.353515625,-0.732421875,1,0,0,1.38919901848,,,,,2015_Nov_05_1529,G,facesParametric,26,59.6893362497,
./stim/MorphF3_01_orig.jpg,83,,,,,,,,,0,83,83,83,,,,,,,,,,,,,,,7.353515625,-0.732421875,0,0,1,2.69517302513,,,,,2015_Nov_05_1529,G,facesParametric,26,59.6893362497,
./stim/MorphF4_01_orig.jpg,84,,,,,,,,,0,84,84,84,,,,,,,,,,,,,,,7.353515625,-0.732421875,0,0,1,0.937464952469,,,,,2015_Nov_05_1529,G,facesParametric,26,59.6893362497,
./stim/MorphM4_07_orig.jpg,85,,,,,,,,,0,85,85,85,,,,,,,,,,,,,,,7.353515625,-0.732421875,1,0,0,2.29289007187,,,,,2015_Nov_05_1529,G,facesParametric,26,59.6893362497,
./stim/MorphM10_08_orig.jpg,86,,,,,,,,,0,86,86,86,,,,,,,,,,,,,,,7.353515625,-0.732421875,1,0,0,0.919086933136,,,,,2015_Nov_05_1529,G,facesParametric,26,59.6893362497,
./stim/MorphM9_07_orig.jpg,87,,,,,,,,,0,87,87,87,,,,,,,,,,,,,,,7.353515625,-0.732421875,0,0,1,1.22206902504,,,,,2015_Nov_05_1529,G,facesParametric,26,59.6893362497,
./stim/MorphF1_06_orig.jpg,88,,,,,,,,,0,88,88,88,,,,,,,,,,,,,,,7.353515625,-0.732421875,0,0,1,6.46750807762,,,,,2015_Nov_05_1529,G,facesParametric,26,59.6893362497,
./stim/MorphM6_01_orig.jpg,89,,,,,,,,,0,89,89,89,,,,,,,,,,,,,,,7.353515625,-0.732421875,0,0,1,0.920639038086,,,,,2015_Nov_05_1529,G,facesParametric,26,59.6893362497,
./stim/MorphM9_05_orig.jpg,90,,,,,,,,,0,90,90,90,,,,,,,,,,,,,,,7.353515625,-0.732421875,0,0,1,1.58934998512,,,,,2015_Nov_05_1529,G,facesParametric,26,59.6893362497,
./stim/MorphM5_04_orig.jpg,91,,,,,,,,,0,91,91,91,,,,,,,,,,,,,,,7.353515625,-0.732421875,0,0,1,1.57216691971,,,,,2015_Nov_05_1529,G,facesParametric,26,59.6893362497,
./stim/MorphF5_10_orig.jpg,92,,,,,,,,,0,92,92,92,,,,,,,,,,,,,,,7.353515625,-0.732421875,1,0,0,1.35508704185,,,,,2015_Nov_05_1529,G,facesParametric,26,59.6893362497,
./stim/MorphF10_05_orig.jpg,93,,,,,,,,,0,93,93,93,,,,,,,,,,,,,,,7.353515625,-0.732421875,1,0,0,1.44017410278,,,,,2015_Nov_05_1529,G,facesParametric,26,59.6893362497,
./stim/MorphF8_03_orig.jpg,94,,,,,,,,,0,94,94,94,,,,,,,,,,,,,,,7.353515625,-0.732421875,0,0,1,0.904026985168,,,,,2015_Nov_05_1529,G,facesParametric,26,59.6893362497,
./stim/MorphF5_07_orig.jpg,95,,,,,,,,,0,95,95,95,,,,,,,,,,,,,,,7.353515625,-0.732421875,0,0,1,4.57275509834,,,,,2015_Nov_05_1529,G,facesParametric,26,59.6893362497,
./stim/MorphF2_09_orig.jpg,96,,,,,,,,,0,96,96,96,,,,,,,,,,,,,,,7.353515625,-0.732421875,1,0,0,1.77538895607,,,,,2015_Nov_05_1529,G,facesParametric,26,59.6893362497,
./stim/MorphF7_02_orig.jpg,97,,,,,,,,,0,97,97,97,,,,,,,,,,,,,,,7.353515625,-0.732421875,0,0,1,10.6576240063,,,,,2015_Nov_05_1529,G,facesParametric,26,59.6893362497,
./stim/MorphM5_07_orig.jpg,98,,,,,,,,,0,98,98,98,,,,,,,,,,,,,,,7.353515625,-0.732421875,0,0,1,1.75815081596,,,,,2015_Nov_05_1529,G,facesParametric,26,59.6893362497,
./stim/MorphM6_05_orig.jpg,99,,,,,,,,,0,99,99,99,,,,,,,,,,,,,,,7.353515625,-0.732421875,0,0,1,13.1549470425,,,,,2015_Nov_05_1529,G,facesParametric,26,59.6893362497,
./stim/MorphF4_02_orig.jpg,100,,,,,,,,,0,100,100,100,,,,,,,,,,,,,,,7.353515625,-0.732421875,0,0,1,1.08783888817,,,,,2015_Nov_05_1529,G,facesParametric,26,59.6893362497,
./stim/MorphF2_03_orig.jpg,101,,,,,,,,,0,101,101,101,,,,,,,,,,,,,,,7.353515625,-0.732421875,0,0,1,11.477437973,,,,,2015_Nov_05_1529,G,facesParametric,26,59.6893362497,
./stim/MorphF9_09_orig.jpg,102,,,,,,,,,0,102,102,102,,,,,,,,,,,,,,,7.353515625,-0.732421875,1,0,0,1.10467600822,,,,,2015_Nov_05_1529,G,facesParametric,26,59.6893362497,
./stim/MorphF1_09_orig.jpg,103,,,,,,,,,0,103,103,103,,,,,,,,,,,,,,,7.353515625,-0.732421875,0,0,1,0.887201070786,,,,,2015_Nov_05_1529,G,facesParametric,26,59.6893362497,
./stim/MorphM2_01_orig.jpg,104,,,,,,,,,0,104,104,104,,,,,,,,,,,,,,,7.353515625,-0.732421875,1,0,0,1.28847503662,,,,,2015_Nov_05_1529,G,facesParametric,26,59.6893362497,
./stim/MorphF9_05_orig.jpg,105,,,,,,,,,0,105,105,105,,,,,,,,,,,,,,,7.353515625,-0.732421875,1,0,0,14.6299901009,,,,,2015_Nov_05_1529,G,facesParametric,26,59.6893362497,
./stim/MorphM6_04_orig.jpg,106,,,,,,,,,0,106,106,106,,,,,,,,,,,,,,,7.353515625,-0.732421875,0,0,1,5.46243309975,,,,,2015_Nov_05_1529,G,facesParametric,26,59.6893362497,
./stim/MorphM2_10_orig.jpg,107,,,,,,,,,0,107,107,107,,,,,,,,,,,,,,,7.353515625,-0.732421875,1,0,0,0.853009939194,,,,,2015_Nov_05_1529,G,facesParametric,26,59.6893362497,
./stim/MorphM9_09_orig.jpg,108,,,,,,,,,0,108,108,108,,,,,,,,,,,,,,,7.353515625,-0.732421875,1,0,0,0.887090921402,,,,,2015_Nov_05_1529,G,facesParametric,26,59.6893362497,
./stim/MorphF3_08_orig.jpg,109,,,,,,,,,0,109,109,109,,,,,,,,,,,,,,,7.353515625,-0.732421875,1,0,0,1.92498087883,,,,,2015_Nov_05_1529,G,facesParametric,26,59.6893362497,
./stim/MorphM5_01_orig.jpg,110,,,,,,,,,0,110,110,110,,,,,,,,,,,,,,,7.353515625,-0.732421875,1,0,0,1.00422692299,,,,,2015_Nov_05_1529,G,facesParametric,26,59.6893362497,
./stim/MorphM1_01_orig.jpg,111,,,,,,,,,0,111,111,111,,,,,,,,,,,,,,,7.353515625,-0.732421875,0,0,1,2.98271489143,,,,,2015_Nov_05_1529,G,facesParametric,26,59.6893362497,
./stim/MorphM5_09_orig.jpg,112,,,,,,,,,0,112,112,112,,,,,,,,,,,,,,,7.353515625,-0.732421875,1,0,0,1.01781392097,,,,,2015_Nov_05_1529,G,facesParametric,26,59.6893362497,
./stim/MorphF2_05_orig.jpg,113,,,,,,,,,0,113,113,113,,,,,,,,,,,,,,,7.353515625,-0.732421875,0,0,1,1.30647301674,,,,,2015_Nov_05_1529,G,facesParametric,26,59.6893362497,
./stim/MorphM4_04_orig.jpg,114,,,,,,,,,0,114,114,114,,,,,,,,,,,,,,,7.353515625,-0.732421875,0,0,1,1.10460305214,,,,,2015_Nov_05_1529,G,facesParametric,26,59.6893362497,
./stim/MorphF1_00_orig.jpg,115,,,,,,,,,0,115,115,115,,,,,,,,,,,,,,,7.353515625,-0.732421875,0,0,1,1.07052612305,,,,,2015_Nov_05_1529,G,facesParametric,26,59.6893362497,
./stim/MorphM9_06_orig.jpg,116,,,,,,,,,0,116,116,116,,,,,,,,,,,,,,,7.353515625,-0.732421875,1,0,0,1.11963009834,,,,,2015_Nov_05_1529,G,facesParametric,26,59.6893362497,
./stim/MorphF10_10_orig.jpg,117,,,,,,,,,0,117,117,117,,,,,,,,,,,,,,,7.353515625,-0.732421875,1,0,0,0.836810827255,,,,,2015_Nov_05_1529,G,facesParametric,26,59.6893362497,
./stim/MorphF9_04_orig.jpg,118,,,,,,,,,0,118,118,118,,,,,,,,,,,,,,,7.353515625,-0.732421875,0,0,1,4.75869107246,,,,,2015_Nov_05_1529,G,facesParametric,26,59.6893362497,
./stim/MorphM8_09_orig.jpg,119,,,,,,,,,0,119,119,119,,,,,,,,,,,,,,,7.353515625,-0.732421875,1,0,0,0.937505960464,,,,,2015_Nov_05_1529,G,facesParametric,26,59.6893362497,
./stim/MorphF6_03_orig.jpg,120,,,,,,,,,0,120,120,120,,,,,,,,,,,,,,,7.353515625,-0.732421875,1,0,0,1.02099990845,,,,,2015_Nov_05_1529,G,facesParametric,26,59.6893362497,
./stim/MorphM5_06_orig.jpg,121,,,,,,,,,0,121,121,121,,,,,,,,,,,,,,,7.353515625,-0.732421875,0,0,1,1.95948219299,,,,,2015_Nov_05_1529,G,facesParametric,26,59.6893362497,
./stim/MorphF3_10_orig.jpg,122,,,,,,,,,0,122,122,122,,,,,,,,,,,,,,,7.353515625,-0.732421875,1,0,0,4.65924715996,,,,,2015_Nov_05_1529,G,facesParametric,26,59.6893362497,
./stim/MorphF1_01_orig.jpg,123,,,,,,,,,0,123,123,123,,,,,,,,,,,,,,,7.353515625,-0.732421875,0,0,1,1.69032907486,,,,,2015_Nov_05_1529,G,facesParametric,26,59.6893362497,
./stim/MorphM3_03_orig.jpg,124,,,,,,,,,0,124,124,124,,,,,,,,,,,,,,,7.353515625,-0.732421875,0,0,1,1.1722509861,,,,,2015_Nov_05_1529,G,facesParametric,26,59.6893362497,
./stim/MorphF7_00_orig.jpg,125,,,,,,,,,0,125,125,125,,,,,,,,,,,,,,,7.353515625,-0.732421875,0,0,1,1.48890018463,,,,,2015_Nov_05_1529,G,facesParametric,26,59.6893362497,
./stim/MorphM3_00_orig.jpg,126,,,,,,,,,0,126,126,126,,,,,,,,,,,,,,,7.353515625,-0.732421875,0,0,1,1.10561513901,,,,,2015_Nov_05_1529,G,facesParametric,26,59.6893362497,
./stim/MorphM8_02_orig.jpg,127,,,,,,,,,0,127,127,127,,,,,,,,,,,,,,,7.353515625,-0.732421875,1,0,0,2.67970108986,,,,,2015_Nov_05_1529,G,facesParametric,26,59.6893362497,
./stim/MorphF5_00_orig.jpg,128,,,,,,,,,0,128,128,128,,,,,,,,,,,,,,,7.353515625,-0.732421875,0,0,1,1.12130403519,,,,,2015_Nov_05_1529,G,facesParametric,26,59.6893362497,
./stim/MorphM3_04_orig.jpg,129,,,,,,,,,0,129,129,129,,,,,,,,,,,,,,,7.353515625,-0.732421875,0,0,1,10.6581730843,,,,,2015_Nov_05_1529,G,facesParametric,26,59.6893362497,
./stim/MorphF4_05_orig.jpg,130,,,,,,,,,0,130,130,130,,,,,,,,,,,,,,,7.353515625,-0.732421875,0,0,1,10.322453022,,,,,2015_Nov_05_1529,G,facesParametric,26,59.6893362497,
./stim/MorphF7_07_orig.jpg,131,,,,,,,,,0,131,131,131,,,,,,,,,,,,,,,7.353515625,-0.732421875,1,0,0,1.03782701492,,,,,2015_Nov_05_1529,G,facesParametric,26,59.6893362497,
./stim/MorphF8_00_orig.jpg,132,,,,,,,,,0,132,132,132,,,,,,,,,,,,,,,7.353515625,-0.732421875,0,0,1,1.23827695847,,,,,2015_Nov_05_1529,G,facesParametric,26,59.6893362497,
./stim/MorphM10_07_orig.jpg,133,,,,,,,,,0,133,133,133,,,,,,,,,,,,,,,7.353515625,-0.732421875,1,0,0,0.834433078766,,,,,2015_Nov_05_1529,G,facesParametric,26,59.6893362497,
./stim/MorphF7_06_orig.jpg,134,,,,,,,,,0,134,134,134,,,,,,,,,,,,,,,7.353515625,-0.732421875,1,0,0,1.00447916985,,,,,2015_Nov_05_1529,G,facesParametric,26,59.6893362497,
./stim/MorphF5_03_orig.jpg,135,,,,,,,,,0,135,135,135,,,,,,,,,,,,,,,7.353515625,-0.732421875,0,0,1,0.885389089584,,,,,2015_Nov_05_1529,G,facesParametric,26,59.6893362497,
./stim/MorphF7_10_orig.jpg,136,,,,,,,,,0,136,136,136,,,,,,,,,,,,,,,7.353515625,-0.732421875,1,0,0,0.93542098999,,,,,2015_Nov_05_1529,G,facesParametric,26,59.6893362497,
./stim/MorphM7_05_orig.jpg,137,,,,,,,,,0,137,137,137,,,,,,,,,,,,,,,7.353515625,-0.732421875,1,0,0,1.3063480854,,,,,2015_Nov_05_1529,G,facesParametric,26,59.6893362497,
./stim/MorphM2_07_orig.jpg,138,,,,,,,,,0,138,138,138,,,,,,,,,,,,,,,7.353515625,-0.732421875,0,0,1,0.886910915375,,,,,2015_Nov_05_1529,G,facesParametric,26,59.6893362497,
./stim/MorphM6_02_orig.jpg,139,,,,,,,,,0,139,139,139,,,,,,,,,,,,,,,7.353515625,-0.732421875,0,0,1,1.10477995872,,,,,2015_Nov_05_1529,G,facesParametric,26,59.6893362497,
./stim/MorphM7_03_orig.jpg,140,,,,,,,,,0,140,140,140,,,,,,,,,,,,,,,7.353515625,-0.732421875,1,0,0,0.919493913651,,,,,2015_Nov_05_1529,G,facesParametric,26,59.6893362497,
./stim/MorphF6_07_orig.jpg,141,,,,,,,,,0,141,141,141,,,,,,,,,,,,,,,7.353515625,-0.732421875,1,0,0,0.988096952438,,,,,2015_Nov_05_1529,G,facesParametric,26,59.6893362497,
./stim/MorphM7_09_orig.jpg,142,,,,,,,,,0,142,142,142,,,,,,,,,,,,,,,7.353515625,-0.732421875,1,0,0,0.952161073685,,,,,2015_Nov_05_1529,G,facesParametric,26,59.6893362497,
./stim/MorphM1_09_orig.jpg,143,,,,,,,,,0,143,143,143,,,,,,,,,,,,,,,7.353515625,-0.732421875,1,0,0,1.45737099648,,,,,2015_Nov_05_1529,G,facesParametric,26,59.6893362497,
./stim/MorphM10_00_orig.jpg,144,,,,,,,,,0,144,144,144,,,,,,,,,,,,,,,7.353515625,-0.732421875,0,0,1,1.05226898193,,,,,2015_Nov_05_1529,G,facesParametric,26,59.6893362497,
./stim/MorphF9_00_orig.jpg,145,,,,,,,,,0,145,145,145,,,,,,,,,,,,,,,7.353515625,-0.732421875,0,0,1,0.918561935425,,,,,2015_Nov_05_1529,G,facesParametric,26,59.6893362497,
./stim/MorphM2_03_orig.jpg,146,,,,,,,,,0,146,146,146,,,,,,,,,,,,,,,7.353515625,-0.732421875,0,0,1,0.987720012665,,,,,2015_Nov_05_1529,G,facesParametric,26,59.6893362497,
./stim/MorphF7_05_orig.jpg,147,,,,,,,,,0,147,147,147,,,,,,,,,,,,,,,7.353515625,-0.732421875,0,0,1,3.30033993721,,,,,2015_Nov_05_1529,G,facesParametric,26,59.6893362497,
./stim/MorphF4_04_orig.jpg,148,,,,,,,,,0,148,148,148,,,,,,,,,,,,,,,7.353515625,-0.732421875,0,0,1,1.00423693657,,,,,2015_Nov_05_1529,G,facesParametric,26,59.6893362497,
./stim/MorphM5_00_orig.jpg,149,,,,,,,,,0,149,149,149,,,,,,,,,,,,,,,7.353515625,-0.732421875,0,0,1,2.61330699921,,,,,2015_Nov_05_1529,G,facesParametric,26,59.6893362497,
./stim/MorphM4_06_orig.jpg,150,,,,,,,,,0,150,150,150,,,,,,,,,,,,,,,7.353515625,-0.732421875,1,0,0,1.94290184975,,,,,2015_Nov_05_1529,G,facesParametric,26,59.6893362497,
./stim/MorphM5_05_orig.jpg,151,,,,,,,,,0,151,151,151,,,,,,,,,,,,,,,7.353515625,-0.732421875,0,0,1,1.322712183,,,,,2015_Nov_05_1529,G,facesParametric,26,59.6893362497,
./stim/MorphF4_07_orig.jpg,152,,,,,,,,,0,152,152,152,,,,,,,,,,,,,,,7.353515625,-0.732421875,1,0,0,2.22755408287,,,,,2015_Nov_05_1529,G,facesParametric,26,59.6893362497,
./stim/MorphF7_03_orig.jpg,153,,,,,,,,,0,153,153,153,,,,,,,,,,,,,,,7.353515625,-0.732421875,0,0,1,4.38983511925,,,,,2015_Nov_05_1529,G,facesParametric,26,59.6893362497,
./stim/MorphM4_00_orig.jpg,154,,,,,,,,,0,154,154,154,,,,,,,,,,,,,,,7.353515625,-0.732421875,0,0,1,1.08821296692,,,,,2015_Nov_05_1529,G,facesParametric,26,59.6893362497,
./stim/MorphM10_10_orig.jpg,155,,,,,,,,,0,155,155,155,,,,,,,,,,,,,,,7.353515625,-0.732421875,1,0,0,0.970502138138,,,,,2015_Nov_05_1529,G,facesParametric,26,59.6893362497,
./stim/MorphF3_04_orig.jpg,156,,,,,,,,,0,156,156,156,,,,,,,,,,,,,,,7.353515625,-0.732421875,0,0,1,3.25019192696,,,,,2015_Nov_05_1529,G,facesParametric,26,59.6893362497,
./stim/MorphF10_03_orig.jpg,157,,,,,,,,,0,157,157,157,,,,,,,,,,,,,,,7.353515625,-0.732421875,0,0,1,4.07125306129,,,,,2015_Nov_05_1529,G,facesParametric,26,59.6893362497,
./stim/MorphM8_03_orig.jpg,158,,,,,,,,,0,158,158,158,,,,,,,,,,,,,,,7.353515625,-0.732421875,0,0,1,5.2783331871,,,,,2015_Nov_05_1529,G,facesParametric,26,59.6893362497,
./stim/MorphF5_05_orig.jpg,159,,,,,,,,,0,159,159,159,,,,,,,,,,,,,,,7.353515625,-0.732421875,0,0,1,1.00397181511,,,,,2015_Nov_05_1529,G,facesParametric,26,59.6893362497,
./stim/MorphM3_08_orig.jpg,160,,,,,,,,,0,160,160,160,,,,,,,,,,,,,,,7.353515625,-0.732421875,1,0,0,1.32282400131,,,,,2015_Nov_05_1529,G,facesParametric,26,59.6893362497,
./stim/MorphM1_05_orig.jpg,161,,,,,,,,,0,161,161,161,,,,,,,,,,,,,,,7.353515625,-0.732421875,0,0,1,1.54074406624,,,,,2015_Nov_05_1529,G,facesParametric,26,59.6893362497,
./stim/MorphF3_05_orig.jpg,162,,,,,,,,,0,162,162,162,,,,,,,,,,,,,,,7.353515625,-0.732421875,0,0,1,17.4959168434,,,,,2015_Nov_05_1529,G,facesParametric,26,59.6893362497,
./stim/MorphF10_06_orig.jpg,163,,,,,,,,,0,163,163,163,,,,,,,,,,,,,,,7.353515625,-0.732421875,1,0,0,0.987548112869,,,,,2015_Nov_05_1529,G,facesParametric,26,59.6893362497,
./stim/MorphM2_02_orig.jpg,164,,,,,,,,,0,164,164,164,,,,,,,,,,,,,,,7.353515625,-0.732421875,0,0,1,1.82512784004,,,,,2015_Nov_05_1529,G,facesParametric,26,59.6893362497,
./stim/MorphM4_08_orig.jpg,165,,,,,,,,,0,165,165,165,,,,,,,,,,,,,,,7.353515625,-0.732421875,1,0,0,0.988008022308,,,,,2015_Nov_05_1529,G,facesParametric,26,59.6893362497,
./stim/MorphF6_10_orig.jpg,166,,,,,,,,,0,166,166,166,,,,,,,,,,,,,,,7.353515625,-0.732421875,1,0,0,0.852939844131,,,,,2015_Nov_05_1529,G,facesParametric,26,59.6893362497,
./stim/MorphF8_07_orig.jpg,167,,,,,,,,,0,167,167,167,,,,,,,,,,,,,,,7.353515625,-0.732421875,1,0,0,1.47414708138,,,,,2015_Nov_05_1529,G,facesParametric,26,59.6893362497,
./stim/MorphM2_00_orig.jpg,168,,,,,,,,,0,168,168,168,,,,,,,,,,,,,,,7.353515625,-0.732421875,0,0,1,0.801633119583,,,,,2015_Nov_05_1529,G,facesParametric,26,59.6893362497,
./stim/MorphM9_00_orig.jpg,169,,,,,,,,,0,169,169,169,,,,,,,,,,,,,,,7.353515625,-0.732421875,0,0,1,0.886354923248,,,,,2015_Nov_05_1529,G,facesParametric,26,59.6893362497,
./stim/MorphF1_10_orig.jpg,170,,,,,,,,,0,170,170,170,,,,,,,,,,,,,,,7.353515625,-0.732421875,1,0,0,2.96495509148,,,,,2015_Nov_05_1529,G,facesParametric,26,59.6893362497,
./stim/MorphM8_00_orig.jpg,171,,,,,,,,,0,171,171,171,,,,,,,,,,,,,,,7.353515625,-0.732421875,1,0,0,1.30647516251,,,,,2015_Nov_05_1529,G,facesParametric,26,59.6893362497,
./stim/MorphF1_05_orig.jpg,172,,,,,,,,,0,172,172,172,,,,,,,,,,,,,,,7.353515625,-0.732421875,0,0,1,1.12106609344,,,,,2015_Nov_05_1529,G,facesParametric,26,59.6893362497,
./stim/MorphF2_02_orig.jpg,173,,,,,,,,,0,173,173,173,,,,,,,,,,,,,,,7.353515625,-0.732421875,1,0,0,1.96001005173,,,,,2015_Nov_05_1529,G,facesParametric,26,59.6893362497,
./stim/MorphF8_08_orig.jpg,174,,,,,,,,,0,174,174,174,,,,,,,,,,,,,,,7.353515625,-0.732421875,1,0,0,0.886615037918,,,,,2015_Nov_05_1529,G,facesParametric,26,59.6893362497,
./stim/MorphF9_10_orig.jpg,175,,,,,,,,,0,175,175,175,,,,,,,,,,,,,,,7.353515625,-0.732421875,1,0,0,0.853675842285,,,,,2015_Nov_05_1529,G,facesParametric,26,59.6893362497,
./stim/MorphF2_08_orig.jpg,176,,,,,,,,,0,176,176,176,,,,,,,,,,,,,,,7.353515625,-0.732421875,1,0,0,1.10468697548,,,,,2015_Nov_05_1529,G,facesParametric,26,59.6893362497,
./stim/MorphM5_08_orig.jpg,177,,,,,,,,,0,177,177,177,,,,,,,,,,,,,,,7.353515625,-0.732421875,0,0,1,2.61357092857,,,,,2015_Nov_05_1529,G,facesParametric,26,59.6893362497,
./stim/MorphF8_10_orig.jpg,178,,,,,,,,,0,178,178,178,,,,,,,,,,,,,,,7.353515625,-0.732421875,1,0,0,1.22240900993,,,,,2015_Nov_05_1529,G,facesParametric,26,59.6893362497,
./stim/MorphM10_03_orig.jpg,179,,,,,,,,,0,179,179,179,,,,,,,,,,,,,,,7.353515625,-0.732421875,0,0,1,1.05468702316,,,,,2015_Nov_05_1529,G,facesParametric,26,59.6893362497,
./stim/MorphF3_00_orig.jpg,180,,,,,,,,,0,180,180,180,,,,,,,,,,,,,,,7.353515625,-0.732421875,0,0,1,0.853168964386,,,,,2015_Nov_05_1529,G,facesParametric,26,59.6893362497,
./stim/MorphF5_06_orig.jpg,181,,,,,,,,,0,181,181,181,,,,,,,,,,,,,,,7.353515625,-0.732421875,0,0,1,1.58928990364,,,,,2015_Nov_05_1529,G,facesParametric,26,59.6893362497,
./stim/MorphM6_06_orig.jpg,182,,,,,,,,,0,182,182,182,,,,,,,,,,,,,,,7.353515625,-0.732421875,0,0,1,4.37167406082,,,,,2015_Nov_05_1529,G,facesParametric,26,59.6893362497,
./stim/MorphF6_00_orig.jpg,183,,,,,,,,,0,183,183,183,,,,,,,,,,,,,,,7.353515625,-0.732421875,1,0,0,0.953845977783,,,,,2015_Nov_05_1529,G,facesParametric,26,59.6893362497,
./stim/MorphF1_07_orig.jpg,184,,,,,,,,,0,184,184,184,,,,,,,,,,,,,,,7.353515625,-0.732421875,0,0,1,7.67516207695,,,,,2015_Nov_05_1529,G,facesParametric,26,59.6893362497,
./stim/MorphF4_10_orig.jpg,185,,,,,,,,,0,185,185,185,,,,,,,,,,,,,,,7.353515625,-0.732421875,1,0,0,0.970772027969,,,,,2015_Nov_05_1529,G,facesParametric,26,59.6893362497,
./stim/MorphF10_02_orig.jpg,186,,,,,,,,,0,186,186,186,,,,,,,,,,,,,,,7.353515625,-0.732421875,0,0,1,1.95954799652,,,,,2015_Nov_05_1529,G,facesParametric,26,59.6893362497,
./stim/MorphF6_05_orig.jpg,187,,,,,,,,,0,187,187,187,,,,,,,,,,,,,,,7.353515625,-0.732421875,1,0,0,0.953892946243,,,,,2015_Nov_05_1529,G,facesParametric,26,59.6893362497,
./stim/MorphM10_01_orig.jpg,188,,,,,,,,,0,188,188,188,,,,,,,,,,,,,,,7.353515625,-0.732421875,0,0,1,1.12185502052,,,,,2015_Nov_05_1529,G,facesParametric,26,59.6893362497,
./stim/MorphF1_03_orig.jpg,189,,,,,,,,,0,189,189,189,,,,,,,,,,,,,,,7.353515625,-0.732421875,0,0,1,3.70270895958,,,,,2015_Nov_05_1529,G,facesParametric,26,59.6893362497,
./stim/MorphF5_02_orig.jpg,190,,,,,,,,,0,190,190,190,,,,,,,,,,,,,,,7.353515625,-0.732421875,0,0,1,1.5911757946,,,,,2015_Nov_05_1529,G,facesParametric,26,59.6893362497,
./stim/MorphM3_06_orig.jpg,191,,,,,,,,,0,191,191,191,,,,,,,,,,,,,,,7.353515625,-0.732421875,0,0,1,2.07686400414,,,,,2015_Nov_05_1529,G,facesParametric,26,59.6893362497,
./stim/MorphF3_07_orig.jpg,192,,,,,,,,,0,192,192,192,,,,,,,,,,,,,,,7.353515625,-0.732421875,1,0,0,1.55660700798,,,,,2015_Nov_05_1529,G,facesParametric,26,59.6893362497,
./stim/MorphF9_03_orig.jpg,193,,,,,,,,,0,193,193,193,,,,,,,,,,,,,,,7.353515625,-0.732421875,0,0,1,1.52357983589,,,,,2015_Nov_05_1529,G,facesParametric,26,59.6893362497,
./stim/MorphF4_06_orig.jpg,194,,,,,,,,,0,194,194,194,,,,,,,,,,,,,,,7.353515625,-0.732421875,1,0,0,1.89284205437,,,,,2015_Nov_05_1529,G,facesParametric,26,59.6893362497,
./stim/MorphM7_01_orig.jpg,195,,,,,,,,,0,195,195,195,,,,,,,,,,,,,,,7.353515625,-0.732421875,0,0,1,1.91001605988,,,,,2015_Nov_05_1529,G,facesParametric,26,59.6893362497,
./stim/MorphM1_07_orig.jpg,196,,,,,,,,,0,196,196,196,,,,,,,,,,,,,,,7.353515625,-0.732421875,1,0,0,1.65497803688,,,,,2015_Nov_05_1529,G,facesParametric,26,59.6893362497,
./stim/MorphF6_08_orig.jpg,197,,,,,,,,,0,197,197,197,,,,,,,,,,,,,,,7.353515625,-0.732421875,1,0,0,1.00556993484,,,,,2015_Nov_05_1529,G,facesParametric,26,59.6893362497,
./stim/MorphF8_01_orig.jpg,198,,,,,,,,,0,198,198,198,,,,,,,,,,,,,,,7.353515625,-0.732421875,0,0,1,1.69158411026,,,,,2015_Nov_05_1529,G,facesParametric,26,59.6893362497,
./stim/MorphF10_09_orig.jpg,199,,,,,,,,,0,199,199,199,,,,,,,,,,,,,,,7.353515625,-0.732421875,1,0,0,1.23927211761,,,,,2015_Nov_05_1529,G,facesParametric,26,59.6893362497,
./stim/MorphM6_03_orig.jpg,200,,,,,,,,,0,200,200,200,,,,,,,,,,,,,,,7.353515625,-0.732421875,0,0,1,1.01980185509,,,,,2015_Nov_05_1529,G,facesParametric,26,59.6893362497,
./stim/MorphF2_07_orig.jpg,201,,,,,,,,,0,201,201,201,,,,,,,,,,,,,,,7.353515625,-0.732421875,1,0,0,2.19426894188,,,,,2015_Nov_05_1529,G,facesParametric,26,59.6893362497,
./stim/MorphF7_08_orig.jpg,202,,,,,,,,,0,202,202,202,,,,,,,,,,,,,,,7.353515625,-0.732421875,1,0,0,1.10485100746,,,,,2015_Nov_05_1529,G,facesParametric,26,59.6893362497,
./stim/MorphM3_07_orig.jpg,203,,,,,,,,,0,203,203,203,,,,,,,,,,,,,,,7.353515625,-0.732421875,1,0,0,1.13909912109,,,,,2015_Nov_05_1529,G,facesParametric,26,59.6893362497,
./stim/MorphM9_08_orig.jpg,204,,,,,,,,,0,204,204,204,,,,,,,,,,,,,,,7.353515625,-0.732421875,0,0,1,2.02591705322,,,,,2015_Nov_05_1529,G,facesParametric,26,59.6893362497,
./stim/MorphF3_03_orig.jpg,205,,,,,,,,,0,205,205,205,,,,,,,,,,,,,,,7.353515625,-0.732421875,0,0,1,1.85893392563,,,,,2015_Nov_05_1529,G,facesParametric,26,59.6893362497,
./stim/MorphM4_10_orig.jpg,206,,,,,,,,,0,206,206,206,,,,,,,,,,,,,,,7.353515625,-0.732421875,1,0,0,1.64107608795,,,,,2015_Nov_05_1529,G,facesParametric,26,59.6893362497,
./stim/MorphM7_00_orig.jpg,207,,,,,,,,,0,207,207,207,,,,,,,,,,,,,,,7.353515625,-0.732421875,1,0,0,0.903260946274,,,,,2015_Nov_05_1529,G,facesParametric,26,59.6893362497,
./stim/MorphM4_01_orig.jpg,208,,,,,,,,,0,208,208,208,,,,,,,,,,,,,,,7.353515625,-0.732421875,1,0,0,0.903503894806,,,,,2015_Nov_05_1529,G,facesParametric,26,59.6893362497,
./stim/MorphF10_00_orig.jpg,209,,,,,,,,,0,209,209,209,,,,,,,,,,,,,,,7.353515625,-0.732421875,0,0,1,1.52396392822,,,,,2015_Nov_05_1529,G,facesParametric,26,59.6893362497,
./stim/MorphM1_04_orig.jpg,210,,,,,,,,,0,210,210,210,,,,,,,,,,,,,,,7.353515625,-0.732421875,0,0,1,4.03758788109,,,,,2015_Nov_05_1529,G,facesParametric,26,59.6893362497,
./stim/MorphF6_06_orig.jpg,211,,,,,,,,,0,211,211,211,,,,,,,,,,,,,,,7.353515625,-0.732421875,1,0,0,0.954144001007,,,,,2015_Nov_05_1529,G,facesParametric,26,59.6893362497,
./stim/MorphM2_08_orig.jpg,212,,,,,,,,,0,212,212,212,,,,,,,,,,,,,,,7.353515625,-0.732421875,1,0,0,0.886822938919,,,,,2015_Nov_05_1529,G,facesParametric,26,59.6893362497,
./stim/MorphF1_02_orig.jpg,213,,,,,,,,,0,213,213,213,,,,,,,,,,,,,,,7.353515625,-0.732421875,0,0,1,1.32291197777,,,,,2015_Nov_05_1529,G,facesParametric,26,59.6893362497,
./stim/MorphF9_08_orig.jpg,214,,,,,,,,,0,214,214,214,,,,,,,,,,,,,,,7.353515625,-0.732421875,1,0,0,9.55208086967,,,,,2015_Nov_05_1529,G,facesParametric,26,59.6893362497,
./stim/MorphF5_08_orig.jpg,215,,,,,,,,,0,215,215,215,,,,,,,,,,,,,,,7.353515625,-0.732421875,1,0,0,1.35651993752,,,,,2015_Nov_05_1529,G,facesParametric,26,59.6893362497,
./stim/MorphM7_02_orig.jpg,216,,,,,,,,,0,216,216,216,,,,,,,,,,,,,,,7.353515625,-0.732421875,1,0,0,1.08594703674,,,,,2015_Nov_05_1529,G,facesParametric,26,59.6893362497,
./stim/MorphF10_07_orig.jpg,217,,,,,,,,,0,217,217,217,,,,,,,,,,,,,,,7.353515625,-0.732421875,1,0,0,0.903630018234,,,,,2015_Nov_05_1529,G,facesParametric,26,59.6893362497,
./stim/MorphF6_04_orig.jpg,218,,,,,,,,,0,218,218,218,,,,,,,,,,,,,,,7.353515625,-0.732421875,1,0,0,0.870126962662,,,,,2015_Nov_05_1529,G,facesParametric,26,59.6893362497,
./stim/MorphF9_06_orig.jpg,219,,,,,,,,,0,219,219,219,,,,,,,,,,,,,,,7.353515625,-0.732421875,0,0,1,1.25599479675,,,,,2015_Nov_05_1529,G,facesParametric,26,59.6893362497,
,,,,,,,,,,,,,,,,,,,,,,,,,,,,,,,,,,,,return,104.406025887,2015_Nov_05_1529,G,facesParametric,26,59.6893362497,
