img,num,basicLoop.thisRepN,basicLoop.thisTrialN,basicLoop.thisN,basicLoop.thisIndex,trials.thisRepN,trials.thisTrialN,trials.thisN,trials.thisIndex,trials2.thisRepN,trials2.thisTrialN,trials2.thisN,trials2.thisIndex,key_resp_2.keys,key_resp_2.rt,basicRating1.response,basicRating1.rt,basicRating2.response,basicRating2.rt,basicRating3.response,basicRating3.rt,basicRating4.response,basicRating4.rt,key_resp_3.keys,key_resp_3.rt,key_resp_4.keys,key_resp_4.rt,mouseResp.x,mouseResp.y,mouseResp.leftButton,mouseResp.midButton,mouseResp.rightButton,mouseResp.time,key_resp_5.keys,key_resp_5.rt,key_resp_7.keys,key_resp_7.rt,date,group,expName,participant,frameRate,
,,,,,,,,,,,,,,return,8.56469511986,,,,,,,,,,,,,,,,,,,,,,,2015_Nov_06_1653,G,facesParametric,27,59.7457074239,
./basicStim/34M_FE_O.jpg,,0,0,0,72,,,,,,,,,,,None,None,FEA,4.771,None,None,None,None,,,,,,,,,,,,,,,2015_Nov_06_1653,G,facesParametric,27,59.7457074239,
./basicStim/02F_FE_O.jpg,,0,1,1,9,,,,,,,,,,,None,None,FEA,1.195,None,None,None,None,,,,,,,,,,,,,,,2015_Nov_06_1653,G,facesParametric,27,59.7457074239,
./basicStim/02F_AN_O.jpg,,0,2,2,7,,,,,,,,,,,None,None,ANG,1.177,None,None,None,None,,,,,,,,,,,,,,,2015_Nov_06_1653,G,facesParametric,27,59.7457074239,
./basicStim/07F_HA_O.jpg,,0,3,3,31,,,,,,,,,,,HAP,1.176,None,None,None,None,None,None,,,,,,,,,,,,,,,2015_Nov_06_1653,G,facesParametric,27,59.7457074239,
./basicStim/06F_FE_O.jpg,,0,4,4,23,,,,,,,,,,,None,None,None,None,SUP,2.432,None,None,,,,,,,,,,,,,,,2015_Nov_06_1653,G,facesParametric,27,59.7457074239,
./basicStim/03F_HA_O.jpg,,0,5,5,17,,,,,,,,,,,HAP,0.984,None,None,None,None,None,None,,,,,,,,,,,,,,,2015_Nov_06_1653,G,facesParametric,27,59.7457074239,
./basicStim/28M_NE_C.jpg,,0,6,6,69,,,,,,,,,,,None,None,None,None,None,None,NTR,2.516,,,,,,,,,,,,,,,2015_Nov_06_1653,G,facesParametric,27,59.7457074239,
./basicStim/24M_HA_O.jpg,,0,7,7,59,,,,,,,,,,,HAP,0.992,None,None,None,None,None,None,,,,,,,,,,,,,,,2015_Nov_06_1653,G,facesParametric,27,59.7457074239,
./basicStim/02F_HA_O.jpg,,0,8,8,10,,,,,,,,,,,HAP,0.474,None,None,None,None,None,None,,,,,,,,,,,,,,,2015_Nov_06_1653,G,facesParametric,27,59.7457074239,
./basicStim/09F_SP_O.jpg,,0,9,9,40,,,,,,,,,,,None,None,None,None,SUP,1.415,None,None,,,,,,,,,,,,,,,2015_Nov_06_1653,G,facesParametric,27,59.7457074239,
./basicStim/34M_NE_C.jpg,,0,10,10,76,,,,,,,,,,,None,None,None,None,None,None,NTR,2.093,,,,,,,,,,,,,,,2015_Nov_06_1653,G,facesParametric,27,59.7457074239,
./basicStim/36M_SP_O.jpg,,0,11,11,82,,,,,,,,,,,None,None,FEA,4.378,None,None,None,None,,,,,,,,,,,,,,,2015_Nov_06_1653,G,facesParametric,27,59.7457074239,
./basicStim/23M_FE_O.jpg,,0,12,12,51,,,,,,,,,,,None,None,FEA,3.039,None,None,None,None,,,,,,,,,,,,,,,2015_Nov_06_1653,G,facesParametric,27,59.7457074239,
./basicStim/06F_DI_O.jpg,,0,13,13,22,,,,,,,,,,,None,None,None,None,DIS,1.004,None,None,,,,,,,,,,,,,,,2015_Nov_06_1653,G,facesParametric,27,59.7457074239,
./basicStim/01F_DI_O.jpg,,0,14,14,1,,,,,,,,,,,None,None,None,None,DIS,0.725,None,None,,,,,,,,,,,,,,,2015_Nov_06_1653,G,facesParametric,27,59.7457074239,
./basicStim/23M_AN_O.jpg,,0,15,15,49,,,,,,,,,,,None,None,ANG,1.434,None,None,None,None,,,,,,,,,,,,,,,2015_Nov_06_1653,G,facesParametric,27,59.7457074239,
./basicStim/09F_SA_C.jpg,,0,16,16,39,,,,,,,,,,,SAD,1.247,None,None,None,None,None,None,,,,,,,,,,,,,,,2015_Nov_06_1653,G,facesParametric,27,59.7457074239,
./basicStim/21M_FE_O.jpg,,0,17,17,44,,,,,,,,,,,None,None,FEA,3.055,None,None,None,None,,,,,,,,,,,,,,,2015_Nov_06_1653,G,facesParametric,27,59.7457074239,
./basicStim/07F_SA_C.jpg,,0,18,18,32,,,,,,,,,,,SAD,2.334,None,None,None,None,None,None,,,,,,,,,,,,,,,2015_Nov_06_1653,G,facesParametric,27,59.7457074239,
./basicStim/21M_HA_O.jpg,,0,19,19,45,,,,,,,,,,,HAP,1.201,None,None,None,None,None,None,,,,,,,,,,,,,,,2015_Nov_06_1653,G,facesParametric,27,59.7457074239,
./basicStim/21M_NE_C.jpg,,0,20,20,48,,,,,,,,,,,None,None,None,None,None,None,NTR,2.736,,,,,,,,,,,,,,,2015_Nov_06_1653,G,facesParametric,27,59.7457074239,
./basicStim/07F_NE_C.jpg,,0,21,21,34,,,,,,,,,,,None,None,None,None,None,None,NTR,0.992,,,,,,,,,,,,,,,2015_Nov_06_1653,G,facesParametric,27,59.7457074239,
./basicStim/34M_HA_O.jpg,,0,22,22,73,,,,,,,,,,,HAP,1.159,None,None,None,None,None,None,,,,,,,,,,,,,,,2015_Nov_06_1653,G,facesParametric,27,59.7457074239,
./basicStim/24M_NE_C.jpg,,0,23,23,62,,,,,,,,,,,None,None,ANG,2.802,None,None,None,None,,,,,,,,,,,,,,,2015_Nov_06_1653,G,facesParametric,27,59.7457074239,
./basicStim/24M_DI_O.jpg,,0,24,24,57,,,,,,,,,,,SAD,2.791,None,None,None,None,None,None,,,,,,,,,,,,,,,2015_Nov_06_1653,G,facesParametric,27,59.7457074239,
./basicStim/28M_SP_O.jpg,,0,25,25,68,,,,,,,,,,,None,None,FEA,2.542,None,None,None,None,,,,,,,,,,,,,,,2015_Nov_06_1653,G,facesParametric,27,59.7457074239,
./basicStim/06F_NE_C.jpg,,0,26,26,27,,,,,,,,,,,None,None,None,None,None,None,NTR,1.829,,,,,,,,,,,,,,,2015_Nov_06_1653,G,facesParametric,27,59.7457074239,
./basicStim/03F_DI_O.jpg,,0,27,27,15,,,,,,,,,,,None,None,None,None,DIS,1.501,None,None,,,,,,,,,,,,,,,2015_Nov_06_1653,G,facesParametric,27,59.7457074239,
./basicStim/06F_SP_O.jpg,,0,28,28,26,,,,,,,,,,,None,None,FEA,3.894,None,None,None,None,,,,,,,,,,,,,,,2015_Nov_06_1653,G,facesParametric,27,59.7457074239,
./basicStim/03F_SA_C.jpg,,0,29,29,18,,,,,,,,,,,SAD,1.513,None,None,None,None,None,None,,,,,,,,,,,,,,,2015_Nov_06_1653,G,facesParametric,27,59.7457074239,
./basicStim/36M_SA_C.jpg,,0,30,30,81,,,,,,,,,,,SAD,0.581,None,None,None,None,None,None,,,,,,,,,,,,,,,2015_Nov_06_1653,G,facesParametric,27,59.7457074239,
./basicStim/28M_DI_O.jpg,,0,31,31,64,,,,,,,,,,,None,None,None,None,DIS,1.243,None,None,,,,,,,,,,,,,,,2015_Nov_06_1653,G,facesParametric,27,59.7457074239,
./basicStim/23M_DI_O.jpg,,0,32,32,50,,,,,,,,,,,None,None,None,None,DIS,2.467,None,None,,,,,,,,,,,,,,,2015_Nov_06_1653,G,facesParametric,27,59.7457074239,
./basicStim/24M_AN_O.jpg,,0,33,33,56,,,,,,,,,,,None,None,ANG,1.525,None,None,None,None,,,,,,,,,,,,,,,2015_Nov_06_1653,G,facesParametric,27,59.7457074239,
./basicStim/02F_NE_C.jpg,,0,34,34,13,,,,,,,,,,,None,None,None,None,None,None,NTR,2.365,,,,,,,,,,,,,,,2015_Nov_06_1653,G,facesParametric,27,59.7457074239,
./basicStim/06F_SA_C.jpg,,0,35,35,25,,,,,,,,,,,None,None,ANG,1.947,None,None,None,None,,,,,,,,,,,,,,,2015_Nov_06_1653,G,facesParametric,27,59.7457074239,
./basicStim/21M_SP_O.jpg,,0,36,36,47,,,,,,,,,,,None,None,None,None,SUP,1.466,None,None,,,,,,,,,,,,,,,2015_Nov_06_1653,G,facesParametric,27,59.7457074239,
./basicStim/24M_SP_O.jpg,,0,37,37,61,,,,,,,,,,,None,None,None,None,SUP,5.232,None,None,,,,,,,,,,,,,,,2015_Nov_06_1653,G,facesParametric,27,59.7457074239,
./basicStim/21M_DI_O.jpg,,0,38,38,43,,,,,,,,,,,None,None,None,None,DIS,1.247,None,None,,,,,,,,,,,,,,,2015_Nov_06_1653,G,facesParametric,27,59.7457074239,
./basicStim/02F_SP_O.jpg,,0,39,39,12,,,,,,,,,,,None,None,None,None,SUP,1.999,None,None,,,,,,,,,,,,,,,2015_Nov_06_1653,G,facesParametric,27,59.7457074239,
./basicStim/07F_DI_O.jpg,,0,40,40,29,,,,,,,,,,,None,None,None,None,DIS,1.059,None,None,,,,,,,,,,,,,,,2015_Nov_06_1653,G,facesParametric,27,59.7457074239,
./basicStim/02F_SA_C.jpg,,0,41,41,11,,,,,,,,,,,SAD,5.318,None,None,None,None,None,None,,,,,,,,,,,,,,,2015_Nov_06_1653,G,facesParametric,27,59.7457074239,
./basicStim/34M_SP_O.jpg,,0,42,42,75,,,,,,,,,,,None,None,None,None,SUP,1.43,None,None,,,,,,,,,,,,,,,2015_Nov_06_1653,G,facesParametric,27,59.7457074239,
./basicStim/24M_SA_C.jpg,,0,43,43,60,,,,,,,,,,,SAD,1.313,None,None,None,None,None,None,,,,,,,,,,,,,,,2015_Nov_06_1653,G,facesParametric,27,59.7457074239,
./basicStim/23M_SP_O.jpg,,0,44,44,54,,,,,,,,,,,None,None,FEA,2.625,None,None,None,None,,,,,,,,,,,,,,,2015_Nov_06_1653,G,facesParametric,27,59.7457074239,
./basicStim/28M_FE_O.jpg,,0,45,45,65,,,,,,,,,,,None,None,FEA,0.59,None,None,None,None,,,,,,,,,,,,,,,2015_Nov_06_1653,G,facesParametric,27,59.7457074239,
./basicStim/28M_HA_O.jpg,,0,46,46,66,,,,,,,,,,,HAP,0.893,None,None,None,None,None,None,,,,,,,,,,,,,,,2015_Nov_06_1653,G,facesParametric,27,59.7457074239,
./basicStim/07F_FE_O.jpg,,0,47,47,30,,,,,,,,,,,HAP,3.022,None,None,None,None,None,None,,,,,,,,,,,,,,,2015_Nov_06_1653,G,facesParametric,27,59.7457074239,
./basicStim/01F_HA_O.jpg,,0,48,48,3,,,,,,,,,,,HAP,0.531,None,None,None,None,None,None,,,,,,,,,,,,,,,2015_Nov_06_1653,G,facesParametric,27,59.7457074239,
./basicStim/21M_SA_C.jpg,,0,49,49,46,,,,,,,,,,,None,None,ANG,1.646,None,None,None,None,,,,,,,,,,,,,,,2015_Nov_06_1653,G,facesParametric,27,59.7457074239,
./basicStim/01F_SP_O.jpg,,0,50,50,5,,,,,,,,,,,None,None,None,None,SUP,1.445,None,None,,,,,,,,,,,,,,,2015_Nov_06_1653,G,facesParametric,27,59.7457074239,
./basicStim/36M_DI_O.jpg,,0,51,51,78,,,,,,,,,,,None,None,None,None,DIS,1.274,None,None,,,,,,,,,,,,,,,2015_Nov_06_1653,G,facesParametric,27,59.7457074239,
./basicStim/07F_SP_O.jpg,,0,52,52,33,,,,,,,,,,,None,None,None,None,DIS,0.419,None,None,,,,,,,,,,,,,,,2015_Nov_06_1653,G,facesParametric,27,59.7457074239,
./basicStim/01F_FE_O.jpg,,0,53,53,2,,,,,,,,,,,None,None,FEA,3.607,None,None,None,None,,,,,,,,,,,,,,,2015_Nov_06_1653,G,facesParametric,27,59.7457074239,
./basicStim/23M_SA_C.jpg,,0,54,54,53,,,,,,,,,,,None,None,ANG,1.526,None,None,None,None,,,,,,,,,,,,,,,2015_Nov_06_1653,G,facesParametric,27,59.7457074239,
./basicStim/03F_NE_C.jpg,,0,55,55,20,,,,,,,,,,,None,None,None,None,None,None,NTR,1.224,,,,,,,,,,,,,,,2015_Nov_06_1653,G,facesParametric,27,59.7457074239,
./basicStim/34M_SA_C.jpg,,0,56,56,74,,,,,,,,,,,SAD,1.513,None,None,None,None,None,None,,,,,,,,,,,,,,,2015_Nov_06_1653,G,facesParametric,27,59.7457074239,
./basicStim/28M_AN_O.jpg,,0,57,57,63,,,,,,,,,,,None,None,ANG,2.064,None,None,None,None,,,,,,,,,,,,,,,2015_Nov_06_1653,G,facesParametric,27,59.7457074239,
./basicStim/01F_SA_C.jpg,,0,58,58,4,,,,,,,,,,,SAD,1.261,None,None,None,None,None,None,,,,,,,,,,,,,,,2015_Nov_06_1653,G,facesParametric,27,59.7457074239,
./basicStim/06F_AN_O.jpg,,0,59,59,21,,,,,,,,,,,None,None,ANG,1.197,None,None,None,None,,,,,,,,,,,,,,,2015_Nov_06_1653,G,facesParametric,27,59.7457074239,
./basicStim/34M_AN_O.jpg,,0,60,60,70,,,,,,,,,,,None,None,ANG,0.607,None,None,None,None,,,,,,,,,,,,,,,2015_Nov_06_1653,G,facesParametric,27,59.7457074239,
./basicStim/09F_AN_O.jpg,,0,61,61,35,,,,,,,,,,,None,None,ANG,0.875,None,None,None,None,,,,,,,,,,,,,,,2015_Nov_06_1653,G,facesParametric,27,59.7457074239,
./basicStim/23M_HA_O.jpg,,0,62,62,52,,,,,,,,,,,HAP,1.211,None,None,None,None,None,None,,,,,,,,,,,,,,,2015_Nov_06_1653,G,facesParametric,27,59.7457074239,
./basicStim/24M_FE_O.jpg,,0,63,63,58,,,,,,,,,,,None,None,None,None,DIS,4.883,None,None,,,,,,,,,,,,,,,2015_Nov_06_1653,G,facesParametric,27,59.7457074239,
./basicStim/09F_NE_C.jpg,,0,64,64,41,,,,,,,,,,,None,None,None,None,None,None,NTR,1.381,,,,,,,,,,,,,,,2015_Nov_06_1653,G,facesParametric,27,59.7457074239,
./basicStim/34M_DI_O.jpg,,0,65,65,71,,,,,,,,,,,None,None,None,None,DIS,1.104,None,None,,,,,,,,,,,,,,,2015_Nov_06_1653,G,facesParametric,27,59.7457074239,
./basicStim/02F_DI_O.jpg,,0,66,66,8,,,,,,,,,,,None,None,ANG,1.279,None,None,None,None,,,,,,,,,,,,,,,2015_Nov_06_1653,G,facesParametric,27,59.7457074239,
./basicStim/03F_FE_O.jpg,,0,67,67,16,,,,,,,,,,,None,None,FEA,1.161,None,None,None,None,,,,,,,,,,,,,,,2015_Nov_06_1653,G,facesParametric,27,59.7457074239,
./basicStim/03F_SP_O.jpg,,0,68,68,19,,,,,,,,,,,HAP,1.436,None,None,None,None,None,None,,,,,,,,,,,,,,,2015_Nov_06_1653,G,facesParametric,27,59.7457074239,
./basicStim/36M_HA_O.jpg,,0,69,69,80,,,,,,,,,,,HAP,0.632,None,None,None,None,None,None,,,,,,,,,,,,,,,2015_Nov_06_1653,G,facesParametric,27,59.7457074239,
./basicStim/09F_FE_O.jpg,,0,70,70,37,,,,,,,,,,,None,None,FEA,1.828,None,None,None,None,,,,,,,,,,,,,,,2015_Nov_06_1653,G,facesParametric,27,59.7457074239,
./basicStim/21M_AN_O.jpg,,0,71,71,42,,,,,,,,,,,None,None,ANG,0.957,None,None,None,None,,,,,,,,,,,,,,,2015_Nov_06_1653,G,facesParametric,27,59.7457074239,
./basicStim/36M_FE_O.jpg,,0,72,72,79,,,,,,,,,,,None,None,FEA,1.833,None,None,None,None,,,,,,,,,,,,,,,2015_Nov_06_1653,G,facesParametric,27,59.7457074239,
./basicStim/28M_SA_C.jpg,,0,73,73,67,,,,,,,,,,,None,None,ANG,1.815,None,None,None,None,,,,,,,,,,,,,,,2015_Nov_06_1653,G,facesParametric,27,59.7457074239,
./basicStim/06F_HA_O.jpg,,0,74,74,24,,,,,,,,,,,HAP,1.161,None,None,None,None,None,None,,,,,,,,,,,,,,,2015_Nov_06_1653,G,facesParametric,27,59.7457074239,
./basicStim/07F_AN_O.jpg,,0,75,75,28,,,,,,,,,,,None,None,ANG,1.312,None,None,None,None,,,,,,,,,,,,,,,2015_Nov_06_1653,G,facesParametric,27,59.7457074239,
./basicStim/09F_DI_O.jpg,,0,76,76,36,,,,,,,,,,,None,None,None,None,DIS,1.242,None,None,,,,,,,,,,,,,,,2015_Nov_06_1653,G,facesParametric,27,59.7457074239,
./basicStim/23M_NE_C.jpg,,0,77,77,55,,,,,,,,,,,None,None,None,None,None,None,NTR,1.057,,,,,,,,,,,,,,,2015_Nov_06_1653,G,facesParametric,27,59.7457074239,
./basicStim/01F_NE_C.jpg,,0,78,78,6,,,,,,,,,,,None,None,ANG,2.685,None,None,None,None,,,,,,,,,,,,,,,2015_Nov_06_1653,G,facesParametric,27,59.7457074239,
./basicStim/01F_AN_O.jpg,,0,79,79,0,,,,,,,,,,,None,None,ANG,0.595,None,None,None,None,,,,,,,,,,,,,,,2015_Nov_06_1653,G,facesParametric,27,59.7457074239,
./basicStim/36M_NE_C.jpg,,0,80,80,83,,,,,,,,,,,None,None,None,None,None,None,NTR,1.547,,,,,,,,,,,,,,,2015_Nov_06_1653,G,facesParametric,27,59.7457074239,
./basicStim/03F_AN_O.jpg,,0,81,81,14,,,,,,,,,,,None,None,ANG,1.429,None,None,None,None,,,,,,,,,,,,,,,2015_Nov_06_1653,G,facesParametric,27,59.7457074239,
./basicStim/36M_AN_O.jpg,,0,82,82,77,,,,,,,,,,,None,None,ANG,0.558,None,None,None,None,,,,,,,,,,,,,,,2015_Nov_06_1653,G,facesParametric,27,59.7457074239,
./basicStim/09F_HA_O.jpg,,0,83,83,38,,,,,,,,,,,HAP,1.011,None,None,None,None,None,None,,,,,,,,,,,,,,,2015_Nov_06_1653,G,facesParametric,27,59.7457074239,
,,,,,,,,,,,,,,,,,,,,,,,,return,1.17450499535,,,,,,,,,,,,,2015_Nov_06_1653,G,facesParametric,27,59.7457074239,
,,,,,,,,,,,,,,return,1.27284002304,,,,,,,,,,,,,,,,,,,,,,,2015_Nov_06_1653,G,facesParametric,27,59.7457074239,
,,,,,,,,,,,,,,,,,,,,,,,,return,1.47459506989,,,,,,,,,,,,,2015_Nov_06_1653,G,facesParametric,27,59.7457074239,
,,,,,,,,,,,,,,,,,,,,,,,,,,return,21.1012020111,,,,,,,,,,,2015_Nov_06_1653,G,facesParametric,27,59.7457074239,
./stim/MorphF3_00_orig.jpg,0,,,,,0,0,0,0,,,,,,,,,,,,,,,,,,,-3.076171875,-6.826171875,1,0,0,1.42049098015,,,,,2015_Nov_06_1653,G,facesParametric,27,59.7457074239,
./stim/MorphF8_10_orig.jpg,1,,,,,0,1,1,1,,,,,,,,,,,,,,,,,,,-3.076171875,-6.826171875,0,0,1,1.373005867,,,,,2015_Nov_06_1653,G,facesParametric,27,59.7457074239,
./stim/MorphF1_06_orig.jpg,2,,,,,0,2,2,2,,,,,,,,,,,,,,,,,,,-3.076171875,-6.826171875,0,0,1,2.24181485176,,,,,2015_Nov_06_1653,G,facesParametric,27,59.7457074239,
./stim/MorphM9_04_orig.jpg,3,,,,,0,3,3,3,,,,,,,,,,,,,,,,,,,-3.076171875,-6.826171875,1,0,0,2.797123909,,,,,2015_Nov_06_1653,G,facesParametric,27,59.7457074239,
./stim/MorphF2_04_orig.jpg,4,,,,,0,4,4,4,,,,,,,,,,,,,,,,,,,-3.076171875,-6.826171875,0,0,1,0.834380865097,,,,,2015_Nov_06_1653,G,facesParametric,27,59.7457074239,
./stim/MorphM1_09_orig.jpg,5,,,,,0,5,5,5,,,,,,,,,,,,,,,,,,,-3.076171875,-6.826171875,0,0,1,2.73115301132,,,,,2015_Nov_06_1653,G,facesParametric,27,59.7457074239,
./stim/MorphF6_08_orig.jpg,6,,,,,0,6,6,6,,,,,,,,,,,,,,,,,,,-3.076171875,-6.826171875,0,0,1,0.652293920517,,,,,2015_Nov_06_1653,G,facesParametric,27,59.7457074239,
./stim/MorphF7_10_orig.jpg,7,,,,,0,7,7,7,,,,,,,,,,,,,,,,,,,-3.076171875,-6.826171875,0,0,1,1.03576779366,,,,,2015_Nov_06_1653,G,facesParametric,27,59.7457074239,
./stim/MorphF8_03_orig.jpg,8,,,,,0,8,8,8,,,,,,,,,,,,,,,,,,,-3.076171875,-6.826171875,0,0,1,0.936578989029,,,,,2015_Nov_06_1653,G,facesParametric,27,59.7457074239,
./stim/MorphM3_06_orig.jpg,9,,,,,0,9,9,9,,,,,,,,,,,,,,,,,,,-3.076171875,-6.826171875,0,0,1,2.06030011177,,,,,2015_Nov_06_1653,G,facesParametric,27,59.7457074239,
./stim/MorphM7_00_orig.jpg,10,,,,,0,10,10,10,,,,,,,,,,,,,,,,,,,-3.076171875,-6.826171875,1,0,0,1.1538631916,,,,,2015_Nov_06_1653,G,facesParametric,27,59.7457074239,
./stim/MorphM8_02_orig.jpg,11,,,,,0,11,11,11,,,,,,,,,,,,,,,,,,,-3.076171875,-6.826171875,0,0,1,1.08754205704,,,,,2015_Nov_06_1653,G,facesParametric,27,59.7457074239,
./stim/MorphM2_01_orig.jpg,12,,,,,0,12,12,12,,,,,,,,,,,,,,,,,,,-3.076171875,-6.826171875,1,0,0,0.853549003601,,,,,2015_Nov_06_1653,G,facesParametric,27,59.7457074239,
./stim/MorphF10_10_orig.jpg,13,,,,,0,13,13,13,,,,,,,,,,,,,,,,,,,-3.076171875,-6.826171875,0,0,1,0.650985956192,,,,,2015_Nov_06_1653,G,facesParametric,27,59.7457074239,
./stim/MorphF4_06_orig.jpg,14,,,,,0,14,14,14,,,,,,,,,,,,,,,,,,,-3.076171875,-6.826171875,0,0,1,0.786923885345,,,,,2015_Nov_06_1653,G,facesParametric,27,59.7457074239,
./stim/MorphF2_06_orig.jpg,15,,,,,0,15,15,15,,,,,,,,,,,,,,,,,,,-3.076171875,-6.826171875,0,0,1,1.92605209351,,,,,2015_Nov_06_1653,G,facesParametric,27,59.7457074239,
./stim/MorphM10_07_orig.jpg,16,,,,,0,16,16,16,,,,,,,,,,,,,,,,,,,-3.076171875,-6.826171875,0,0,1,0.752513885498,,,,,2015_Nov_06_1653,G,facesParametric,27,59.7457074239,
./stim/MorphF3_10_orig.jpg,17,,,,,0,17,17,17,,,,,,,,,,,,,,,,,,,-3.076171875,-6.826171875,0,0,1,1.30638098717,,,,,2015_Nov_06_1653,G,facesParametric,27,59.7457074239,
./stim/MorphM6_00_orig.jpg,18,,,,,0,18,18,18,,,,,,,,,,,,,,,,,,,-3.076171875,-6.826171875,1,0,0,0.936728954315,,,,,2015_Nov_06_1653,G,facesParametric,27,59.7457074239,
./stim/MorphF6_10_orig.jpg,19,,,,,0,19,19,19,,,,,,,,,,,,,,,,,,,-3.076171875,-6.826171875,0,0,1,0.853464841843,,,,,2015_Nov_06_1653,G,facesParametric,27,59.7457074239,
./stim/MorphF1_08_orig.jpg,20,,,,,0,20,20,20,,,,,,,,,,,,,,,,,,,-3.076171875,-6.826171875,0,0,1,0.802009105682,,,,,2015_Nov_06_1653,G,facesParametric,27,59.7457074239,
./stim/MorphM10_01_orig.jpg,21,,,,,0,21,21,21,,,,,,,,,,,,,,,,,,,-3.076171875,-6.826171875,1,0,0,1.12090706825,,,,,2015_Nov_06_1653,G,facesParametric,27,59.7457074239,
./stim/MorphM3_08_orig.jpg,22,,,,,0,22,22,22,,,,,,,,,,,,,,,,,,,-3.076171875,-6.826171875,0,0,1,2.34484601021,,,,,2015_Nov_06_1653,G,facesParametric,27,59.7457074239,
./stim/MorphM2_02_orig.jpg,23,,,,,0,23,23,23,,,,,,,,,,,,,,,,,,,-3.076171875,-6.826171875,1,0,0,1.17174100876,,,,,2015_Nov_06_1653,G,facesParametric,27,59.7457074239,
./stim/MorphF10_03_orig.jpg,24,,,,,0,24,24,24,,,,,,,,,,,,,,,,,,,-3.076171875,-6.826171875,0,0,1,0.686080932617,,,,,2015_Nov_06_1653,G,facesParametric,27,59.7457074239,
./stim/MorphM5_08_orig.jpg,25,,,,,0,25,25,25,,,,,,,,,,,,,,,,,,,-3.076171875,-6.826171875,0,0,1,1.03815078735,,,,,2015_Nov_06_1653,G,facesParametric,27,59.7457074239,
./stim/MorphF1_04_orig.jpg,26,,,,,0,26,26,26,,,,,,,,,,,,,,,,,,,-3.076171875,-6.826171875,0,0,1,1.89219307899,,,,,2015_Nov_06_1653,G,facesParametric,27,59.7457074239,
./stim/MorphF10_09_orig.jpg,27,,,,,0,27,27,27,,,,,,,,,,,,,,,,,,,-3.076171875,-6.826171875,0,0,1,0.753092050552,,,,,2015_Nov_06_1653,G,facesParametric,27,59.7457074239,
./stim/MorphF7_00_orig.jpg,28,,,,,0,28,28,28,,,,,,,,,,,,,,,,,,,-3.076171875,-6.826171875,1,0,0,2.64627790451,,,,,2015_Nov_06_1653,G,facesParametric,27,59.7457074239,
./stim/MorphM3_01_orig.jpg,29,,,,,0,29,29,29,,,,,,,,,,,,,,,,,,,-3.076171875,-6.826171875,1,0,0,1.00434303284,,,,,2015_Nov_06_1653,G,facesParametric,27,59.7457074239,
./stim/MorphM6_07_orig.jpg,30,,,,,0,30,30,30,,,,,,,,,,,,,,,,,,,-3.076171875,-6.826171875,0,0,1,0.970580101013,,,,,2015_Nov_06_1653,G,facesParametric,27,59.7457074239,
./stim/MorphM7_01_orig.jpg,31,,,,,0,31,31,31,,,,,,,,,,,,,,,,,,,-3.076171875,-6.826171875,1,0,0,1.69179987907,,,,,2015_Nov_06_1653,G,facesParametric,27,59.7457074239,
./stim/MorphM4_02_orig.jpg,32,,,,,0,32,32,32,,,,,,,,,,,,,,,,,,,-3.076171875,-6.826171875,0,0,1,1.48959589005,,,,,2015_Nov_06_1653,G,facesParametric,27,59.7457074239,
./stim/MorphM7_02_orig.jpg,33,,,,,0,33,33,33,,,,,,,,,,,,,,,,,,,-3.076171875,-6.826171875,1,0,0,2.44543790817,,,,,2015_Nov_06_1653,G,facesParametric,27,59.7457074239,
./stim/MorphF7_09_orig.jpg,34,,,,,0,34,34,34,,,,,,,,,,,,,,,,,,,-3.076171875,-6.826171875,0,0,1,0.870424985886,,,,,2015_Nov_06_1653,G,facesParametric,27,59.7457074239,
./stim/MorphF10_08_orig.jpg,35,,,,,0,35,35,35,,,,,,,,,,,,,,,,,,,-3.076171875,-6.826171875,0,0,1,1.23889088631,,,,,2015_Nov_06_1653,G,facesParametric,27,59.7457074239,
./stim/MorphF6_02_orig.jpg,36,,,,,0,36,36,36,,,,,,,,,,,,,,,,,,,-3.076171875,-6.826171875,1,0,0,2.32809495926,,,,,2015_Nov_06_1653,G,facesParametric,27,59.7457074239,
./stim/MorphM9_03_orig.jpg,37,,,,,0,37,37,37,,,,,,,,,,,,,,,,,,,-3.076171875,-6.826171875,0,0,1,3.13251614571,,,,,2015_Nov_06_1653,G,facesParametric,27,59.7457074239,
./stim/MorphF3_02_orig.jpg,38,,,,,0,38,38,38,,,,,,,,,,,,,,,,,,,-3.076171875,-6.826171875,1,0,0,1.30600690842,,,,,2015_Nov_06_1653,G,facesParametric,27,59.7457074239,
./stim/MorphM8_04_orig.jpg,39,,,,,0,39,39,39,,,,,,,,,,,,,,,,,,,-3.076171875,-6.826171875,0,0,1,0.718372106552,,,,,2015_Nov_06_1653,G,facesParametric,27,59.7457074239,
./stim/MorphM1_08_orig.jpg,40,,,,,0,40,40,40,,,,,,,,,,,,,,,,,,,-3.076171875,-6.826171875,0,0,1,0.93651509285,,,,,2015_Nov_06_1653,G,facesParametric,27,59.7457074239,
./stim/MorphM4_01_orig.jpg,41,,,,,0,41,41,41,,,,,,,,,,,,,,,,,,,-3.076171875,-6.826171875,1,0,0,1.69134712219,,,,,2015_Nov_06_1653,G,facesParametric,27,59.7457074239,
./stim/MorphM9_01_orig.jpg,42,,,,,0,42,42,42,,,,,,,,,,,,,,,,,,,-3.076171875,-6.826171875,0,0,1,0.733685970306,,,,,2015_Nov_06_1653,G,facesParametric,27,59.7457074239,
./stim/MorphM8_00_orig.jpg,43,,,,,0,43,43,43,,,,,,,,,,,,,,,,,,,-3.076171875,-6.826171875,1,0,0,1.17202687263,,,,,2015_Nov_06_1653,G,facesParametric,27,59.7457074239,
./stim/MorphM6_10_orig.jpg,44,,,,,0,44,44,44,,,,,,,,,,,,,,,,,,,-3.076171875,-6.826171875,0,0,1,0.787276983261,,,,,2015_Nov_06_1653,G,facesParametric,27,59.7457074239,
./stim/MorphF1_03_orig.jpg,45,,,,,0,45,45,45,,,,,,,,,,,,,,,,,,,-3.076171875,-6.826171875,0,0,1,0.987298965454,,,,,2015_Nov_06_1653,G,facesParametric,27,59.7457074239,
./stim/MorphF2_01_orig.jpg,46,,,,,0,46,46,46,,,,,,,,,,,,,,,,,,,-3.076171875,-6.826171875,0,0,1,3.31440997124,,,,,2015_Nov_06_1653,G,facesParametric,27,59.7457074239,
./stim/MorphF7_04_orig.jpg,47,,,,,0,47,47,47,,,,,,,,,,,,,,,,,,,-3.076171875,-6.826171875,0,0,1,0.702800989151,,,,,2015_Nov_06_1653,G,facesParametric,27,59.7457074239,
./stim/MorphM10_00_orig.jpg,48,,,,,0,48,48,48,,,,,,,,,,,,,,,,,,,-3.076171875,-6.826171875,1,0,0,0.786019086838,,,,,2015_Nov_06_1653,G,facesParametric,27,59.7457074239,
./stim/MorphM4_08_orig.jpg,49,,,,,0,49,49,49,,,,,,,,,,,,,,,,,,,-3.076171875,-6.826171875,0,0,1,1.07161402702,,,,,2015_Nov_06_1653,G,facesParametric,27,59.7457074239,
./stim/MorphF6_04_orig.jpg,50,,,,,0,50,50,50,,,,,,,,,,,,,,,,,,,-3.076171875,-6.826171875,0,0,1,0.719199895859,,,,,2015_Nov_06_1653,G,facesParametric,27,59.7457074239,
./stim/MorphM4_10_orig.jpg,51,,,,,0,51,51,51,,,,,,,,,,,,,,,,,,,-3.076171875,-6.826171875,0,0,1,1.0881960392,,,,,2015_Nov_06_1653,G,facesParametric,27,59.7457074239,
./stim/MorphM1_00_orig.jpg,52,,,,,0,52,52,52,,,,,,,,,,,,,,,,,,,-3.076171875,-6.826171875,1,0,0,0.852016925812,,,,,2015_Nov_06_1653,G,facesParametric,27,59.7457074239,
./stim/MorphF1_09_orig.jpg,53,,,,,0,53,53,53,,,,,,,,,,,,,,,,,,,-3.076171875,-6.826171875,0,0,1,0.98744392395,,,,,2015_Nov_06_1653,G,facesParametric,27,59.7457074239,
./stim/MorphM5_07_orig.jpg,54,,,,,0,54,54,54,,,,,,,,,,,,,,,,,,,-3.076171875,-6.826171875,0,0,1,0.852851867676,,,,,2015_Nov_06_1653,G,facesParametric,27,59.7457074239,
./stim/MorphF4_04_orig.jpg,55,,,,,0,55,55,55,,,,,,,,,,,,,,,,,,,-3.076171875,-6.826171875,1,0,0,1.50726509094,,,,,2015_Nov_06_1653,G,facesParametric,27,59.7457074239,
./stim/MorphF3_03_orig.jpg,56,,,,,0,56,56,56,,,,,,,,,,,,,,,,,,,-3.076171875,-6.826171875,1,0,0,0.837113857269,,,,,2015_Nov_06_1653,G,facesParametric,27,59.7457074239,
./stim/MorphF2_10_orig.jpg,57,,,,,0,57,57,57,,,,,,,,,,,,,,,,,,,-3.076171875,-6.826171875,0,0,1,0.652520895004,,,,,2015_Nov_06_1653,G,facesParametric,27,59.7457074239,
./stim/MorphF7_02_orig.jpg,58,,,,,0,58,58,58,,,,,,,,,,,,,,,,,,,-3.076171875,-6.826171875,0,0,1,1.5068218708,,,,,2015_Nov_06_1653,G,facesParametric,27,59.7457074239,
./stim/MorphM2_08_orig.jpg,59,,,,,0,59,59,59,,,,,,,,,,,,,,,,,,,-3.076171875,-6.826171875,0,0,1,0.668568134308,,,,,2015_Nov_06_1653,G,facesParametric,27,59.7457074239,
./stim/MorphM6_08_orig.jpg,60,,,,,0,60,60,60,,,,,,,,,,,,,,,,,,,-3.076171875,-6.826171875,0,0,1,0.836793899536,,,,,2015_Nov_06_1653,G,facesParametric,27,59.7457074239,
./stim/MorphF9_08_orig.jpg,61,,,,,0,61,61,61,,,,,,,,,,,,,,,,,,,-3.076171875,-6.826171875,0,0,1,0.735273122787,,,,,2015_Nov_06_1653,G,facesParametric,27,59.7457074239,
./stim/MorphF2_09_orig.jpg,62,,,,,0,62,62,62,,,,,,,,,,,,,,,,,,,-3.076171875,-6.826171875,0,0,1,0.683494091034,,,,,2015_Nov_06_1653,G,facesParametric,27,59.7457074239,
./stim/MorphM9_09_orig.jpg,63,,,,,0,63,63,63,,,,,,,,,,,,,,,,,,,-3.076171875,-6.826171875,0,0,1,0.76952290535,,,,,2015_Nov_06_1653,G,facesParametric,27,59.7457074239,
./stim/MorphF6_00_orig.jpg,64,,,,,0,64,64,64,,,,,,,,,,,,,,,,,,,-3.076171875,-6.826171875,1,0,0,0.836865901947,,,,,2015_Nov_06_1653,G,facesParametric,27,59.7457074239,
./stim/MorphM7_06_orig.jpg,65,,,,,0,65,65,65,,,,,,,,,,,,,,,,,,,-3.076171875,-6.826171875,0,0,1,1.1863720417,,,,,2015_Nov_06_1653,G,facesParametric,27,59.7457074239,
./stim/MorphM3_07_orig.jpg,66,,,,,0,66,66,66,,,,,,,,,,,,,,,,,,,-3.076171875,-6.826171875,0,0,1,3.50174188614,,,,,2015_Nov_06_1653,G,facesParametric,27,59.7457074239,
./stim/MorphF7_05_orig.jpg,67,,,,,0,67,67,67,,,,,,,,,,,,,,,,,,,-3.076171875,-6.826171875,0,0,1,0.651858091354,,,,,2015_Nov_06_1653,G,facesParametric,27,59.7457074239,
./stim/MorphM5_03_orig.jpg,68,,,,,0,68,68,68,,,,,,,,,,,,,,,,,,,-3.076171875,-6.826171875,1,0,0,1.57429909706,,,,,2015_Nov_06_1653,G,facesParametric,27,59.7457074239,
./stim/MorphF8_09_orig.jpg,69,,,,,0,69,69,69,,,,,,,,,,,,,,,,,,,-3.076171875,-6.826171875,0,0,1,0.752884864807,,,,,2015_Nov_06_1653,G,facesParametric,27,59.7457074239,
./stim/MorphM5_06_orig.jpg,70,,,,,0,70,70,70,,,,,,,,,,,,,,,,,,,-3.076171875,-6.826171875,0,0,1,1.2893409729,,,,,2015_Nov_06_1653,G,facesParametric,27,59.7457074239,
./stim/MorphF8_08_orig.jpg,71,,,,,0,71,71,71,,,,,,,,,,,,,,,,,,,-3.076171875,-6.826171875,0,0,1,0.870210886002,,,,,2015_Nov_06_1653,G,facesParametric,27,59.7457074239,
./stim/MorphF4_01_orig.jpg,72,,,,,0,72,72,72,,,,,,,,,,,,,,,,,,,-3.076171875,-6.826171875,1,0,0,1.00353002548,,,,,2015_Nov_06_1653,G,facesParametric,27,59.7457074239,
./stim/MorphF5_01_orig.jpg,73,,,,,0,73,73,73,,,,,,,,,,,,,,,,,,,-3.076171875,-6.826171875,1,0,0,1.22058010101,,,,,2015_Nov_06_1653,G,facesParametric,27,59.7457074239,
./stim/MorphF10_07_orig.jpg,74,,,,,0,74,74,74,,,,,,,,,,,,,,,,,,,-3.076171875,-6.826171875,0,0,1,1.72340703011,,,,,2015_Nov_06_1653,G,facesParametric,27,59.7457074239,
./stim/MorphM2_03_orig.jpg,75,,,,,0,75,75,75,,,,,,,,,,,,,,,,,,,-3.076171875,-6.826171875,1,0,0,0.870718002319,,,,,2015_Nov_06_1653,G,facesParametric,27,59.7457074239,
./stim/MorphF9_07_orig.jpg,76,,,,,0,76,76,76,,,,,,,,,,,,,,,,,,,-3.076171875,-6.826171875,0,0,1,0.668407917023,,,,,2015_Nov_06_1653,G,facesParametric,27,59.7457074239,
./stim/MorphM3_00_orig.jpg,77,,,,,0,77,77,77,,,,,,,,,,,,,,,,,,,-3.076171875,-6.826171875,0,0,1,1.25440788269,,,,,2015_Nov_06_1653,G,facesParametric,27,59.7457074239,
./stim/MorphF6_06_orig.jpg,78,,,,,0,78,78,78,,,,,,,,,,,,,,,,,,,-3.076171875,-6.826171875,0,0,1,1.94278502464,,,,,2015_Nov_06_1653,G,facesParametric,27,59.7457074239,
./stim/MorphF4_05_orig.jpg,79,,,,,0,79,79,79,,,,,,,,,,,,,,,,,,,-3.076171875,-6.826171875,0,0,1,1.85913681984,,,,,2015_Nov_06_1653,G,facesParametric,27,59.7457074239,
./stim/MorphM5_00_orig.jpg,80,,,,,0,80,80,80,,,,,,,,,,,,,,,,,,,-3.076171875,-6.826171875,1,0,0,1.60770916939,,,,,2015_Nov_06_1653,G,facesParametric,27,59.7457074239,
./stim/MorphM3_04_orig.jpg,81,,,,,0,81,81,81,,,,,,,,,,,,,,,,,,,-3.076171875,-6.826171875,0,0,1,1.50699210167,,,,,2015_Nov_06_1653,G,facesParametric,27,59.7457074239,
./stim/MorphF8_06_orig.jpg,82,,,,,0,82,82,82,,,,,,,,,,,,,,,,,,,-3.076171875,-6.826171875,0,0,1,1.28924608231,,,,,2015_Nov_06_1653,G,facesParametric,27,59.7457074239,
./stim/MorphM4_06_orig.jpg,83,,,,,0,83,83,83,,,,,,,,,,,,,,,,,,,-3.076171875,-6.826171875,0,0,1,0.81992483139,,,,,2015_Nov_06_1653,G,facesParametric,27,59.7457074239,
./stim/MorphF10_05_orig.jpg,84,,,,,0,84,84,84,,,,,,,,,,,,,,,,,,,-3.076171875,-6.826171875,0,0,1,0.702801942825,,,,,2015_Nov_06_1653,G,facesParametric,27,59.7457074239,
./stim/MorphF9_09_orig.jpg,85,,,,,0,85,85,85,,,,,,,,,,,,,,,,,,,-3.076171875,-6.826171875,0,0,1,1.37334895134,,,,,2015_Nov_06_1653,G,facesParametric,27,59.7457074239,
./stim/MorphM10_02_orig.jpg,86,,,,,0,86,86,86,,,,,,,,,,,,,,,,,,,-3.076171875,-6.826171875,1,0,0,1.0693461895,,,,,2015_Nov_06_1653,G,facesParametric,27,59.7457074239,
./stim/MorphF5_03_orig.jpg,87,,,,,0,87,87,87,,,,,,,,,,,,,,,,,,,-3.076171875,-6.826171875,0,0,1,1.17173695564,,,,,2015_Nov_06_1653,G,facesParametric,27,59.7457074239,
./stim/MorphF1_05_orig.jpg,88,,,,,0,88,88,88,,,,,,,,,,,,,,,,,,,-3.076171875,-6.826171875,0,0,1,0.953731060028,,,,,2015_Nov_06_1653,G,facesParametric,27,59.7457074239,
./stim/MorphM6_02_orig.jpg,89,,,,,0,89,89,89,,,,,,,,,,,,,,,,,,,-3.076171875,-6.826171875,1,0,0,1.17219614983,,,,,2015_Nov_06_1653,G,facesParametric,27,59.7457074239,
./stim/MorphF10_02_orig.jpg,90,,,,,0,90,90,90,,,,,,,,,,,,,,,,,,,-3.076171875,-6.826171875,0,0,1,1.13816404343,,,,,2015_Nov_06_1653,G,facesParametric,27,59.7457074239,
./stim/MorphF7_01_orig.jpg,91,,,,,0,91,91,91,,,,,,,,,,,,,,,,,,,-3.076171875,-6.826171875,1,0,0,1.24003410339,,,,,2015_Nov_06_1653,G,facesParametric,27,59.7457074239,
./stim/MorphM10_06_orig.jpg,92,,,,,0,92,92,92,,,,,,,,,,,,,,,,,,,-3.076171875,-6.826171875,0,0,1,0.66764998436,,,,,2015_Nov_06_1653,G,facesParametric,27,59.7457074239,
./stim/MorphF2_05_orig.jpg,93,,,,,0,93,93,93,,,,,,,,,,,,,,,,,,,-3.076171875,-6.826171875,0,0,1,1.03772902489,,,,,2015_Nov_06_1653,G,facesParametric,27,59.7457074239,
./stim/MorphM8_06_orig.jpg,94,,,,,0,94,94,94,,,,,,,,,,,,,,,,,,,-3.076171875,-6.826171875,0,0,1,0.869951963425,,,,,2015_Nov_06_1653,G,facesParametric,27,59.7457074239,
./stim/MorphM2_06_orig.jpg,95,,,,,0,95,95,95,,,,,,,,,,,,,,,,,,,-3.076171875,-6.826171875,0,0,1,3.06562709808,,,,,2015_Nov_06_1653,G,facesParametric,27,59.7457074239,
./stim/MorphF4_10_orig.jpg,96,,,,,0,96,96,96,,,,,,,,,,,,,,,,,,,-3.076171875,-6.826171875,0,0,1,0.667284965515,,,,,2015_Nov_06_1653,G,facesParametric,27,59.7457074239,
./stim/MorphF1_10_orig.jpg,97,,,,,0,97,97,97,,,,,,,,,,,,,,,,,,,-3.076171875,-6.826171875,0,0,1,1.64173603058,,,,,2015_Nov_06_1653,G,facesParametric,27,59.7457074239,
./stim/MorphF3_05_orig.jpg,98,,,,,0,98,98,98,,,,,,,,,,,,,,,,,,,-3.076171875,-6.826171875,1,0,0,4.08682799339,,,,,2015_Nov_06_1653,G,facesParametric,27,59.7457074239,
./stim/MorphM8_03_orig.jpg,99,,,,,0,99,99,99,,,,,,,,,,,,,,,,,,,-3.076171875,-6.826171875,0,0,1,1.08824300766,,,,,2015_Nov_06_1653,G,facesParametric,27,59.7457074239,
./stim/MorphM10_10_orig.jpg,100,,,,,0,100,100,100,,,,,,,,,,,,,,,,,,,-3.076171875,-6.826171875,0,0,1,0.736592054367,,,,,2015_Nov_06_1653,G,facesParametric,27,59.7457074239,
./stim/MorphM8_07_orig.jpg,101,,,,,0,101,101,101,,,,,,,,,,,,,,,,,,,-3.076171875,-6.826171875,0,0,1,1.00225496292,,,,,2015_Nov_06_1653,G,facesParametric,27,59.7457074239,
./stim/MorphF8_07_orig.jpg,102,,,,,0,102,102,102,,,,,,,,,,,,,,,,,,,-3.076171875,-6.826171875,0,0,1,0.836991071701,,,,,2015_Nov_06_1653,G,facesParametric,27,59.7457074239,
./stim/MorphF1_01_orig.jpg,103,,,,,0,103,103,103,,,,,,,,,,,,,,,,,,,-3.076171875,-6.826171875,1,0,0,1.62412500381,,,,,2015_Nov_06_1653,G,facesParametric,27,59.7457074239,
./stim/MorphM8_09_orig.jpg,104,,,,,0,104,104,104,,,,,,,,,,,,,,,,,,,-3.076171875,-6.826171875,0,0,1,0.752619028091,,,,,2015_Nov_06_1653,G,facesParametric,27,59.7457074239,
./stim/MorphM10_08_orig.jpg,105,,,,,0,105,105,105,,,,,,,,,,,,,,,,,,,-3.076171875,-6.826171875,0,0,1,0.736389875412,,,,,2015_Nov_06_1653,G,facesParametric,27,59.7457074239,
./stim/MorphF8_04_orig.jpg,106,,,,,0,106,106,106,,,,,,,,,,,,,,,,,,,-3.076171875,-6.826171875,0,0,1,1.37113499641,,,,,2015_Nov_06_1653,G,facesParametric,27,59.7457074239,
./stim/MorphF9_04_orig.jpg,107,,,,,0,107,107,107,,,,,,,,,,,,,,,,,,,-3.076171875,-6.826171875,1,0,0,1.12152600288,,,,,2015_Nov_06_1653,G,facesParametric,27,59.7457074239,
./stim/MorphF3_09_orig.jpg,108,,,,,0,108,108,108,,,,,,,,,,,,,,,,,,,-3.076171875,-6.826171875,0,0,1,1.15501403809,,,,,2015_Nov_06_1653,G,facesParametric,27,59.7457074239,
./stim/MorphM3_03_orig.jpg,109,,,,,0,109,109,109,,,,,,,,,,,,,,,,,,,-3.076171875,-6.826171875,1,0,0,2.24478602409,,,,,2015_Nov_06_1653,G,facesParametric,27,59.7457074239,
./stim/MorphF6_03_orig.jpg,110,,,,,0,110,110,110,,,,,,,,,,,,,,,,,,,-3.076171875,-6.826171875,0,0,1,0.701132059097,,,,,2015_Nov_06_1653,G,facesParametric,27,59.7457074239,
./stim/MorphM7_08_orig.jpg,111,,,,,0,111,111,111,,,,,,,,,,,,,,,,,,,-3.076171875,-6.826171875,0,0,1,1.13755393028,,,,,2015_Nov_06_1653,G,facesParametric,27,59.7457074239,
./stim/MorphM8_08_orig.jpg,112,,,,,0,112,112,112,,,,,,,,,,,,,,,,,,,-3.076171875,-6.826171875,0,0,1,1.3883960247,,,,,2015_Nov_06_1653,G,facesParametric,27,59.7457074239,
./stim/MorphM4_05_orig.jpg,113,,,,,0,113,113,113,,,,,,,,,,,,,,,,,,,-3.076171875,-6.826171875,0,0,1,1.08803200722,,,,,2015_Nov_06_1653,G,facesParametric,27,59.7457074239,
./stim/MorphF2_08_orig.jpg,114,,,,,0,114,114,114,,,,,,,,,,,,,,,,,,,-3.076171875,-6.826171875,0,0,1,0.685544967651,,,,,2015_Nov_06_1653,G,facesParametric,27,59.7457074239,
./stim/MorphF9_03_orig.jpg,115,,,,,0,115,115,115,,,,,,,,,,,,,,,,,,,-3.076171875,-6.826171875,1,0,0,0.7023229599,,,,,2015_Nov_06_1653,G,facesParametric,27,59.7457074239,
./stim/MorphM1_03_orig.jpg,116,,,,,0,116,116,116,,,,,,,,,,,,,,,,,,,-3.076171875,-6.826171875,1,0,0,1.12158417702,,,,,2015_Nov_06_1653,G,facesParametric,27,59.7457074239,
./stim/MorphF9_10_orig.jpg,117,,,,,0,117,117,117,,,,,,,,,,,,,,,,,,,-3.076171875,-6.826171875,0,0,1,0.786015987396,,,,,2015_Nov_06_1653,G,facesParametric,27,59.7457074239,
./stim/MorphM6_01_orig.jpg,118,,,,,0,118,118,118,,,,,,,,,,,,,,,,,,,-3.076171875,-6.826171875,1,0,0,0.837193012238,,,,,2015_Nov_06_1653,G,facesParametric,27,59.7457074239,
./stim/MorphM9_00_orig.jpg,119,,,,,0,119,119,119,,,,,,,,,,,,,,,,,,,-3.076171875,-6.826171875,1,0,0,1.57277297974,,,,,2015_Nov_06_1653,G,facesParametric,27,59.7457074239,
./stim/MorphM1_01_orig.jpg,120,,,,,0,120,120,120,,,,,,,,,,,,,,,,,,,-3.076171875,-6.826171875,1,0,0,1.57519888878,,,,,2015_Nov_06_1653,G,facesParametric,27,59.7457074239,
./stim/MorphF5_04_orig.jpg,121,,,,,0,121,121,121,,,,,,,,,,,,,,,,,,,-3.076171875,-6.826171875,1,0,0,1.33777403831,,,,,2015_Nov_06_1653,G,facesParametric,27,59.7457074239,
./stim/MorphM2_04_orig.jpg,122,,,,,0,122,122,122,,,,,,,,,,,,,,,,,,,-3.076171875,-6.826171875,1,0,0,1.00443291664,,,,,2015_Nov_06_1653,G,facesParametric,27,59.7457074239,
./stim/MorphF5_06_orig.jpg,123,,,,,0,123,123,123,,,,,,,,,,,,,,,,,,,-3.076171875,-6.826171875,0,0,1,1.69246292114,,,,,2015_Nov_06_1653,G,facesParametric,27,59.7457074239,
./stim/MorphF8_00_orig.jpg,124,,,,,0,124,124,124,,,,,,,,,,,,,,,,,,,-3.076171875,-6.826171875,1,0,0,1.13745093346,,,,,2015_Nov_06_1653,G,facesParametric,27,59.7457074239,
./stim/MorphF5_07_orig.jpg,125,,,,,0,125,125,125,,,,,,,,,,,,,,,,,,,-3.076171875,-6.826171875,0,0,1,0.97057890892,,,,,2015_Nov_06_1653,G,facesParametric,27,59.7457074239,
./stim/MorphM4_03_orig.jpg,126,,,,,0,126,126,126,,,,,,,,,,,,,,,,,,,-3.076171875,-6.826171875,1,0,0,2.99902582169,,,,,2015_Nov_06_1653,G,facesParametric,27,59.7457074239,
./stim/MorphM6_06_orig.jpg,127,,,,,0,127,127,127,,,,,,,,,,,,,,,,,,,-3.076171875,-6.826171875,0,0,1,0.769459962845,,,,,2015_Nov_06_1653,G,facesParametric,27,59.7457074239,
./stim/MorphM5_01_orig.jpg,128,,,,,0,128,128,128,,,,,,,,,,,,,,,,,,,-3.076171875,-6.826171875,1,0,0,1.22062897682,,,,,2015_Nov_06_1653,G,facesParametric,27,59.7457074239,
./stim/MorphM2_07_orig.jpg,129,,,,,0,129,129,129,,,,,,,,,,,,,,,,,,,-3.076171875,-6.826171875,0,0,1,1.75881695747,,,,,2015_Nov_06_1653,G,facesParametric,27,59.7457074239,
./stim/MorphM4_07_orig.jpg,130,,,,,0,130,130,130,,,,,,,,,,,,,,,,,,,-3.076171875,-6.826171875,0,0,1,1.97557711601,,,,,2015_Nov_06_1653,G,facesParametric,27,59.7457074239,
./stim/MorphF4_07_orig.jpg,131,,,,,0,131,131,131,,,,,,,,,,,,,,,,,,,-3.076171875,-6.826171875,0,0,1,0.702878952026,,,,,2015_Nov_06_1653,G,facesParametric,27,59.7457074239,
./stim/MorphF8_02_orig.jpg,132,,,,,0,132,132,132,,,,,,,,,,,,,,,,,,,-3.076171875,-6.826171875,1,0,0,2.19430494308,,,,,2015_Nov_06_1653,G,facesParametric,27,59.7457074239,
./stim/MorphM6_03_orig.jpg,133,,,,,0,133,133,133,,,,,,,,,,,,,,,,,,,-3.076171875,-6.826171875,1,0,0,3.45127010345,,,,,2015_Nov_06_1653,G,facesParametric,27,59.7457074239,
./stim/MorphF5_09_orig.jpg,134,,,,,0,134,134,134,,,,,,,,,,,,,,,,,,,-3.076171875,-6.826171875,0,0,1,1.23824095726,,,,,2015_Nov_06_1653,G,facesParametric,27,59.7457074239,
./stim/MorphF3_01_orig.jpg,135,,,,,0,135,135,135,,,,,,,,,,,,,,,,,,,-3.076171875,-6.826171875,1,0,0,1.55751991272,,,,,2015_Nov_06_1653,G,facesParametric,27,59.7457074239,
./stim/MorphM5_10_orig.jpg,136,,,,,0,136,136,136,,,,,,,,,,,,,,,,,,,-3.076171875,-6.826171875,0,0,1,0.785612106323,,,,,2015_Nov_06_1653,G,facesParametric,27,59.7457074239,
./stim/MorphF2_00_orig.jpg,137,,,,,0,137,137,137,,,,,,,,,,,,,,,,,,,-3.076171875,-6.826171875,1,0,0,2.34484195709,,,,,2015_Nov_06_1653,G,facesParametric,27,59.7457074239,
./stim/MorphM1_04_orig.jpg,138,,,,,0,138,138,138,,,,,,,,,,,,,,,,,,,-3.076171875,-6.826171875,1,0,0,0.903753995895,,,,,2015_Nov_06_1653,G,facesParametric,27,59.7457074239,
./stim/MorphF5_05_orig.jpg,139,,,,,0,139,139,139,,,,,,,,,,,,,,,,,,,-3.076171875,-6.826171875,0,0,1,1.27196097374,,,,,2015_Nov_06_1653,G,facesParametric,27,59.7457074239,
./stim/MorphF4_00_orig.jpg,140,,,,,0,140,140,140,,,,,,,,,,,,,,,,,,,-3.076171875,-6.826171875,1,0,0,1.07214689255,,,,,2015_Nov_06_1653,G,facesParametric,27,59.7457074239,
./stim/MorphF6_09_orig.jpg,141,,,,,0,141,141,141,,,,,,,,,,,,,,,,,,,-3.076171875,-6.826171875,0,0,1,0.71835899353,,,,,2015_Nov_06_1653,G,facesParametric,27,59.7457074239,
./stim/MorphF8_01_orig.jpg,142,,,,,0,142,142,142,,,,,,,,,,,,,,,,,,,-3.076171875,-6.826171875,1,0,0,0.95401597023,,,,,2015_Nov_06_1653,G,facesParametric,27,59.7457074239,
./stim/MorphM5_05_orig.jpg,143,,,,,0,143,143,143,,,,,,,,,,,,,,,,,,,-3.076171875,-6.826171875,0,0,1,0.987497091293,,,,,2015_Nov_06_1653,G,facesParametric,27,59.7457074239,
./stim/MorphM9_07_orig.jpg,144,,,,,0,144,144,144,,,,,,,,,,,,,,,,,,,-3.076171875,-6.826171875,0,0,1,1.65806984901,,,,,2015_Nov_06_1653,G,facesParametric,27,59.7457074239,
./stim/MorphM6_05_orig.jpg,145,,,,,0,145,145,145,,,,,,,,,,,,,,,,,,,-3.076171875,-6.826171875,0,0,1,1.85893583298,,,,,2015_Nov_06_1653,G,facesParametric,27,59.7457074239,
./stim/MorphF3_07_orig.jpg,146,,,,,0,146,146,146,,,,,,,,,,,,,,,,,,,-3.076171875,-6.826171875,1,0,0,1.02089285851,,,,,2015_Nov_06_1653,G,facesParametric,27,59.7457074239,
./stim/MorphM1_07_orig.jpg,147,,,,,0,147,147,147,,,,,,,,,,,,,,,,,,,-3.076171875,-6.826171875,0,0,1,0.970077991486,,,,,2015_Nov_06_1653,G,facesParametric,27,59.7457074239,
./stim/MorphF2_07_orig.jpg,148,,,,,0,148,148,148,,,,,,,,,,,,,,,,,,,-3.076171875,-6.826171875,0,0,1,0.751446962357,,,,,2015_Nov_06_1653,G,facesParametric,27,59.7457074239,
./stim/MorphF8_05_orig.jpg,149,,,,,0,149,149,149,,,,,,,,,,,,,,,,,,,-3.076171875,-6.826171875,0,0,1,2.96507787704,,,,,2015_Nov_06_1653,G,facesParametric,27,59.7457074239,
./stim/MorphF5_00_orig.jpg,150,,,,,0,150,150,150,,,,,,,,,,,,,,,,,,,-3.076171875,-6.826171875,1,0,0,1.30588006973,,,,,2015_Nov_06_1653,G,facesParametric,27,59.7457074239,
./stim/MorphF1_00_orig.jpg,151,,,,,0,151,151,151,,,,,,,,,,,,,,,,,,,-3.076171875,-6.826171875,1,0,0,1.25587487221,,,,,2015_Nov_06_1653,G,facesParametric,27,59.7457074239,
./stim/MorphF6_05_orig.jpg,152,,,,,0,152,152,152,,,,,,,,,,,,,,,,,,,-3.076171875,-6.826171875,0,0,1,0.785192012787,,,,,2015_Nov_06_1653,G,facesParametric,27,59.7457074239,
./stim/MorphM2_00_orig.jpg,153,,,,,0,153,153,153,,,,,,,,,,,,,,,,,,,-3.076171875,-6.826171875,1,0,0,0.935209989548,,,,,2015_Nov_06_1653,G,facesParametric,27,59.7457074239,
./stim/MorphF10_01_orig.jpg,154,,,,,0,154,154,154,,,,,,,,,,,,,,,,,,,-3.076171875,-6.826171875,0,0,1,1.54166889191,,,,,2015_Nov_06_1653,G,facesParametric,27,59.7457074239,
./stim/MorphM3_10_orig.jpg,155,,,,,0,155,155,155,,,,,,,,,,,,,,,,,,,-3.076171875,-6.826171875,0,0,1,0.936629056931,,,,,2015_Nov_06_1653,G,facesParametric,27,59.7457074239,
./stim/MorphF7_03_orig.jpg,156,,,,,0,156,156,156,,,,,,,,,,,,,,,,,,,-3.076171875,-6.826171875,0,0,1,1.58961606026,,,,,2015_Nov_06_1653,G,facesParametric,27,59.7457074239,
./stim/MorphM3_09_orig.jpg,157,,,,,0,157,157,157,,,,,,,,,,,,,,,,,,,-3.076171875,-6.826171875,0,0,1,1.70684099197,,,,,2015_Nov_06_1653,G,facesParametric,27,59.7457074239,
./stim/MorphF4_02_orig.jpg,158,,,,,0,158,158,158,,,,,,,,,,,,,,,,,,,-3.076171875,-6.826171875,1,0,0,1.30616402626,,,,,2015_Nov_06_1653,G,facesParametric,27,59.7457074239,
./stim/MorphF10_06_orig.jpg,159,,,,,0,159,159,159,,,,,,,,,,,,,,,,,,,-3.076171875,-6.826171875,0,0,1,0.633370876312,,,,,2015_Nov_06_1653,G,facesParametric,27,59.7457074239,
./stim/MorphF6_07_orig.jpg,160,,,,,0,160,160,160,,,,,,,,,,,,,,,,,,,-3.076171875,-6.826171875,0,0,1,0.802997112274,,,,,2015_Nov_06_1653,G,facesParametric,27,59.7457074239,
./stim/MorphF2_03_orig.jpg,161,,,,,0,161,161,161,,,,,,,,,,,,,,,,,,,-3.076171875,-6.826171875,1,0,0,1.74304986,,,,,2015_Nov_06_1653,G,facesParametric,27,59.7457074239,
./stim/MorphM10_04_orig.jpg,162,,,,,0,162,162,162,,,,,,,,,,,,,,,,,,,-3.076171875,-6.826171875,0,0,1,1.72408604622,,,,,2015_Nov_06_1653,G,facesParametric,27,59.7457074239,
./stim/MorphM5_02_orig.jpg,163,,,,,0,163,163,163,,,,,,,,,,,,,,,,,,,-3.076171875,-6.826171875,1,0,0,0.987760066986,,,,,2015_Nov_06_1653,G,facesParametric,27,59.7457074239,
./stim/MorphM6_09_orig.jpg,164,,,,,0,164,164,164,,,,,,,,,,,,,,,,,,,-3.076171875,-6.826171875,0,0,1,1.35474991798,,,,,2015_Nov_06_1653,G,facesParametric,27,59.7457074239,
./stim/MorphM4_09_orig.jpg,165,,,,,0,165,165,165,,,,,,,,,,,,,,,,,,,-3.076171875,-6.826171875,0,0,1,1.00438594818,,,,,2015_Nov_06_1653,G,facesParametric,27,59.7457074239,
./stim/MorphM5_09_orig.jpg,166,,,,,0,166,166,166,,,,,,,,,,,,,,,,,,,-3.076171875,-6.826171875,0,0,1,0.75248003006,,,,,2015_Nov_06_1653,G,facesParametric,27,59.7457074239,
./stim/MorphM2_05_orig.jpg,167,,,,,0,167,167,167,,,,,,,,,,,,,,,,,,,-3.076171875,-6.826171875,1,0,0,1.13853001595,,,,,2015_Nov_06_1653,G,facesParametric,27,59.7457074239,
./stim/MorphM1_02_orig.jpg,168,,,,,0,168,168,168,,,,,,,,,,,,,,,,,,,-3.076171875,-6.826171875,1,0,0,0.786768913269,,,,,2015_Nov_06_1653,G,facesParametric,27,59.7457074239,
./stim/MorphM7_09_orig.jpg,169,,,,,0,169,169,169,,,,,,,,,,,,,,,,,,,-3.076171875,-6.826171875,0,0,1,1.59083199501,,,,,2015_Nov_06_1653,G,facesParametric,27,59.7457074239,
./stim/MorphM10_03_orig.jpg,170,,,,,0,170,170,170,,,,,,,,,,,,,,,,,,,-3.076171875,-6.826171875,1,0,0,2.31166505814,,,,,2015_Nov_06_1653,G,facesParametric,27,59.7457074239,
./stim/MorphM2_09_orig.jpg,171,,,,,0,171,171,171,,,,,,,,,,,,,,,,,,,-3.076171875,-6.826171875,0,0,1,0.886885881424,,,,,2015_Nov_06_1653,G,facesParametric,27,59.7457074239,
./stim/MorphF3_04_orig.jpg,172,,,,,0,172,172,172,,,,,,,,,,,,,,,,,,,-3.076171875,-6.826171875,1,0,0,0.820038080215,,,,,2015_Nov_06_1653,G,facesParametric,27,59.7457074239,
./stim/MorphM9_06_orig.jpg,173,,,,,0,173,173,173,,,,,,,,,,,,,,,,,,,-3.076171875,-6.826171875,1,0,0,2.3450191021,,,,,2015_Nov_06_1653,G,facesParametric,27,59.7457074239,
./stim/MorphF7_08_orig.jpg,174,,,,,0,174,174,174,,,,,,,,,,,,,,,,,,,-3.076171875,-6.826171875,0,0,1,0.602028846741,,,,,2015_Nov_06_1653,G,facesParametric,27,59.7457074239,
./stim/MorphM9_02_orig.jpg,175,,,,,0,175,175,175,,,,,,,,,,,,,,,,,,,-3.076171875,-6.826171875,1,0,0,0.903789997101,,,,,2015_Nov_06_1653,G,facesParametric,27,59.7457074239,
./stim/MorphF7_06_orig.jpg,176,,,,,0,176,176,176,,,,,,,,,,,,,,,,,,,-3.076171875,-6.826171875,0,0,1,1.00402998924,,,,,2015_Nov_06_1653,G,facesParametric,27,59.7457074239,
./stim/MorphF5_08_orig.jpg,177,,,,,0,177,177,177,,,,,,,,,,,,,,,,,,,-3.076171875,-6.826171875,0,0,1,1.13829088211,,,,,2015_Nov_06_1653,G,facesParametric,27,59.7457074239,
./stim/MorphM10_05_orig.jpg,178,,,,,0,178,178,178,,,,,,,,,,,,,,,,,,,-3.076171875,-6.826171875,0,0,1,5.54649305344,,,,,2015_Nov_06_1653,G,facesParametric,27,59.7457074239,
./stim/MorphF9_06_orig.jpg,179,,,,,0,179,179,179,,,,,,,,,,,,,,,,,,,-3.076171875,-6.826171875,1,0,0,1.74130702019,,,,,2015_Nov_06_1653,G,facesParametric,27,59.7457074239,
./stim/MorphM6_04_orig.jpg,180,,,,,0,180,180,180,,,,,,,,,,,,,,,,,,,-3.076171875,-6.826171875,1,0,0,0.853950977325,,,,,2015_Nov_06_1653,G,facesParametric,27,59.7457074239,
./stim/MorphM7_03_orig.jpg,181,,,,,0,181,181,181,,,,,,,,,,,,,,,,,,,-3.076171875,-6.826171875,1,0,0,1.35541892052,,,,,2015_Nov_06_1653,G,facesParametric,27,59.7457074239,
./stim/MorphF4_09_orig.jpg,182,,,,,0,182,182,182,,,,,,,,,,,,,,,,,,,-3.076171875,-6.826171875,0,0,1,0.719533920288,,,,,2015_Nov_06_1653,G,facesParametric,27,59.7457074239,
./stim/MorphF9_00_orig.jpg,183,,,,,0,183,183,183,,,,,,,,,,,,,,,,,,,-3.076171875,-6.826171875,1,0,0,0.769823074341,,,,,2015_Nov_06_1653,G,facesParametric,27,59.7457074239,
./stim/MorphM1_10_orig.jpg,184,,,,,0,184,184,184,,,,,,,,,,,,,,,,,,,-3.076171875,-6.826171875,0,0,1,1.28968501091,,,,,2015_Nov_06_1653,G,facesParametric,27,59.7457074239,
./stim/MorphM9_05_orig.jpg,185,,,,,0,185,185,185,,,,,,,,,,,,,,,,,,,-3.076171875,-6.826171875,0,0,1,1.85690999031,,,,,2015_Nov_06_1653,G,facesParametric,27,59.7457074239,
./stim/MorphF3_08_orig.jpg,186,,,,,0,186,186,186,,,,,,,,,,,,,,,,,,,-3.076171875,-6.826171875,0,0,1,1.33801412582,,,,,2015_Nov_06_1653,G,facesParametric,27,59.7457074239,
./stim/MorphF2_02_orig.jpg,187,,,,,0,187,187,187,,,,,,,,,,,,,,,,,,,-3.076171875,-6.826171875,0,0,1,0.836869955063,,,,,2015_Nov_06_1653,G,facesParametric,27,59.7457074239,
./stim/MorphM7_04_orig.jpg,188,,,,,0,188,188,188,,,,,,,,,,,,,,,,,,,-3.076171875,-6.826171875,0,0,1,3.65223789215,,,,,2015_Nov_06_1653,G,facesParametric,27,59.7457074239,
./stim/MorphF5_10_orig.jpg,189,,,,,0,189,189,189,,,,,,,,,,,,,,,,,,,-3.076171875,-6.826171875,0,0,1,0.817744016647,,,,,2015_Nov_06_1653,G,facesParametric,27,59.7457074239,
./stim/MorphM1_06_orig.jpg,190,,,,,0,190,190,190,,,,,,,,,,,,,,,,,,,-3.076171875,-6.826171875,1,0,0,4.38984894753,,,,,2015_Nov_06_1653,G,facesParametric,27,59.7457074239,
./stim/MorphM3_05_orig.jpg,191,,,,,0,191,191,191,,,,,,,,,,,,,,,,,,,-3.076171875,-6.826171875,0,0,1,2.29478287697,,,,,2015_Nov_06_1653,G,facesParametric,27,59.7457074239,
./stim/MorphF5_02_orig.jpg,192,,,,,0,192,192,192,,,,,,,,,,,,,,,,,,,-3.076171875,-6.826171875,1,0,0,1.1217238903,,,,,2015_Nov_06_1653,G,facesParametric,27,59.7457074239,
./stim/MorphF6_01_orig.jpg,193,,,,,0,193,193,193,,,,,,,,,,,,,,,,,,,-3.076171875,-6.826171875,0,0,1,0.701956987381,,,,,2015_Nov_06_1653,G,facesParametric,27,59.7457074239,
./stim/MorphF1_02_orig.jpg,194,,,,,0,194,194,194,,,,,,,,,,,,,,,,,,,-3.076171875,-6.826171875,1,0,0,1.68991804123,,,,,2015_Nov_06_1653,G,facesParametric,27,59.7457074239,
./stim/MorphM5_04_orig.jpg,195,,,,,0,195,195,195,,,,,,,,,,,,,,,,,,,-3.076171875,-6.826171875,0,0,1,1.05249905586,,,,,2015_Nov_06_1653,G,facesParametric,27,59.7457074239,
./stim/MorphF9_01_orig.jpg,196,,,,,0,196,196,196,,,,,,,,,,,,,,,,,,,-3.076171875,-6.826171875,1,0,0,1.27084088326,,,,,2015_Nov_06_1653,G,facesParametric,27,59.7457074239,
./stim/MorphM4_04_orig.jpg,197,,,,,0,197,197,197,,,,,,,,,,,,,,,,,,,-3.076171875,-6.826171875,0,0,1,0.920346975327,,,,,2015_Nov_06_1653,G,facesParametric,27,59.7457074239,
./stim/MorphM1_05_orig.jpg,198,,,,,0,198,198,198,,,,,,,,,,,,,,,,,,,-3.076171875,-6.826171875,1,0,0,0.886492967606,,,,,2015_Nov_06_1653,G,facesParametric,27,59.7457074239,
./stim/MorphF9_05_orig.jpg,199,,,,,0,199,199,199,,,,,,,,,,,,,,,,,,,-3.076171875,-6.826171875,1,0,0,1.11950802803,,,,,2015_Nov_06_1653,G,facesParametric,27,59.7457074239,
./stim/MorphF4_08_orig.jpg,200,,,,,0,200,200,200,,,,,,,,,,,,,,,,,,,-3.076171875,-6.826171875,0,0,1,0.769742965698,,,,,2015_Nov_06_1653,G,facesParametric,27,59.7457074239,
./stim/MorphF1_07_orig.jpg,201,,,,,0,201,201,201,,,,,,,,,,,,,,,,,,,-3.076171875,-6.826171875,0,0,1,1.37316608429,,,,,2015_Nov_06_1653,G,facesParametric,27,59.7457074239,
./stim/MorphF7_07_orig.jpg,202,,,,,0,202,202,202,,,,,,,,,,,,,,,,,,,-3.076171875,-6.826171875,0,0,1,1.28692913055,,,,,2015_Nov_06_1653,G,facesParametric,27,59.7457074239,
./stim/MorphM9_08_orig.jpg,203,,,,,0,203,203,203,,,,,,,,,,,,,,,,,,,-3.1640625,-7.1484375,1,0,0,7.22217607498,,,,,2015_Nov_06_1653,G,facesParametric,27,59.7457074239,
./stim/MorphM7_07_orig.jpg,204,,,,,0,204,204,204,,,,,,,,,,,,,,,,,,,-3.1640625,-7.1484375,0,0,1,2.26120281219,,,,,2015_Nov_06_1653,G,facesParametric,27,59.7457074239,
./stim/MorphM8_01_orig.jpg,205,,,,,0,205,205,205,,,,,,,,,,,,,,,,,,,-3.1640625,-7.1484375,0,0,1,1.12138199806,,,,,2015_Nov_06_1653,G,facesParametric,27,59.7457074239,
./stim/MorphF3_06_orig.jpg,206,,,,,0,206,206,206,,,,,,,,,,,,,,,,,,,-3.1640625,-7.1484375,0,0,1,1.87542080879,,,,,2015_Nov_06_1653,G,facesParametric,27,59.7457074239,
./stim/MorphM10_09_orig.jpg,207,,,,,0,207,207,207,,,,,,,,,,,,,,,,,,,-3.1640625,-7.1484375,0,0,1,6.06554698944,,,,,2015_Nov_06_1653,G,facesParametric,27,59.7457074239,
./stim/MorphM7_10_orig.jpg,208,,,,,0,208,208,208,,,,,,,,,,,,,,,,,,,-3.1640625,-7.1484375,0,0,1,1.27153801918,,,,,2015_Nov_06_1653,G,facesParametric,27,59.7457074239,
./stim/MorphM4_00_orig.jpg,209,,,,,0,209,209,209,,,,,,,,,,,,,,,,,,,-3.1640625,-7.1484375,1,0,0,2.44552898407,,,,,2015_Nov_06_1653,G,facesParametric,27,59.7457074239,
./stim/MorphM9_10_orig.jpg,210,,,,,0,210,210,210,,,,,,,,,,,,,,,,,,,-3.1640625,-7.1484375,0,0,1,0.952462911606,,,,,2015_Nov_06_1653,G,facesParametric,27,59.7457074239,
./stim/MorphM2_10_orig.jpg,211,,,,,0,211,211,211,,,,,,,,,,,,,,,,,,,-3.1640625,-7.1484375,0,0,1,0.8686170578,,,,,2015_Nov_06_1653,G,facesParametric,27,59.7457074239,
./stim/MorphM3_02_orig.jpg,212,,,,,0,212,212,212,,,,,,,,,,,,,,,,,,,-3.1640625,-7.1484375,1,0,0,1.15503287315,,,,,2015_Nov_06_1653,G,facesParametric,27,59.7457074239,
./stim/MorphM7_05_orig.jpg,213,,,,,0,213,213,213,,,,,,,,,,,,,,,,,,,-3.1640625,-7.1484375,1,0,0,2.82983517647,,,,,2015_Nov_06_1653,G,facesParametric,27,59.7457074239,
./stim/MorphF10_04_orig.jpg,214,,,,,0,214,214,214,,,,,,,,,,,,,,,,,,,-3.1640625,-7.1484375,0,0,1,1.67417407036,,,,,2015_Nov_06_1653,G,facesParametric,27,59.7457074239,
./stim/MorphM8_05_orig.jpg,215,,,,,0,215,215,215,,,,,,,,,,,,,,,,,,,-3.1640625,-7.1484375,0,0,1,2.52798986435,,,,,2015_Nov_06_1653,G,facesParametric,27,59.7457074239,
./stim/MorphF4_03_orig.jpg,216,,,,,0,216,216,216,,,,,,,,,,,,,,,,,,,-3.1640625,-7.1484375,1,0,0,1.52392196655,,,,,2015_Nov_06_1653,G,facesParametric,27,59.7457074239,
./stim/MorphF10_00_orig.jpg,217,,,,,0,217,217,217,,,,,,,,,,,,,,,,,,,-3.1640625,-7.1484375,1,0,0,1.43878698349,,,,,2015_Nov_06_1653,G,facesParametric,27,59.7457074239,
./stim/MorphM8_10_orig.jpg,218,,,,,0,218,218,218,,,,,,,,,,,,,,,,,,,-3.1640625,-7.1484375,0,0,1,1.89270710945,,,,,2015_Nov_06_1653,G,facesParametric,27,59.7457074239,
./stim/MorphF9_02_orig.jpg,219,,,,,0,219,219,219,,,,,,,,,,,,,,,,,,,-3.1640625,-7.1484375,1,0,0,1.82526302338,,,,,2015_Nov_06_1653,G,facesParametric,27,59.7457074239,
,,,,,,,,,,,,,,,,,,,,,,,,,,,,,,,,,,return,3.05016994476,,,2015_Nov_06_1653,G,facesParametric,27,59.7457074239,
./stim/MorphF1_07_orig.jpg,0,,,,,,,,,0,0,0,0,,,,,,,,,,,,,,,-3.1640625,-7.1484375,0,0,1,1.85552406311,,,,,2015_Nov_06_1653,G,facesParametric,27,59.7457074239,
./stim/MorphM4_03_orig.jpg,1,,,,,,,,,0,1,1,1,,,,,,,,,,,,,,,-3.1640625,-7.1484375,0,0,1,4.33621096611,,,,,2015_Nov_06_1653,G,facesParametric,27,59.7457074239,
./stim/MorphM5_04_orig.jpg,2,,,,,,,,,0,2,2,2,,,,,,,,,,,,,,,-3.1640625,-7.1484375,0,0,1,0.90375995636,,,,,2015_Nov_06_1653,G,facesParametric,27,59.7457074239,
./stim/MorphM9_00_orig.jpg,3,,,,,,,,,0,3,3,3,,,,,,,,,,,,,,,-3.1640625,-7.1484375,0,0,1,4.03784894943,,,,,2015_Nov_06_1653,G,facesParametric,27,59.7457074239,
./stim/MorphF2_02_orig.jpg,4,,,,,,,,,0,4,4,4,,,,,,,,,,,,,,,-3.1640625,-7.1484375,0,0,1,2.61299300194,,,,,2015_Nov_06_1653,G,facesParametric,27,59.7457074239,
./stim/MorphM9_07_orig.jpg,5,,,,,,,,,0,5,5,5,,,,,,,,,,,,,,,-3.1640625,-7.1484375,0,0,1,2.17636299133,,,,,2015_Nov_06_1653,G,facesParametric,27,59.7457074239,
./stim/MorphM5_08_orig.jpg,6,,,,,,,,,0,6,6,6,,,,,,,,,,,,,,,-3.1640625,-7.1484375,0,0,1,1.99329900742,,,,,2015_Nov_06_1653,G,facesParametric,27,59.7457074239,
./stim/MorphM1_08_orig.jpg,7,,,,,,,,,0,7,7,7,,,,,,,,,,,,,,,-3.1640625,-7.1484375,0,0,1,0.920456886292,,,,,2015_Nov_06_1653,G,facesParametric,27,59.7457074239,
./stim/MorphM6_01_orig.jpg,8,,,,,,,,,0,8,8,8,,,,,,,,,,,,,,,-3.1640625,-7.1484375,0,0,1,1.17194390297,,,,,2015_Nov_06_1653,G,facesParametric,27,59.7457074239,
./stim/MorphF7_03_orig.jpg,9,,,,,,,,,0,9,9,9,,,,,,,,,,,,,,,-3.1640625,-7.1484375,0,0,1,2.41133618355,,,,,2015_Nov_06_1653,G,facesParametric,27,59.7457074239,
./stim/MorphM3_08_orig.jpg,10,,,,,,,,,0,10,10,10,,,,,,,,,,,,,,,-3.1640625,-7.1484375,0,0,1,1.0045030117,,,,,2015_Nov_06_1653,G,facesParametric,27,59.7457074239,
./stim/MorphM6_08_orig.jpg,11,,,,,,,,,0,11,11,11,,,,,,,,,,,,,,,-3.1640625,-7.1484375,0,0,1,2.1097471714,,,,,2015_Nov_06_1653,G,facesParametric,27,59.7457074239,
./stim/MorphF8_06_orig.jpg,12,,,,,,,,,0,12,12,12,,,,,,,,,,,,,,,-3.1640625,-7.1484375,0,0,1,2.84788990021,,,,,2015_Nov_06_1653,G,facesParametric,27,59.7457074239,
./stim/MorphM5_02_orig.jpg,13,,,,,,,,,0,13,13,13,,,,,,,,,,,,,,,-3.1640625,-7.1484375,1,0,0,1.90780305862,,,,,2015_Nov_06_1653,G,facesParametric,27,59.7457074239,
./stim/MorphF7_10_orig.jpg,14,,,,,,,,,0,14,14,14,,,,,,,,,,,,,,,-3.1640625,-7.1484375,0,0,1,0.669116973877,,,,,2015_Nov_06_1653,G,facesParametric,27,59.7457074239,
./stim/MorphM7_04_orig.jpg,15,,,,,,,,,0,15,15,15,,,,,,,,,,,,,,,-3.1640625,-7.1484375,1,0,0,1.40641212463,,,,,2015_Nov_06_1653,G,facesParametric,27,59.7457074239,
./stim/MorphF6_03_orig.jpg,16,,,,,,,,,0,16,16,16,,,,,,,,,,,,,,,-3.1640625,-7.1484375,0,0,1,0.986088037491,,,,,2015_Nov_06_1653,G,facesParametric,27,59.7457074239,
./stim/MorphF4_02_orig.jpg,17,,,,,,,,,0,17,17,17,,,,,,,,,,,,,,,-3.1640625,-7.1484375,1,0,0,1.03871583939,,,,,2015_Nov_06_1653,G,facesParametric,27,59.7457074239,
./stim/MorphF5_01_orig.jpg,18,,,,,,,,,0,18,18,18,,,,,,,,,,,,,,,-3.1640625,-7.1484375,1,0,0,2.26060509682,,,,,2015_Nov_06_1653,G,facesParametric,27,59.7457074239,
./stim/MorphM5_00_orig.jpg,19,,,,,,,,,0,19,19,19,,,,,,,,,,,,,,,-3.1640625,-7.1484375,1,0,0,0.970176935196,,,,,2015_Nov_06_1653,G,facesParametric,27,59.7457074239,
./stim/MorphF1_05_orig.jpg,20,,,,,,,,,0,20,20,20,,,,,,,,,,,,,,,-3.1640625,-7.1484375,0,0,1,1.25576615334,,,,,2015_Nov_06_1653,G,facesParametric,27,59.7457074239,
./stim/MorphF6_04_orig.jpg,21,,,,,,,,,0,21,21,21,,,,,,,,,,,,,,,-3.1640625,-7.1484375,0,0,1,2.34364104271,,,,,2015_Nov_06_1653,G,facesParametric,27,59.7457074239,
./stim/MorphF5_07_orig.jpg,22,,,,,,,,,0,22,22,22,,,,,,,,,,,,,,,-3.1640625,-7.1484375,0,0,1,1.925978899,,,,,2015_Nov_06_1653,G,facesParametric,27,59.7457074239,
./stim/MorphF6_07_orig.jpg,23,,,,,,,,,0,23,23,23,,,,,,,,,,,,,,,-3.1640625,-7.1484375,0,0,1,3.43468093872,,,,,2015_Nov_06_1653,G,facesParametric,27,59.7457074239,
./stim/MorphM1_07_orig.jpg,24,,,,,,,,,0,24,24,24,,,,,,,,,,,,,,,-3.1640625,-7.1484375,0,0,1,1.60758805275,,,,,2015_Nov_06_1653,G,facesParametric,27,59.7457074239,
./stim/MorphF3_05_orig.jpg,25,,,,,,,,,0,25,25,25,,,,,,,,,,,,,,,-3.1640625,-7.1484375,1,0,0,2.63020300865,,,,,2015_Nov_06_1653,G,facesParametric,27,59.7457074239,
./stim/MorphF4_10_orig.jpg,26,,,,,,,,,0,26,26,26,,,,,,,,,,,,,,,-3.1640625,-7.1484375,0,0,1,0.652136087418,,,,,2015_Nov_06_1653,G,facesParametric,27,59.7457074239,
./stim/MorphF8_09_orig.jpg,27,,,,,,,,,0,27,27,27,,,,,,,,,,,,,,,-3.1640625,-7.1484375,0,0,1,3.04901695251,,,,,2015_Nov_06_1653,G,facesParametric,27,59.7457074239,
./stim/MorphM7_06_orig.jpg,28,,,,,,,,,0,28,28,28,,,,,,,,,,,,,,,-3.1640625,-7.1484375,0,0,1,3.28372597694,,,,,2015_Nov_06_1653,G,facesParametric,27,59.7457074239,
./stim/MorphF1_00_orig.jpg,29,,,,,,,,,0,29,29,29,,,,,,,,,,,,,,,-3.1640625,-7.1484375,1,0,0,1.72507500648,,,,,2015_Nov_06_1653,G,facesParametric,27,59.7457074239,
./stim/MorphM4_00_orig.jpg,30,,,,,,,,,0,30,30,30,,,,,,,,,,,,,,,-3.1640625,-7.1484375,1,0,0,0.719434976578,,,,,2015_Nov_06_1653,G,facesParametric,27,59.7457074239,
./stim/MorphF6_09_orig.jpg,31,,,,,,,,,0,31,31,31,,,,,,,,,,,,,,,-3.1640625,-7.1484375,0,0,1,0.719388008118,,,,,2015_Nov_06_1653,G,facesParametric,27,59.7457074239,
./stim/MorphM10_04_orig.jpg,32,,,,,,,,,0,32,32,32,,,,,,,,,,,,,,,-3.1640625,-7.1484375,0,0,1,1.23883199692,,,,,2015_Nov_06_1653,G,facesParametric,27,59.7457074239,
./stim/MorphM1_00_orig.jpg,33,,,,,,,,,0,33,33,33,,,,,,,,,,,,,,,-3.1640625,-7.1484375,1,0,0,3.51817512512,,,,,2015_Nov_06_1653,G,facesParametric,27,59.7457074239,
./stim/MorphM7_02_orig.jpg,34,,,,,,,,,0,34,34,34,,,,,,,,,,,,,,,-3.1640625,-7.1484375,1,0,0,1.07132387161,,,,,2015_Nov_06_1653,G,facesParametric,27,59.7457074239,
./stim/MorphF6_05_orig.jpg,35,,,,,,,,,0,35,35,35,,,,,,,,,,,,,,,-3.1640625,-7.1484375,1,0,0,1.07152199745,,,,,2015_Nov_06_1653,G,facesParametric,27,59.7457074239,
./stim/MorphF4_04_orig.jpg,36,,,,,,,,,0,36,36,36,,,,,,,,,,,,,,,-3.1640625,-7.1484375,1,0,0,3.7353849411,,,,,2015_Nov_06_1653,G,facesParametric,27,59.7457074239,
./stim/MorphF2_06_orig.jpg,37,,,,,,,,,0,37,37,37,,,,,,,,,,,,,,,-3.1640625,-7.1484375,0,0,1,0.884804010391,,,,,2015_Nov_06_1653,G,facesParametric,27,59.7457074239,
./stim/MorphF5_04_orig.jpg,38,,,,,,,,,0,38,38,38,,,,,,,,,,,,,,,-3.1640625,-7.1484375,0,0,1,1.47349500656,,,,,2015_Nov_06_1653,G,facesParametric,27,59.7457074239,
./stim/MorphM1_04_orig.jpg,39,,,,,,,,,0,39,39,39,,,,,,,,,,,,,,,-3.1640625,-7.1484375,1,0,0,2.67871999741,,,,,2015_Nov_06_1653,G,facesParametric,27,59.7457074239,
./stim/MorphM8_01_orig.jpg,40,,,,,,,,,0,40,40,40,,,,,,,,,,,,,,,-3.1640625,-7.1484375,0,0,1,1.35657906532,,,,,2015_Nov_06_1653,G,facesParametric,27,59.7457074239,
./stim/MorphF7_08_orig.jpg,41,,,,,,,,,0,41,41,41,,,,,,,,,,,,,,,-3.1640625,-7.1484375,0,0,1,2.04330706596,,,,,2015_Nov_06_1653,G,facesParametric,27,59.7457074239,
./stim/MorphM2_00_orig.jpg,42,,,,,,,,,0,42,42,42,,,,,,,,,,,,,,,-3.1640625,-7.1484375,1,0,0,3.5515460968,,,,,2015_Nov_06_1653,G,facesParametric,27,59.7457074239,
./stim/MorphF9_06_orig.jpg,43,,,,,,,,,0,43,43,43,,,,,,,,,,,,,,,-3.1640625,-7.1484375,0,0,1,3.09898304939,,,,,2015_Nov_06_1653,G,facesParametric,27,59.7457074239,
./stim/MorphF5_03_orig.jpg,44,,,,,,,,,0,44,44,44,,,,,,,,,,,,,,,-3.1640625,-7.1484375,1,0,0,0.803722858429,,,,,2015_Nov_06_1653,G,facesParametric,27,59.7457074239,
./stim/MorphF1_08_orig.jpg,45,,,,,,,,,0,45,45,45,,,,,,,,,,,,,,,-3.1640625,-7.1484375,0,0,1,4.45592308044,,,,,2015_Nov_06_1653,G,facesParametric,27,59.7457074239,
./stim/MorphM2_02_orig.jpg,46,,,,,,,,,0,46,46,46,,,,,,,,,,,,,,,-3.1640625,-7.1484375,1,0,0,4.5904071331,,,,,2015_Nov_06_1653,G,facesParametric,27,59.7457074239,
./stim/MorphM9_02_orig.jpg,47,,,,,,,,,0,47,47,47,,,,,,,,,,,,,,,-3.1640625,-7.1484375,1,0,0,9.06426000595,,,,,2015_Nov_06_1653,G,facesParametric,27,59.7457074239,
./stim/MorphF10_04_orig.jpg,48,,,,,,,,,0,48,48,48,,,,,,,,,,,,,,,-3.1640625,-7.1484375,0,0,1,0.953834056854,,,,,2015_Nov_06_1653,G,facesParametric,27,59.7457074239,
./stim/MorphF2_09_orig.jpg,49,,,,,,,,,0,49,49,49,,,,,,,,,,,,,,,-3.1640625,-7.1484375,0,0,1,4.27259707451,,,,,2015_Nov_06_1653,G,facesParametric,27,59.7457074239,
./stim/MorphM8_09_orig.jpg,50,,,,,,,,,0,50,50,50,,,,,,,,,,,,,,,-3.1640625,-7.1484375,0,0,1,0.986754894257,,,,,2015_Nov_06_1653,G,facesParametric,27,59.7457074239,
./stim/MorphF3_03_orig.jpg,51,,,,,,,,,0,51,51,51,,,,,,,,,,,,,,,-3.1640625,-7.1484375,1,0,0,5.26110601425,,,,,2015_Nov_06_1653,G,facesParametric,27,59.7457074239,
./stim/MorphM1_03_orig.jpg,52,,,,,,,,,0,52,52,52,,,,,,,,,,,,,,,-3.1640625,-7.1484375,1,0,0,0.987070083618,,,,,2015_Nov_06_1653,G,facesParametric,27,59.7457074239,
./stim/MorphM2_10_orig.jpg,53,,,,,,,,,0,53,53,53,,,,,,,,,,,,,,,-3.1640625,-7.1484375,0,0,1,0.901973962784,,,,,2015_Nov_06_1653,G,facesParametric,27,59.7457074239,
./stim/MorphF1_10_orig.jpg,54,,,,,,,,,0,54,54,54,,,,,,,,,,,,,,,-3.1640625,-7.1484375,0,0,1,2.78092002869,,,,,2015_Nov_06_1653,G,facesParametric,27,59.7457074239,
./stim/MorphF10_09_orig.jpg,55,,,,,,,,,0,55,55,55,,,,,,,,,,,,,,,-3.1640625,-7.1484375,0,0,1,0.769255161285,,,,,2015_Nov_06_1653,G,facesParametric,27,59.7457074239,
./stim/MorphF5_10_orig.jpg,56,,,,,,,,,0,56,56,56,,,,,,,,,,,,,,,-3.1640625,-7.1484375,0,0,1,2.16150999069,,,,,2015_Nov_06_1653,G,facesParametric,27,59.7457074239,
./stim/MorphF3_09_orig.jpg,57,,,,,,,,,0,57,57,57,,,,,,,,,,,,,,,-3.1640625,-7.1484375,0,0,1,0.951500177383,,,,,2015_Nov_06_1653,G,facesParametric,27,59.7457074239,
./stim/MorphF4_07_orig.jpg,58,,,,,,,,,0,58,58,58,,,,,,,,,,,,,,,-3.1640625,-7.1484375,0,0,1,3.50013995171,,,,,2015_Nov_06_1653,G,facesParametric,27,59.7457074239,
./stim/MorphF3_04_orig.jpg,59,,,,,,,,,0,59,59,59,,,,,,,,,,,,,,,-3.1640625,-7.1484375,1,0,0,1.42303514481,,,,,2015_Nov_06_1653,G,facesParametric,27,59.7457074239,
./stim/MorphM1_05_orig.jpg,60,,,,,,,,,0,60,60,60,,,,,,,,,,,,,,,-3.1640625,-7.1484375,1,0,0,4.22221899033,,,,,2015_Nov_06_1653,G,facesParametric,27,59.7457074239,
./stim/MorphF9_00_orig.jpg,61,,,,,,,,,0,61,61,61,,,,,,,,,,,,,,,-3.1640625,-7.1484375,1,0,0,3.63595700264,,,,,2015_Nov_06_1653,G,facesParametric,27,59.7457074239,
./stim/MorphM3_06_orig.jpg,62,,,,,,,,,0,62,62,62,,,,,,,,,,,,,,,-3.1640625,-7.1484375,0,0,1,1.22339510918,,,,,2015_Nov_06_1653,G,facesParametric,27,59.7457074239,
./stim/MorphM4_07_orig.jpg,63,,,,,,,,,0,63,63,63,,,,,,,,,,,,,,,-3.1640625,-7.1484375,0,0,1,0.733880996704,,,,,2015_Nov_06_1653,G,facesParametric,27,59.7457074239,
./stim/MorphF2_05_orig.jpg,64,,,,,,,,,0,64,64,64,,,,,,,,,,,,,,,-3.1640625,-7.1484375,0,0,1,0.852550983429,,,,,2015_Nov_06_1653,G,facesParametric,27,59.7457074239,
./stim/MorphF3_00_orig.jpg,65,,,,,,,,,0,65,65,65,,,,,,,,,,,,,,,-3.1640625,-7.1484375,1,0,0,0.769508838654,,,,,2015_Nov_06_1653,G,facesParametric,27,59.7457074239,
./stim/MorphF5_05_orig.jpg,66,,,,,,,,,0,66,66,66,,,,,,,,,,,,,,,-3.1640625,-7.1484375,1,0,0,1.64112520218,,,,,2015_Nov_06_1653,G,facesParametric,27,59.7457074239,
./stim/MorphM9_04_orig.jpg,67,,,,,,,,,0,67,67,67,,,,,,,,,,,,,,,-3.1640625,-7.1484375,0,0,1,1.20467996597,,,,,2015_Nov_06_1653,G,facesParametric,27,59.7457074239,
./stim/MorphM7_05_orig.jpg,68,,,,,,,,,0,68,68,68,,,,,,,,,,,,,,,-3.1640625,-7.1484375,0,0,1,3.01469397545,,,,,2015_Nov_06_1653,G,facesParametric,27,59.7457074239,
./stim/MorphM10_03_orig.jpg,69,,,,,,,,,0,69,69,69,,,,,,,,,,,,,,,-3.1640625,-7.1484375,1,0,0,1.22189307213,,,,,2015_Nov_06_1653,G,facesParametric,27,59.7457074239,
./stim/MorphF9_08_orig.jpg,70,,,,,,,,,0,70,70,70,,,,,,,,,,,,,,,-3.1640625,-7.1484375,0,0,1,0.752936124802,,,,,2015_Nov_06_1653,G,facesParametric,27,59.7457074239,
./stim/MorphF7_07_orig.jpg,71,,,,,,,,,0,71,71,71,,,,,,,,,,,,,,,-3.1640625,-7.1484375,0,0,1,1.9094171524,,,,,2015_Nov_06_1653,G,facesParametric,27,59.7457074239,
./stim/MorphF9_10_orig.jpg,72,,,,,,,,,0,72,72,72,,,,,,,,,,,,,,,-3.1640625,-7.1484375,0,0,1,1.0369489193,,,,,2015_Nov_06_1653,G,facesParametric,27,59.7457074239,
./stim/MorphF2_01_orig.jpg,73,,,,,,,,,0,73,73,73,,,,,,,,,,,,,,,-3.1640625,-7.1484375,0,0,1,0.903560161591,,,,,2015_Nov_06_1653,G,facesParametric,27,59.7457074239,
./stim/MorphM6_02_orig.jpg,74,,,,,,,,,0,74,74,74,,,,,,,,,,,,,,,-3.1640625,-7.1484375,1,0,0,3.29940295219,,,,,2015_Nov_06_1653,G,facesParametric,27,59.7457074239,
./stim/MorphM3_05_orig.jpg,75,,,,,,,,,0,75,75,75,,,,,,,,,,,,,,,-3.1640625,-7.1484375,0,0,1,2.17745304108,,,,,2015_Nov_06_1653,G,facesParametric,27,59.7457074239,
./stim/MorphM2_03_orig.jpg,76,,,,,,,,,0,76,76,76,,,,,,,,,,,,,,,-3.1640625,-7.1484375,1,0,0,1.0194709301,,,,,2015_Nov_06_1653,G,facesParametric,27,59.7457074239,
./stim/MorphM9_03_orig.jpg,77,,,,,,,,,0,77,77,77,,,,,,,,,,,,,,,-3.1640625,-7.1484375,1,0,0,1.75832891464,,,,,2015_Nov_06_1653,G,facesParametric,27,59.7457074239,
./stim/MorphF3_10_orig.jpg,78,,,,,,,,,0,78,78,78,,,,,,,,,,,,,,,-3.1640625,-7.1484375,0,0,1,0.954400062561,,,,,2015_Nov_06_1653,G,facesParametric,27,59.7457074239,
./stim/MorphF10_00_orig.jpg,79,,,,,,,,,0,79,79,79,,,,,,,,,,,,,,,-3.1640625,-7.1484375,1,0,0,1.69132995605,,,,,2015_Nov_06_1653,G,facesParametric,27,59.7457074239,
./stim/MorphM2_01_orig.jpg,80,,,,,,,,,0,80,80,80,,,,,,,,,,,,,,,-3.1640625,-7.1484375,1,0,0,0.719422101974,,,,,2015_Nov_06_1653,G,facesParametric,27,59.7457074239,
./stim/MorphM5_06_orig.jpg,81,,,,,,,,,0,81,81,81,,,,,,,,,,,,,,,-3.1640625,-7.1484375,0,0,1,0.904104948044,,,,,2015_Nov_06_1653,G,facesParametric,27,59.7457074239,
./stim/MorphF4_06_orig.jpg,82,,,,,,,,,0,82,82,82,,,,,,,,,,,,,,,-3.1640625,-7.1484375,0,0,1,2.19236707687,,,,,2015_Nov_06_1653,G,facesParametric,27,59.7457074239,
./stim/MorphF3_07_orig.jpg,83,,,,,,,,,0,83,83,83,,,,,,,,,,,,,,,-3.1640625,-7.1484375,0,0,1,1.28781914711,,,,,2015_Nov_06_1653,G,facesParametric,27,59.7457074239,
./stim/MorphM7_01_orig.jpg,84,,,,,,,,,0,84,84,84,,,,,,,,,,,,,,,-3.1640625,-7.1484375,1,0,0,0.870650053024,,,,,2015_Nov_06_1653,G,facesParametric,27,59.7457074239,
./stim/MorphM1_09_orig.jpg,85,,,,,,,,,0,85,85,85,,,,,,,,,,,,,,,-3.1640625,-7.1484375,0,0,1,0.819396018982,,,,,2015_Nov_06_1653,G,facesParametric,27,59.7457074239,
./stim/MorphF7_06_orig.jpg,86,,,,,,,,,0,86,86,86,,,,,,,,,,,,,,,-3.1640625,-7.1484375,0,0,1,0.970569133759,,,,,2015_Nov_06_1653,G,facesParametric,27,59.7457074239,
./stim/MorphF4_08_orig.jpg,87,,,,,,,,,0,87,87,87,,,,,,,,,,,,,,,-3.1640625,-7.1484375,0,0,1,0.635521888733,,,,,2015_Nov_06_1653,G,facesParametric,27,59.7457074239,
./stim/MorphF5_02_orig.jpg,88,,,,,,,,,0,88,88,88,,,,,,,,,,,,,,,-3.1640625,-7.1484375,1,0,0,1.25589704514,,,,,2015_Nov_06_1653,G,facesParametric,27,59.7457074239,
./stim/MorphM3_04_orig.jpg,89,,,,,,,,,0,89,89,89,,,,,,,,,,,,,,,-3.1640625,-7.1484375,1,0,0,2.37887001038,,,,,2015_Nov_06_1653,G,facesParametric,27,59.7457074239,
./stim/MorphM1_06_orig.jpg,90,,,,,,,,,0,90,90,90,,,,,,,,,,,,,,,-3.1640625,-7.1484375,0,0,1,1.35473608971,,,,,2015_Nov_06_1653,G,facesParametric,27,59.7457074239,
./stim/MorphM8_03_orig.jpg,91,,,,,,,,,0,91,91,91,,,,,,,,,,,,,,,-3.1640625,-7.1484375,0,0,1,0.836529016495,,,,,2015_Nov_06_1653,G,facesParametric,27,59.7457074239,
./stim/MorphM9_08_orig.jpg,92,,,,,,,,,0,92,92,92,,,,,,,,,,,,,,,-3.1640625,-7.1484375,0,0,1,0.920356035233,,,,,2015_Nov_06_1653,G,facesParametric,27,59.7457074239,
./stim/MorphM3_00_orig.jpg,93,,,,,,,,,0,93,93,93,,,,,,,,,,,,,,,-3.1640625,-7.1484375,0,0,1,1.45686507225,,,,,2015_Nov_06_1653,G,facesParametric,27,59.7457074239,
./stim/MorphF10_05_orig.jpg,94,,,,,,,,,0,94,94,94,,,,,,,,,,,,,,,-3.1640625,-7.1484375,0,0,1,0.634319782257,,,,,2015_Nov_06_1653,G,facesParametric,27,59.7457074239,
./stim/MorphM5_09_orig.jpg,95,,,,,,,,,0,95,95,95,,,,,,,,,,,,,,,-3.1640625,-7.1484375,0,0,1,0.903818130493,,,,,2015_Nov_06_1653,G,facesParametric,27,59.7457074239,
./stim/MorphF7_05_orig.jpg,96,,,,,,,,,0,96,96,96,,,,,,,,,,,,,,,-3.1640625,-7.1484375,0,0,1,0.652209997177,,,,,2015_Nov_06_1653,G,facesParametric,27,59.7457074239,
./stim/MorphM6_00_orig.jpg,97,,,,,,,,,0,97,97,97,,,,,,,,,,,,,,,-3.1640625,-7.1484375,1,0,0,0.853066921234,,,,,2015_Nov_06_1653,G,facesParametric,27,59.7457074239,
./stim/MorphF3_02_orig.jpg,98,,,,,,,,,0,98,98,98,,,,,,,,,,,,,,,-3.1640625,-7.1484375,1,0,0,1.42457699776,,,,,2015_Nov_06_1653,G,facesParametric,27,59.7457074239,
./stim/MorphF8_07_orig.jpg,99,,,,,,,,,0,99,99,99,,,,,,,,,,,,,,,-3.1640625,-7.1484375,0,0,1,0.918605089188,,,,,2015_Nov_06_1653,G,facesParametric,27,59.7457074239,
./stim/MorphF7_09_orig.jpg,100,,,,,,,,,0,100,100,100,,,,,,,,,,,,,,,-3.1640625,-7.1484375,0,0,1,0.685035943985,,,,,2015_Nov_06_1653,G,facesParametric,27,59.7457074239,
./stim/MorphF5_08_orig.jpg,101,,,,,,,,,0,101,101,101,,,,,,,,,,,,,,,-3.1640625,-7.1484375,0,0,1,0.784688949585,,,,,2015_Nov_06_1653,G,facesParametric,27,59.7457074239,
./stim/MorphM3_02_orig.jpg,102,,,,,,,,,0,102,102,102,,,,,,,,,,,,,,,-3.1640625,-7.1484375,0,0,1,2.3955309391,,,,,2015_Nov_06_1653,G,facesParametric,27,59.7457074239,
./stim/MorphF10_01_orig.jpg,103,,,,,,,,,0,103,103,103,,,,,,,,,,,,,,,-3.1640625,-7.1484375,0,0,1,1.92429304123,,,,,2015_Nov_06_1653,G,facesParametric,27,59.7457074239,
./stim/MorphF3_06_orig.jpg,104,,,,,,,,,0,104,104,104,,,,,,,,,,,,,,,-3.1640625,-7.1484375,1,0,0,2.29487609863,,,,,2015_Nov_06_1653,G,facesParametric,27,59.7457074239,
./stim/MorphM10_10_orig.jpg,105,,,,,,,,,0,105,105,105,,,,,,,,,,,,,,,-3.1640625,-7.1484375,0,0,1,1.03655195236,,,,,2015_Nov_06_1653,G,facesParametric,27,59.7457074239,
./stim/MorphF1_01_orig.jpg,106,,,,,,,,,0,106,106,106,,,,,,,,,,,,,,,-3.1640625,-7.1484375,1,0,0,7.03771400452,,,,,2015_Nov_06_1653,G,facesParametric,27,59.7457074239,
./stim/MorphM2_07_orig.jpg,107,,,,,,,,,0,107,107,107,,,,,,,,,,,,,,,-3.1640625,-7.1484375,0,0,1,1.17201185226,,,,,2015_Nov_06_1653,G,facesParametric,27,59.7457074239,
./stim/MorphM9_10_orig.jpg,108,,,,,,,,,0,108,108,108,,,,,,,,,,,,,,,-3.1640625,-7.1484375,0,0,1,0.853312015533,,,,,2015_Nov_06_1653,G,facesParametric,27,59.7457074239,
./stim/MorphM5_01_orig.jpg,109,,,,,,,,,0,109,109,109,,,,,,,,,,,,,,,-3.1640625,-7.1484375,1,0,0,0.970636129379,,,,,2015_Nov_06_1653,G,facesParametric,27,59.7457074239,
./stim/MorphM8_06_orig.jpg,110,,,,,,,,,0,110,110,110,,,,,,,,,,,,,,,-3.1640625,-7.1484375,0,0,1,0.719243049622,,,,,2015_Nov_06_1653,G,facesParametric,27,59.7457074239,
./stim/MorphM10_01_orig.jpg,111,,,,,,,,,0,111,111,111,,,,,,,,,,,,,,,-3.1640625,-7.1484375,1,0,0,0.78649687767,,,,,2015_Nov_06_1653,G,facesParametric,27,59.7457074239,
./stim/MorphF9_07_orig.jpg,112,,,,,,,,,0,112,112,112,,,,,,,,,,,,,,,-3.1640625,-7.1484375,0,0,1,0.904031991959,,,,,2015_Nov_06_1653,G,facesParametric,27,59.7457074239,
./stim/MorphF1_03_orig.jpg,113,,,,,,,,,0,113,113,113,,,,,,,,,,,,,,,-3.1640625,-7.1484375,1,0,0,2.86462211609,,,,,2015_Nov_06_1653,G,facesParametric,27,59.7457074239,
./stim/MorphF6_10_orig.jpg,114,,,,,,,,,0,114,114,114,,,,,,,,,,,,,,,-3.1640625,-7.1484375,0,0,1,0.804002046585,,,,,2015_Nov_06_1653,G,facesParametric,27,59.7457074239,
./stim/MorphF2_00_orig.jpg,115,,,,,,,,,0,115,115,115,,,,,,,,,,,,,,,-3.1640625,-7.1484375,1,0,0,1.07031798363,,,,,2015_Nov_06_1653,G,facesParametric,27,59.7457074239,
./stim/MorphF10_03_orig.jpg,116,,,,,,,,,0,116,116,116,,,,,,,,,,,,,,,-3.1640625,-7.1484375,0,0,1,1.57450413704,,,,,2015_Nov_06_1653,G,facesParametric,27,59.7457074239,
./stim/MorphM3_07_orig.jpg,117,,,,,,,,,0,117,117,117,,,,,,,,,,,,,,,-3.1640625,-7.1484375,0,0,1,1.3560628891,,,,,2015_Nov_06_1653,G,facesParametric,27,59.7457074239,
./stim/MorphF8_01_orig.jpg,118,,,,,,,,,0,118,118,118,,,,,,,,,,,,,,,-3.1640625,-7.1484375,1,0,0,0.785713911057,,,,,2015_Nov_06_1653,G,facesParametric,27,59.7457074239,
./stim/MorphF4_05_orig.jpg,119,,,,,,,,,0,119,119,119,,,,,,,,,,,,,,,-3.1640625,-7.1484375,0,0,1,0.770168066025,,,,,2015_Nov_06_1653,G,facesParametric,27,59.7457074239,
./stim/MorphF2_08_orig.jpg,120,,,,,,,,,0,120,120,120,,,,,,,,,,,,,,,-3.1640625,-7.1484375,0,0,1,0.651528835297,,,,,2015_Nov_06_1653,G,facesParametric,27,59.7457074239,
./stim/MorphF6_01_orig.jpg,121,,,,,,,,,0,121,121,121,,,,,,,,,,,,,,,-3.1640625,-7.1484375,1,0,0,0.736036062241,,,,,2015_Nov_06_1653,G,facesParametric,27,59.7457074239,
./stim/MorphF8_03_orig.jpg,122,,,,,,,,,0,122,122,122,,,,,,,,,,,,,,,-3.1640625,-7.1484375,1,0,0,0.903928995132,,,,,2015_Nov_06_1653,G,facesParametric,27,59.7457074239,
./stim/MorphF6_06_orig.jpg,123,,,,,,,,,0,123,123,123,,,,,,,,,,,,,,,-3.1640625,-7.1484375,0,0,1,2.51276493073,,,,,2015_Nov_06_1653,G,facesParametric,27,59.7457074239,
./stim/MorphF8_08_orig.jpg,124,,,,,,,,,0,124,124,124,,,,,,,,,,,,,,,-3.1640625,-7.1484375,0,0,1,0.851230144501,,,,,2015_Nov_06_1653,G,facesParametric,27,59.7457074239,
./stim/MorphF9_09_orig.jpg,125,,,,,,,,,0,125,125,125,,,,,,,,,,,,,,,-3.1640625,-7.1484375,0,0,1,0.585597038269,,,,,2015_Nov_06_1653,G,facesParametric,27,59.7457074239,
./stim/MorphM10_05_orig.jpg,126,,,,,,,,,0,126,126,126,,,,,,,,,,,,,,,-3.1640625,-7.1484375,0,0,1,1.03826093674,,,,,2015_Nov_06_1653,G,facesParametric,27,59.7457074239,
./stim/MorphM2_04_orig.jpg,127,,,,,,,,,0,127,127,127,,,,,,,,,,,,,,,-3.1640625,-7.1484375,1,0,0,0.918393135071,,,,,2015_Nov_06_1653,G,facesParametric,27,59.7457074239,
./stim/MorphF6_00_orig.jpg,128,,,,,,,,,0,128,128,128,,,,,,,,,,,,,,,-3.1640625,-7.1484375,1,0,0,0.718904972076,,,,,2015_Nov_06_1653,G,facesParametric,27,59.7457074239,
./stim/MorphF10_08_orig.jpg,129,,,,,,,,,0,129,129,129,,,,,,,,,,,,,,,-3.1640625,-7.1484375,0,0,1,0.803205013275,,,,,2015_Nov_06_1653,G,facesParametric,27,59.7457074239,
./stim/MorphM6_03_orig.jpg,130,,,,,,,,,0,130,130,130,,,,,,,,,,,,,,,-3.1640625,-7.1484375,1,0,0,4.44036889076,,,,,2015_Nov_06_1653,G,facesParametric,27,59.7457074239,
./stim/MorphM8_05_orig.jpg,131,,,,,,,,,0,131,131,131,,,,,,,,,,,,,,,-3.1640625,-7.1484375,0,0,1,1.42276906967,,,,,2015_Nov_06_1653,G,facesParametric,27,59.7457074239,
./stim/MorphF5_06_orig.jpg,132,,,,,,,,,0,132,132,132,,,,,,,,,,,,,,,-3.1640625,-7.1484375,0,0,1,0.886634111404,,,,,2015_Nov_06_1653,G,facesParametric,27,59.7457074239,
./stim/MorphM2_05_orig.jpg,133,,,,,,,,,0,133,133,133,,,,,,,,,,,,,,,-3.1640625,-7.1484375,0,0,1,1.79218292236,,,,,2015_Nov_06_1653,G,facesParametric,27,59.7457074239,
./stim/MorphM3_09_orig.jpg,134,,,,,,,,,0,134,134,134,,,,,,,,,,,,,,,-3.1640625,-7.1484375,0,0,1,1.80873703957,,,,,2015_Nov_06_1653,G,facesParametric,27,59.7457074239,
./stim/MorphF2_04_orig.jpg,135,,,,,,,,,0,135,135,135,,,,,,,,,,,,,,,-3.1640625,-7.1484375,0,0,1,1.28918981552,,,,,2015_Nov_06_1653,G,facesParametric,27,59.7457074239,
./stim/MorphF9_05_orig.jpg,136,,,,,,,,,0,136,136,136,,,,,,,,,,,,,,,-3.1640625,-7.1484375,0,0,1,3.50146007538,,,,,2015_Nov_06_1653,G,facesParametric,27,59.7457074239,
./stim/MorphF6_02_orig.jpg,137,,,,,,,,,0,137,137,137,,,,,,,,,,,,,,,-3.1640625,-7.1484375,0,0,1,2.26179599762,,,,,2015_Nov_06_1653,G,facesParametric,27,59.7457074239,
./stim/MorphF8_02_orig.jpg,138,,,,,,,,,0,138,138,138,,,,,,,,,,,,,,,-3.1640625,-7.1484375,1,0,0,1.30675721169,,,,,2015_Nov_06_1653,G,facesParametric,27,59.7457074239,
./stim/MorphM10_09_orig.jpg,139,,,,,,,,,0,139,139,139,,,,,,,,,,,,,,,-3.1640625,-7.1484375,0,0,1,0.76836681366,,,,,2015_Nov_06_1653,G,facesParametric,27,59.7457074239,
./stim/MorphM6_10_orig.jpg,140,,,,,,,,,0,140,140,140,,,,,,,,,,,,,,,-3.1640625,-7.1484375,0,0,1,0.836994171143,,,,,2015_Nov_06_1653,G,facesParametric,27,59.7457074239,
./stim/MorphM8_08_orig.jpg,141,,,,,,,,,0,141,141,141,,,,,,,,,,,,,,,-3.1640625,-7.1484375,0,0,1,0.784147977829,,,,,2015_Nov_06_1653,G,facesParametric,27,59.7457074239,
./stim/MorphM7_03_orig.jpg,142,,,,,,,,,0,142,142,142,,,,,,,,,,,,,,,-3.1640625,-7.1484375,1,0,0,1.55638217926,,,,,2015_Nov_06_1653,G,facesParametric,27,59.7457074239,
./stim/MorphF9_01_orig.jpg,143,,,,,,,,,0,143,143,143,,,,,,,,,,,,,,,-3.1640625,-7.1484375,1,0,0,2.91245317459,,,,,2015_Nov_06_1653,G,facesParametric,27,59.7457074239,
./stim/MorphM6_05_orig.jpg,144,,,,,,,,,0,144,144,144,,,,,,,,,,,,,,,-3.1640625,-7.1484375,1,0,0,1.79124283791,,,,,2015_Nov_06_1653,G,facesParametric,27,59.7457074239,
./stim/MorphM4_06_orig.jpg,145,,,,,,,,,0,145,145,145,,,,,,,,,,,,,,,-3.1640625,-7.1484375,0,0,1,1.15316390991,,,,,2015_Nov_06_1653,G,facesParametric,27,59.7457074239,
./stim/MorphF10_07_orig.jpg,146,,,,,,,,,0,146,146,146,,,,,,,,,,,,,,,-3.1640625,-7.1484375,0,0,1,0.63551402092,,,,,2015_Nov_06_1653,G,facesParametric,27,59.7457074239,
./stim/MorphM9_05_orig.jpg,147,,,,,,,,,0,147,147,147,,,,,,,,,,,,,,,-3.1640625,-7.1484375,0,0,1,1.22223305702,,,,,2015_Nov_06_1653,G,facesParametric,27,59.7457074239,
./stim/MorphM1_01_orig.jpg,148,,,,,,,,,0,148,148,148,,,,,,,,,,,,,,,-3.1640625,-7.1484375,1,0,0,0.937298059464,,,,,2015_Nov_06_1653,G,facesParametric,27,59.7457074239,
./stim/MorphF3_01_orig.jpg,149,,,,,,,,,0,149,149,149,,,,,,,,,,,,,,,-3.1640625,-7.1484375,1,0,0,1.65663695335,,,,,2015_Nov_06_1653,G,facesParametric,27,59.7457074239,
./stim/MorphM6_04_orig.jpg,150,,,,,,,,,0,150,150,150,,,,,,,,,,,,,,,-3.1640625,-7.1484375,0,0,1,0.836536884308,,,,,2015_Nov_06_1653,G,facesParametric,27,59.7457074239,
./stim/MorphF10_06_orig.jpg,151,,,,,,,,,0,151,151,151,,,,,,,,,,,,,,,-3.1640625,-7.1484375,0,0,1,0.73606801033,,,,,2015_Nov_06_1653,G,facesParametric,27,59.7457074239,
./stim/MorphF8_04_orig.jpg,152,,,,,,,,,0,152,152,152,,,,,,,,,,,,,,,-3.1640625,-7.1484375,0,0,1,2.51286101341,,,,,2015_Nov_06_1653,G,facesParametric,27,59.7457074239,
./stim/MorphM5_07_orig.jpg,153,,,,,,,,,0,153,153,153,,,,,,,,,,,,,,,-3.1640625,-7.1484375,0,0,1,0.885275125504,,,,,2015_Nov_06_1653,G,facesParametric,27,59.7457074239,
./stim/MorphM4_08_orig.jpg,154,,,,,,,,,0,154,154,154,,,,,,,,,,,,,,,-3.1640625,-7.1484375,0,0,1,1.08782982826,,,,,2015_Nov_06_1653,G,facesParametric,27,59.7457074239,
./stim/MorphM8_02_orig.jpg,155,,,,,,,,,0,155,155,155,,,,,,,,,,,,,,,-3.1640625,-7.1484375,0,0,1,2.2109401226,,,,,2015_Nov_06_1653,G,facesParametric,27,59.7457074239,
./stim/MorphF1_04_orig.jpg,156,,,,,,,,,0,156,156,156,,,,,,,,,,,,,,,-3.1640625,-7.1484375,1,0,0,2.56311511993,,,,,2015_Nov_06_1653,G,facesParametric,27,59.7457074239,
./stim/MorphF8_10_orig.jpg,157,,,,,,,,,0,157,157,157,,,,,,,,,,,,,,,-3.1640625,-7.1484375,0,0,1,0.702653169632,,,,,2015_Nov_06_1653,G,facesParametric,27,59.7457074239,
./stim/MorphF5_00_orig.jpg,158,,,,,,,,,0,158,158,158,,,,,,,,,,,,,,,-3.1640625,-7.1484375,1,0,0,0.904371976852,,,,,2015_Nov_06_1653,G,facesParametric,27,59.7457074239,
./stim/MorphF1_09_orig.jpg,159,,,,,,,,,0,159,159,159,,,,,,,,,,,,,,,-3.1640625,-7.1484375,0,0,1,0.801144838333,,,,,2015_Nov_06_1653,G,facesParametric,27,59.7457074239,
./stim/MorphM3_10_orig.jpg,160,,,,,,,,,0,160,160,160,,,,,,,,,,,,,,,-3.1640625,-7.1484375,0,0,1,0.835881948471,,,,,2015_Nov_06_1653,G,facesParametric,27,59.7457074239,
./stim/MorphM6_07_orig.jpg,161,,,,,,,,,0,161,161,161,,,,,,,,,,,,,,,-3.1640625,-7.1484375,0,0,1,0.971549034119,,,,,2015_Nov_06_1653,G,facesParametric,27,59.7457074239,
./stim/MorphF9_03_orig.jpg,162,,,,,,,,,0,162,162,162,,,,,,,,,,,,,,,-3.1640625,-7.1484375,1,0,0,1.18764805794,,,,,2015_Nov_06_1653,G,facesParametric,27,59.7457074239,
./stim/MorphM2_09_orig.jpg,163,,,,,,,,,0,163,163,163,,,,,,,,,,,,,,,-3.1640625,-7.1484375,0,0,1,0.936568021774,,,,,2015_Nov_06_1653,G,facesParametric,27,59.7457074239,
./stim/MorphF9_02_orig.jpg,164,,,,,,,,,0,164,164,164,,,,,,,,,,,,,,,-3.1640625,-7.1484375,1,0,0,0.836717128754,,,,,2015_Nov_06_1653,G,facesParametric,27,59.7457074239,
./stim/MorphM8_04_orig.jpg,165,,,,,,,,,0,165,165,165,,,,,,,,,,,,,,,-3.1640625,-7.1484375,0,0,1,0.935204029083,,,,,2015_Nov_06_1653,G,facesParametric,27,59.7457074239,
./stim/MorphM3_01_orig.jpg,166,,,,,,,,,0,166,166,166,,,,,,,,,,,,,,,-3.1640625,-7.1484375,1,0,0,0.887054204941,,,,,2015_Nov_06_1653,G,facesParametric,27,59.7457074239,
./stim/MorphF8_05_orig.jpg,167,,,,,,,,,0,167,167,167,,,,,,,,,,,,,,,-3.1640625,-7.1484375,0,0,1,1.03757715225,,,,,2015_Nov_06_1653,G,facesParametric,27,59.7457074239,
./stim/MorphF2_07_orig.jpg,168,,,,,,,,,0,168,168,168,,,,,,,,,,,,,,,-3.1640625,-7.1484375,0,0,1,0.736179113388,,,,,2015_Nov_06_1653,G,facesParametric,27,59.7457074239,
./stim/MorphM2_06_orig.jpg,169,,,,,,,,,0,169,169,169,,,,,,,,,,,,,,,-3.1640625,-7.1484375,1,0,0,2.05883312225,,,,,2015_Nov_06_1653,G,facesParametric,27,59.7457074239,
./stim/MorphM3_03_orig.jpg,170,,,,,,,,,0,170,170,170,,,,,,,,,,,,,,,-3.1640625,-7.1484375,1,0,0,1.59084486961,,,,,2015_Nov_06_1653,G,facesParametric,27,59.7457074239,
./stim/MorphM6_06_orig.jpg,171,,,,,,,,,0,171,171,171,,,,,,,,,,,,,,,-3.1640625,-7.1484375,0,0,1,0.887162208557,,,,,2015_Nov_06_1653,G,facesParametric,27,59.7457074239,
./stim/MorphM7_09_orig.jpg,172,,,,,,,,,0,172,172,172,,,,,,,,,,,,,,,-3.1640625,-7.1484375,0,0,1,2.69710493088,,,,,2015_Nov_06_1653,G,facesParametric,27,59.7457074239,
./stim/MorphM9_09_orig.jpg,173,,,,,,,,,0,173,173,173,,,,,,,,,,,,,,,-3.1640625,-7.1484375,0,0,1,4.47157406807,,,,,2015_Nov_06_1653,G,facesParametric,27,59.7457074239,
./stim/MorphF5_09_orig.jpg,174,,,,,,,,,0,174,174,174,,,,,,,,,,,,,,,-3.1640625,-7.1484375,0,0,1,1.18833804131,,,,,2015_Nov_06_1653,G,facesParametric,27,59.7457074239,
./stim/MorphM8_10_orig.jpg,175,,,,,,,,,0,175,175,175,,,,,,,,,,,,,,,-3.1640625,-7.1484375,0,0,1,1.50755310059,,,,,2015_Nov_06_1653,G,facesParametric,27,59.7457074239,
./stim/MorphM6_09_orig.jpg,176,,,,,,,,,0,176,176,176,,,,,,,,,,,,,,,-3.1640625,-7.1484375,0,0,1,0.903439044952,,,,,2015_Nov_06_1653,G,facesParametric,27,59.7457074239,
./stim/MorphM1_10_orig.jpg,177,,,,,,,,,0,177,177,177,,,,,,,,,,,,,,,-3.1640625,-7.1484375,0,0,1,2.14362812042,,,,,2015_Nov_06_1653,G,facesParametric,27,59.7457074239,
./stim/MorphF1_06_orig.jpg,178,,,,,,,,,0,178,178,178,,,,,,,,,,,,,,,-3.1640625,-7.1484375,0,0,1,2.93132400513,,,,,2015_Nov_06_1653,G,facesParametric,27,59.7457074239,
./stim/MorphM5_03_orig.jpg,179,,,,,,,,,0,179,179,179,,,,,,,,,,,,,,,-3.1640625,-7.1484375,0,0,1,0.934864997864,,,,,2015_Nov_06_1653,G,facesParametric,27,59.7457074239,
./stim/MorphF7_00_orig.jpg,180,,,,,,,,,0,180,180,180,,,,,,,,,,,,,,,-3.1640625,-7.1484375,1,0,0,2.41219615936,,,,,2015_Nov_06_1653,G,facesParametric,27,59.7457074239,
./stim/MorphM10_00_orig.jpg,181,,,,,,,,,0,181,181,181,,,,,,,,,,,,,,,-3.1640625,-7.1484375,1,0,0,0.817959070206,,,,,2015_Nov_06_1653,G,facesParametric,27,59.7457074239,
./stim/MorphM7_08_orig.jpg,182,,,,,,,,,0,182,182,182,,,,,,,,,,,,,,,-3.1640625,-7.1484375,0,0,1,1.52381491661,,,,,2015_Nov_06_1653,G,facesParametric,27,59.7457074239,
./stim/MorphM9_06_orig.jpg,183,,,,,,,,,0,183,183,183,,,,,,,,,,,,,,,-3.1640625,-7.1484375,0,0,1,3.3675429821,,,,,2015_Nov_06_1653,G,facesParametric,27,59.7457074239,
./stim/MorphF3_08_orig.jpg,184,,,,,,,,,0,184,184,184,,,,,,,,,,,,,,,-3.1640625,-7.1484375,0,0,1,1.02043318748,,,,,2015_Nov_06_1653,G,facesParametric,27,59.7457074239,
./stim/MorphF6_08_orig.jpg,185,,,,,,,,,0,185,185,185,,,,,,,,,,,,,,,-3.1640625,-7.1484375,0,0,1,0.702627182007,,,,,2015_Nov_06_1653,G,facesParametric,27,59.7457074239,
./stim/MorphF4_00_orig.jpg,186,,,,,,,,,0,186,186,186,,,,,,,,,,,,,,,-3.1640625,-7.1484375,1,0,0,11.8144848347,,,,,2015_Nov_06_1653,G,facesParametric,27,59.7457074239,
./stim/MorphM1_02_orig.jpg,187,,,,,,,,,0,187,187,187,,,,,,,,,,,,,,,-3.1640625,-7.1484375,1,0,0,8.7976899147,,,,,2015_Nov_06_1653,G,facesParametric,27,59.7457074239,
./stim/MorphM4_04_orig.jpg,188,,,,,,,,,0,188,188,188,,,,,,,,,,,,,,,-3.1640625,-7.1484375,0,0,1,3.21509099007,,,,,2015_Nov_06_1653,G,facesParametric,27,59.7457074239,
./stim/MorphM5_10_orig.jpg,189,,,,,,,,,0,189,189,189,,,,,,,,,,,,,,,-3.1640625,-7.1484375,0,0,1,2.17823314667,,,,,2015_Nov_06_1653,G,facesParametric,27,59.7457074239,
./stim/MorphF10_10_orig.jpg,190,,,,,,,,,0,190,190,190,,,,,,,,,,,,,,,-3.1640625,-7.1484375,0,0,1,0.785851955414,,,,,2015_Nov_06_1653,G,facesParametric,27,59.7457074239,
./stim/MorphM7_00_orig.jpg,191,,,,,,,,,0,191,191,191,,,,,,,,,,,,,,,-3.1640625,-7.1484375,1,0,0,5.72819900513,,,,,2015_Nov_06_1653,G,facesParametric,27,59.7457074239,
./stim/MorphM4_01_orig.jpg,192,,,,,,,,,0,192,192,192,,,,,,,,,,,,,,,-3.1640625,-7.1484375,0,0,1,1.00298404694,,,,,2015_Nov_06_1653,G,facesParametric,27,59.7457074239,
./stim/MorphF7_01_orig.jpg,193,,,,,,,,,0,193,193,193,,,,,,,,,,,,,,,-3.1640625,-7.1484375,1,0,0,1.37249207497,,,,,2015_Nov_06_1653,G,facesParametric,27,59.7457074239,
./stim/MorphM4_05_orig.jpg,194,,,,,,,,,0,194,194,194,,,,,,,,,,,,,,,-3.193359375,-7.177734375,0,0,1,3.8699259758,,,,,2015_Nov_06_1653,G,facesParametric,27,59.7457074239,
./stim/MorphM5_05_orig.jpg,195,,,,,,,,,0,195,195,195,,,,,,,,,,,,,,,-3.193359375,-7.177734375,0,0,1,0.986525058746,,,,,2015_Nov_06_1653,G,facesParametric,27,59.7457074239,
./stim/MorphF9_04_orig.jpg,196,,,,,,,,,0,196,196,196,,,,,,,,,,,,,,,-3.193359375,-7.177734375,0,0,1,0.784489154816,,,,,2015_Nov_06_1653,G,facesParametric,27,59.7457074239,
./stim/MorphM10_02_orig.jpg,197,,,,,,,,,0,197,197,197,,,,,,,,,,,,,,,-3.193359375,-7.177734375,1,0,0,1.50548815727,,,,,2015_Nov_06_1653,G,facesParametric,27,59.7457074239,
./stim/MorphF1_02_orig.jpg,198,,,,,,,,,0,198,198,198,,,,,,,,,,,,,,,-3.193359375,-7.177734375,1,0,0,6.01307201385,,,,,2015_Nov_06_1653,G,facesParametric,27,59.7457074239,
./stim/MorphM8_00_orig.jpg,199,,,,,,,,,0,199,199,199,,,,,,,,,,,,,,,-3.193359375,-7.177734375,1,0,0,2.24507904053,,,,,2015_Nov_06_1653,G,facesParametric,27,59.7457074239,
./stim/MorphM10_06_orig.jpg,200,,,,,,,,,0,200,200,200,,,,,,,,,,,,,,,-3.193359375,-7.177734375,0,0,1,1.422935009,,,,,2015_Nov_06_1653,G,facesParametric,27,59.7457074239,
./stim/MorphM2_08_orig.jpg,201,,,,,,,,,0,201,201,201,,,,,,,,,,,,,,,-3.193359375,-7.177734375,0,0,1,2.31093192101,,,,,2015_Nov_06_1653,G,facesParametric,27,59.7457074239,
./stim/MorphF7_02_orig.jpg,202,,,,,,,,,0,202,202,202,,,,,,,,,,,,,,,-3.193359375,-7.177734375,1,0,0,4.58862614632,,,,,2015_Nov_06_1653,G,facesParametric,27,59.7457074239,
./stim/MorphF2_03_orig.jpg,203,,,,,,,,,0,203,203,203,,,,,,,,,,,,,,,-3.193359375,-7.177734375,0,0,1,3.01608896255,,,,,2015_Nov_06_1653,G,facesParametric,27,59.7457074239,
./stim/MorphF4_03_orig.jpg,204,,,,,,,,,0,204,204,204,,,,,,,,,,,,,,,-3.193359375,-7.177734375,1,0,0,2.93119502068,,,,,2015_Nov_06_1653,G,facesParametric,27,59.7457074239,
./stim/MorphM4_09_orig.jpg,205,,,,,,,,,0,205,205,205,,,,,,,,,,,,,,,-3.193359375,-7.177734375,0,0,1,0.63587808609,,,,,2015_Nov_06_1653,G,facesParametric,27,59.7457074239,
./stim/MorphF10_02_orig.jpg,206,,,,,,,,,0,206,206,206,,,,,,,,,,,,,,,-3.193359375,-7.177734375,1,0,0,0.93612909317,,,,,2015_Nov_06_1653,G,facesParametric,27,59.7457074239,
./stim/MorphM7_10_orig.jpg,207,,,,,,,,,0,207,207,207,,,,,,,,,,,,,,,-3.193359375,-7.177734375,0,0,1,3.13315296173,,,,,2015_Nov_06_1653,G,facesParametric,27,59.7457074239,
./stim/MorphM10_08_orig.jpg,208,,,,,,,,,0,208,208,208,,,,,,,,,,,,,,,-3.193359375,-7.177734375,0,0,1,1.43893408775,,,,,2015_Nov_06_1653,G,facesParametric,27,59.7457074239,
./stim/MorphF4_01_orig.jpg,209,,,,,,,,,0,209,209,209,,,,,,,,,,,,,,,-3.193359375,-7.177734375,1,0,0,1.00422310829,,,,,2015_Nov_06_1653,G,facesParametric,27,59.7457074239,
./stim/MorphM4_10_orig.jpg,210,,,,,,,,,0,210,210,210,,,,,,,,,,,,,,,-3.193359375,-7.177734375,0,0,1,0.618831157684,,,,,2015_Nov_06_1653,G,facesParametric,27,59.7457074239,
./stim/MorphF8_00_orig.jpg,211,,,,,,,,,0,211,211,211,,,,,,,,,,,,,,,-3.193359375,-7.177734375,1,0,0,1.7252099514,,,,,2015_Nov_06_1653,G,facesParametric,27,59.7457074239,
./stim/MorphM7_07_orig.jpg,212,,,,,,,,,0,212,212,212,,,,,,,,,,,,,,,-3.193359375,-7.177734375,0,0,1,1.40606880188,,,,,2015_Nov_06_1653,G,facesParametric,27,59.7457074239,
./stim/MorphF4_09_orig.jpg,213,,,,,,,,,0,213,213,213,,,,,,,,,,,,,,,-3.193359375,-7.177734375,0,0,1,0.702605962753,,,,,2015_Nov_06_1653,G,facesParametric,27,59.7457074239,
./stim/MorphM9_01_orig.jpg,214,,,,,,,,,0,214,214,214,,,,,,,,,,,,,,,-3.193359375,-7.177734375,1,0,0,0.869804859161,,,,,2015_Nov_06_1653,G,facesParametric,27,59.7457074239,
./stim/MorphF2_10_orig.jpg,215,,,,,,,,,0,215,215,215,,,,,,,,,,,,,,,-3.193359375,-7.177734375,0,0,1,0.6511490345,,,,,2015_Nov_06_1653,G,facesParametric,27,59.7457074239,
./stim/MorphM10_07_orig.jpg,216,,,,,,,,,0,216,216,216,,,,,,,,,,,,,,,-3.193359375,-7.177734375,0,0,1,0.769459962845,,,,,2015_Nov_06_1653,G,facesParametric,27,59.7457074239,
./stim/MorphM8_07_orig.jpg,217,,,,,,,,,0,217,217,217,,,,,,,,,,,,,,,-3.193359375,-7.177734375,0,0,1,0.601770877838,,,,,2015_Nov_06_1653,G,facesParametric,27,59.7457074239,
./stim/MorphF7_04_orig.jpg,218,,,,,,,,,0,218,218,218,,,,,,,,,,,,,,,-3.193359375,-7.177734375,0,0,1,1.92432498932,,,,,2015_Nov_06_1653,G,facesParametric,27,59.7457074239,
./stim/MorphM4_02_orig.jpg,219,,,,,,,,,0,219,219,219,,,,,,,,,,,,,,,-3.193359375,-7.177734375,1,0,0,0.885915994644,,,,,2015_Nov_06_1653,G,facesParametric,27,59.7457074239,
,,,,,,,,,,,,,,,,,,,,,,,,,,,,,,,,,,,,return,16.82208395,2015_Nov_06_1653,G,facesParametric,27,59.7457074239,
