img,num,basicLoop.thisRepN,basicLoop.thisTrialN,basicLoop.thisN,basicLoop.thisIndex,trials.thisRepN,trials.thisTrialN,trials.thisN,trials.thisIndex,trials2.thisRepN,trials2.thisTrialN,trials2.thisN,trials2.thisIndex,key_resp_2.keys,key_resp_2.rt,basicRating1.response,basicRating1.rt,basicRating2.response,basicRating2.rt,basicRating3.response,basicRating3.rt,basicRating4.response,basicRating4.rt,key_resp_3.keys,key_resp_3.rt,key_resp_4.keys,key_resp_4.rt,mouseResp.x,mouseResp.y,mouseResp.leftButton,mouseResp.midButton,mouseResp.rightButton,mouseResp.time,key_resp_5.keys,key_resp_5.rt,key_resp_7.keys,key_resp_7.rt,date,group,expName,participant,frameRate,
,,,,,,,,,,,,,,return,117.932045221,,,,,,,,,,,,,,,,,,,,,,,2015_Nov_07_1331,G,facesParametric,28,59.6189157649,
./basicStim/01F_SP_O.jpg,,0,0,0,5,,,,,,,,,,,None,None,None,None,SUP,7.047,None,None,,,,,,,,,,,,,,,2015_Nov_07_1331,G,facesParametric,28,59.6189157649,
./basicStim/36M_AN_O.jpg,,0,1,1,77,,,,,,,,,,,None,None,ANG,3.071,None,None,None,None,,,,,,,,,,,,,,,2015_Nov_07_1331,G,facesParametric,28,59.6189157649,
./basicStim/28M_NE_C.jpg,,0,2,2,69,,,,,,,,,,,None,None,None,None,SUP,10.598,None,None,,,,,,,,,,,,,,,2015_Nov_07_1331,G,facesParametric,28,59.6189157649,
./basicStim/03F_SP_O.jpg,,0,3,3,19,,,,,,,,,,,HAP,4.818,None,None,None,None,None,None,,,,,,,,,,,,,,,2015_Nov_07_1331,G,facesParametric,28,59.6189157649,
./basicStim/03F_SA_C.jpg,,0,4,4,18,,,,,,,,,,,SAD,2.438,None,None,None,None,None,None,,,,,,,,,,,,,,,2015_Nov_07_1331,G,facesParametric,28,59.6189157649,
./basicStim/01F_HA_O.jpg,,0,5,5,3,,,,,,,,,,,HAP,3.892,None,None,None,None,None,None,,,,,,,,,,,,,,,2015_Nov_07_1331,G,facesParametric,28,59.6189157649,
./basicStim/09F_AN_O.jpg,,0,6,6,35,,,,,,,,,,,None,None,ANG,2.57,None,None,None,None,,,,,,,,,,,,,,,2015_Nov_07_1331,G,facesParametric,28,59.6189157649,
./basicStim/28M_SA_C.jpg,,0,7,7,67,,,,,,,,,,,None,None,None,None,SUP,7.326,None,None,,,,,,,,,,,,,,,2015_Nov_07_1331,G,facesParametric,28,59.6189157649,
./basicStim/06F_DI_O.jpg,,0,8,8,22,,,,,,,,,,,None,None,None,None,DIS,2.735,None,None,,,,,,,,,,,,,,,2015_Nov_07_1331,G,facesParametric,28,59.6189157649,
./basicStim/23M_AN_O.jpg,,0,9,9,49,,,,,,,,,,,None,None,ANG,2.532,None,None,None,None,,,,,,,,,,,,,,,2015_Nov_07_1331,G,facesParametric,28,59.6189157649,
./basicStim/36M_FE_O.jpg,,0,10,10,79,,,,,,,,,,,None,None,None,None,SUP,4.563,None,None,,,,,,,,,,,,,,,2015_Nov_07_1331,G,facesParametric,28,59.6189157649,
./basicStim/21M_NE_C.jpg,,0,11,11,48,,,,,,,,,,,None,None,None,None,None,None,NTR,3.686,,,,,,,,,,,,,,,2015_Nov_07_1331,G,facesParametric,28,59.6189157649,
./basicStim/23M_SA_C.jpg,,0,12,12,53,,,,,,,,,,,None,None,None,None,DIS,6.813,None,None,,,,,,,,,,,,,,,2015_Nov_07_1331,G,facesParametric,28,59.6189157649,
./basicStim/28M_DI_O.jpg,,0,13,13,64,,,,,,,,,,,None,None,None,None,None,None,NTR,9.289,,,,,,,,,,,,,,,2015_Nov_07_1331,G,facesParametric,28,59.6189157649,
./basicStim/09F_SP_O.jpg,,0,14,14,40,,,,,,,,,,,None,None,None,None,SUP,1.914,None,None,,,,,,,,,,,,,,,2015_Nov_07_1331,G,facesParametric,28,59.6189157649,
./basicStim/36M_NE_C.jpg,,0,15,15,83,,,,,,,,,,,None,None,None,None,None,None,NTR,1.777,,,,,,,,,,,,,,,2015_Nov_07_1331,G,facesParametric,28,59.6189157649,
./basicStim/07F_FE_O.jpg,,0,16,16,30,,,,,,,,,,,None,None,None,None,DIS,3.002,None,None,,,,,,,,,,,,,,,2015_Nov_07_1331,G,facesParametric,28,59.6189157649,
./basicStim/21M_FE_O.jpg,,0,17,17,44,,,,,,,,,,,None,None,None,None,SUP,2.904,None,None,,,,,,,,,,,,,,,2015_Nov_07_1331,G,facesParametric,28,59.6189157649,
./basicStim/34M_SP_O.jpg,,0,18,18,75,,,,,,,,,,,None,None,None,None,SUP,1.631,None,None,,,,,,,,,,,,,,,2015_Nov_07_1331,G,facesParametric,28,59.6189157649,
./basicStim/09F_NE_C.jpg,,0,19,19,41,,,,,,,,,,,None,None,None,None,None,None,NTR,2.333,,,,,,,,,,,,,,,2015_Nov_07_1331,G,facesParametric,28,59.6189157649,
./basicStim/01F_FE_O.jpg,,0,20,20,2,,,,,,,,,,,None,None,None,None,SUP,4.612,None,None,,,,,,,,,,,,,,,2015_Nov_07_1331,G,facesParametric,28,59.6189157649,
./basicStim/06F_SA_C.jpg,,0,21,21,25,,,,,,,,,,,None,None,None,None,DIS,8.665,None,None,,,,,,,,,,,,,,,2015_Nov_07_1331,G,facesParametric,28,59.6189157649,
./basicStim/01F_NE_C.jpg,,0,22,22,6,,,,,,,,,,,None,None,None,None,None,None,NTR,1.01,,,,,,,,,,,,,,,2015_Nov_07_1331,G,facesParametric,28,59.6189157649,
./basicStim/02F_DI_O.jpg,,0,23,23,8,,,,,,,,,,,None,None,None,None,None,None,NTR,10.743,,,,,,,,,,,,,,,2015_Nov_07_1331,G,facesParametric,28,59.6189157649,
./basicStim/07F_AN_O.jpg,,0,24,24,28,,,,,,,,,,,None,None,ANG,4.174,None,None,None,None,,,,,,,,,,,,,,,2015_Nov_07_1331,G,facesParametric,28,59.6189157649,
./basicStim/07F_SP_O.jpg,,0,25,25,33,,,,,,,,,,,None,None,None,None,SUP,2.851,None,None,,,,,,,,,,,,,,,2015_Nov_07_1331,G,facesParametric,28,59.6189157649,
./basicStim/24M_HA_O.jpg,,0,26,26,59,,,,,,,,,,,HAP,2.785,None,None,None,None,None,None,,,,,,,,,,,,,,,2015_Nov_07_1331,G,facesParametric,28,59.6189157649,
./basicStim/01F_SA_C.jpg,,0,27,27,4,,,,,,,,,,,SAD,5.536,None,None,None,None,None,None,,,,,,,,,,,,,,,2015_Nov_07_1331,G,facesParametric,28,59.6189157649,
./basicStim/23M_NE_C.jpg,,0,28,28,55,,,,,,,,,,,None,None,None,None,None,None,NTR,2.435,,,,,,,,,,,,,,,2015_Nov_07_1331,G,facesParametric,28,59.6189157649,
./basicStim/24M_AN_O.jpg,,0,29,29,56,,,,,,,,,,,None,None,ANG,3.509,None,None,None,None,,,,,,,,,,,,,,,2015_Nov_07_1331,G,facesParametric,28,59.6189157649,
./basicStim/24M_SA_C.jpg,,0,30,30,60,,,,,,,,,,,SAD,5.065,None,None,None,None,None,None,,,,,,,,,,,,,,,2015_Nov_07_1331,G,facesParametric,28,59.6189157649,
./basicStim/21M_DI_O.jpg,,0,31,31,43,,,,,,,,,,,None,None,None,None,SUP,6.069,None,None,,,,,,,,,,,,,,,2015_Nov_07_1331,G,facesParametric,28,59.6189157649,
./basicStim/36M_SA_C.jpg,,0,32,32,81,,,,,,,,,,,None,None,None,None,None,None,NTR,2.374,,,,,,,,,,,,,,,2015_Nov_07_1331,G,facesParametric,28,59.6189157649,
./basicStim/21M_HA_O.jpg,,0,33,33,45,,,,,,,,,,,HAP,1.629,None,None,None,None,None,None,,,,,,,,,,,,,,,2015_Nov_07_1331,G,facesParametric,28,59.6189157649,
./basicStim/06F_NE_C.jpg,,0,34,34,27,,,,,,,,,,,None,None,None,None,None,None,NTR,1.747,,,,,,,,,,,,,,,2015_Nov_07_1331,G,facesParametric,28,59.6189157649,
./basicStim/06F_AN_O.jpg,,0,35,35,21,,,,,,,,,,,None,None,ANG,2.006,None,None,None,None,,,,,,,,,,,,,,,2015_Nov_07_1331,G,facesParametric,28,59.6189157649,
./basicStim/21M_AN_O.jpg,,0,36,36,42,,,,,,,,,,,None,None,ANG,1.047,None,None,None,None,,,,,,,,,,,,,,,2015_Nov_07_1331,G,facesParametric,28,59.6189157649,
./basicStim/34M_DI_O.jpg,,0,37,37,71,,,,,,,,,,,None,None,None,None,DIS,7.043,None,None,,,,,,,,,,,,,,,2015_Nov_07_1331,G,facesParametric,28,59.6189157649,
./basicStim/28M_FE_O.jpg,,0,38,38,65,,,,,,,,,,,None,None,None,None,SUP,2.506,None,None,,,,,,,,,,,,,,,2015_Nov_07_1331,G,facesParametric,28,59.6189157649,
./basicStim/21M_SA_C.jpg,,0,39,39,46,,,,,,,,,,,None,None,None,None,None,None,NTR,4.297,,,,,,,,,,,,,,,2015_Nov_07_1331,G,facesParametric,28,59.6189157649,
./basicStim/36M_DI_O.jpg,,0,40,40,78,,,,,,,,,,,None,None,None,None,None,None,NTR,6.588,,,,,,,,,,,,,,,2015_Nov_07_1331,G,facesParametric,28,59.6189157649,
./basicStim/34M_SA_C.jpg,,0,41,41,74,,,,,,,,,,,None,None,None,None,DIS,9.974,None,None,,,,,,,,,,,,,,,2015_Nov_07_1331,G,facesParametric,28,59.6189157649,
./basicStim/36M_SP_O.jpg,,0,42,42,82,,,,,,,,,,,None,None,None,None,SUP,4.312,None,None,,,,,,,,,,,,,,,2015_Nov_07_1331,G,facesParametric,28,59.6189157649,
./basicStim/07F_HA_O.jpg,,0,43,43,31,,,,,,,,,,,HAP,2.872,None,None,None,None,None,None,,,,,,,,,,,,,,,2015_Nov_07_1331,G,facesParametric,28,59.6189157649,
./basicStim/23M_DI_O.jpg,,0,44,44,50,,,,,,,,,,,SAD,5.989,None,None,None,None,None,None,,,,,,,,,,,,,,,2015_Nov_07_1331,G,facesParametric,28,59.6189157649,
./basicStim/06F_HA_O.jpg,,0,45,45,24,,,,,,,,,,,HAP,2.754,None,None,None,None,None,None,,,,,,,,,,,,,,,2015_Nov_07_1331,G,facesParametric,28,59.6189157649,
./basicStim/28M_AN_O.jpg,,0,46,46,63,,,,,,,,,,,None,None,None,None,None,None,NTR,4.264,,,,,,,,,,,,,,,2015_Nov_07_1331,G,facesParametric,28,59.6189157649,
./basicStim/23M_SP_O.jpg,,0,47,47,54,,,,,,,,,,,None,None,None,None,SUP,1.108,None,None,,,,,,,,,,,,,,,2015_Nov_07_1331,G,facesParametric,28,59.6189157649,
./basicStim/28M_HA_O.jpg,,0,48,48,66,,,,,,,,,,,HAP,1.889,None,None,None,None,None,None,,,,,,,,,,,,,,,2015_Nov_07_1331,G,facesParametric,28,59.6189157649,
./basicStim/02F_SA_C.jpg,,0,49,49,11,,,,,,,,,,,SAD,7.05,None,None,None,None,None,None,,,,,,,,,,,,,,,2015_Nov_07_1331,G,facesParametric,28,59.6189157649,
./basicStim/09F_SA_C.jpg,,0,50,50,39,,,,,,,,,,,None,None,ANG,2.518,None,None,None,None,,,,,,,,,,,,,,,2015_Nov_07_1331,G,facesParametric,28,59.6189157649,
./basicStim/09F_FE_O.jpg,,0,51,51,37,,,,,,,,,,,HAP,2.422,None,None,None,None,None,None,,,,,,,,,,,,,,,2015_Nov_07_1331,G,facesParametric,28,59.6189157649,
./basicStim/02F_HA_O.jpg,,0,52,52,10,,,,,,,,,,,HAP,2.282,None,None,None,None,None,None,,,,,,,,,,,,,,,2015_Nov_07_1331,G,facesParametric,28,59.6189157649,
./basicStim/24M_NE_C.jpg,,0,53,53,62,,,,,,,,,,,None,None,None,None,None,None,NTR,1.408,,,,,,,,,,,,,,,2015_Nov_07_1331,G,facesParametric,28,59.6189157649,
./basicStim/34M_AN_O.jpg,,0,54,54,70,,,,,,,,,,,None,None,ANG,3.172,None,None,None,None,,,,,,,,,,,,,,,2015_Nov_07_1331,G,facesParametric,28,59.6189157649,
./basicStim/24M_SP_O.jpg,,0,55,55,61,,,,,,,,,,,None,None,None,None,SUP,4.18,None,None,,,,,,,,,,,,,,,2015_Nov_07_1331,G,facesParametric,28,59.6189157649,
./basicStim/02F_NE_C.jpg,,0,56,56,13,,,,,,,,,,,None,None,None,None,None,None,NTR,2.317,,,,,,,,,,,,,,,2015_Nov_07_1331,G,facesParametric,28,59.6189157649,
./basicStim/03F_HA_O.jpg,,0,57,57,17,,,,,,,,,,,HAP,3.593,None,None,None,None,None,None,,,,,,,,,,,,,,,2015_Nov_07_1331,G,facesParametric,28,59.6189157649,
./basicStim/03F_DI_O.jpg,,0,58,58,15,,,,,,,,,,,None,None,None,None,DIS,4.476,None,None,,,,,,,,,,,,,,,2015_Nov_07_1331,G,facesParametric,28,59.6189157649,
./basicStim/09F_DI_O.jpg,,0,59,59,36,,,,,,,,,,,None,None,ANG,4.317,None,None,None,None,,,,,,,,,,,,,,,2015_Nov_07_1331,G,facesParametric,28,59.6189157649,
./basicStim/03F_NE_C.jpg,,0,60,60,20,,,,,,,,,,,None,None,None,None,None,None,NTR,1.777,,,,,,,,,,,,,,,2015_Nov_07_1331,G,facesParametric,28,59.6189157649,
./basicStim/34M_NE_C.jpg,,0,61,61,76,,,,,,,,,,,None,None,None,None,None,None,NTR,1.046,,,,,,,,,,,,,,,2015_Nov_07_1331,G,facesParametric,28,59.6189157649,
./basicStim/06F_FE_O.jpg,,0,62,62,23,,,,,,,,,,,None,None,None,None,SUP,3.122,None,None,,,,,,,,,,,,,,,2015_Nov_07_1331,G,facesParametric,28,59.6189157649,
./basicStim/02F_SP_O.jpg,,0,63,63,12,,,,,,,,,,,None,None,None,None,SUP,2.506,None,None,,,,,,,,,,,,,,,2015_Nov_07_1331,G,facesParametric,28,59.6189157649,
./basicStim/02F_AN_O.jpg,,0,64,64,7,,,,,,,,,,,None,None,ANG,1.685,None,None,None,None,,,,,,,,,,,,,,,2015_Nov_07_1331,G,facesParametric,28,59.6189157649,
./basicStim/07F_NE_C.jpg,,0,65,65,34,,,,,,,,,,,None,None,None,None,None,None,NTR,1.626,,,,,,,,,,,,,,,2015_Nov_07_1331,G,facesParametric,28,59.6189157649,
./basicStim/23M_HA_O.jpg,,0,66,66,52,,,,,,,,,,,HAP,3.31,None,None,None,None,None,None,,,,,,,,,,,,,,,2015_Nov_07_1331,G,facesParametric,28,59.6189157649,
./basicStim/34M_HA_O.jpg,,0,67,67,73,,,,,,,,,,,HAP,0.758,None,None,None,None,None,None,,,,,,,,,,,,,,,2015_Nov_07_1331,G,facesParametric,28,59.6189157649,
./basicStim/24M_FE_O.jpg,,0,68,68,58,,,,,,,,,,,None,None,None,None,SUP,7.004,None,None,,,,,,,,,,,,,,,2015_Nov_07_1331,G,facesParametric,28,59.6189157649,
./basicStim/09F_HA_O.jpg,,0,69,69,38,,,,,,,,,,,HAP,1.462,None,None,None,None,None,None,,,,,,,,,,,,,,,2015_Nov_07_1331,G,facesParametric,28,59.6189157649,
./basicStim/01F_DI_O.jpg,,0,70,70,1,,,,,,,,,,,None,None,ANG,3.069,None,None,None,None,,,,,,,,,,,,,,,2015_Nov_07_1331,G,facesParametric,28,59.6189157649,
./basicStim/03F_FE_O.jpg,,0,71,71,16,,,,,,,,,,,None,None,None,None,DIS,1.44,None,None,,,,,,,,,,,,,,,2015_Nov_07_1331,G,facesParametric,28,59.6189157649,
./basicStim/03F_AN_O.jpg,,0,72,72,14,,,,,,,,,,,None,None,ANG,2.487,None,None,None,None,,,,,,,,,,,,,,,2015_Nov_07_1331,G,facesParametric,28,59.6189157649,
./basicStim/07F_SA_C.jpg,,0,73,73,32,,,,,,,,,,,SAD,3.843,None,None,None,None,None,None,,,,,,,,,,,,,,,2015_Nov_07_1331,G,facesParametric,28,59.6189157649,
./basicStim/21M_SP_O.jpg,,0,74,74,47,,,,,,,,,,,None,None,None,None,SUP,3.573,None,None,,,,,,,,,,,,,,,2015_Nov_07_1331,G,facesParametric,28,59.6189157649,
./basicStim/07F_DI_O.jpg,,0,75,75,29,,,,,,,,,,,None,None,None,None,DIS,7.41,None,None,,,,,,,,,,,,,,,2015_Nov_07_1331,G,facesParametric,28,59.6189157649,
./basicStim/23M_FE_O.jpg,,0,76,76,51,,,,,,,,,,,None,None,None,None,SUP,6.69,None,None,,,,,,,,,,,,,,,2015_Nov_07_1331,G,facesParametric,28,59.6189157649,
./basicStim/34M_FE_O.jpg,,0,77,77,72,,,,,,,,,,,None,None,None,None,SUP,1.582,None,None,,,,,,,,,,,,,,,2015_Nov_07_1331,G,facesParametric,28,59.6189157649,
./basicStim/36M_HA_O.jpg,,0,78,78,80,,,,,,,,,,,HAP,1.549,None,None,None,None,None,None,,,,,,,,,,,,,,,2015_Nov_07_1331,G,facesParametric,28,59.6189157649,
./basicStim/28M_SP_O.jpg,,0,79,79,68,,,,,,,,,,,None,None,None,None,SUP,2.771,None,None,,,,,,,,,,,,,,,2015_Nov_07_1331,G,facesParametric,28,59.6189157649,
./basicStim/02F_FE_O.jpg,,0,80,80,9,,,,,,,,,,,None,None,None,None,SUP,2.968,None,None,,,,,,,,,,,,,,,2015_Nov_07_1331,G,facesParametric,28,59.6189157649,
./basicStim/24M_DI_O.jpg,,0,81,81,57,,,,,,,,,,,None,None,FEA,3.085,None,None,None,None,,,,,,,,,,,,,,,2015_Nov_07_1331,G,facesParametric,28,59.6189157649,
./basicStim/06F_SP_O.jpg,,0,82,82,26,,,,,,,,,,,None,None,None,None,SUP,3.207,None,None,,,,,,,,,,,,,,,2015_Nov_07_1331,G,facesParametric,28,59.6189157649,
./basicStim/01F_AN_O.jpg,,0,83,83,0,,,,,,,,,,,None,None,ANG,1.78,None,None,None,None,,,,,,,,,,,,,,,2015_Nov_07_1331,G,facesParametric,28,59.6189157649,
,,,,,,,,,,,,,,,,,,,,,,,,return,44.8158950806,,,,,,,,,,,,,2015_Nov_07_1331,G,facesParametric,28,59.6189157649,
,,,,,,,,,,,,,,return,39.3679511547,,,,,,,,,,,,,,,,,,,,,,,2015_Nov_07_1331,G,facesParametric,28,59.6189157649,
,,,,,,,,,,,,,,,,,,,,,,,,return,33.9884028435,,,,,,,,,,,,,2015_Nov_07_1331,G,facesParametric,28,59.6189157649,
,,,,,,,,,,,,,,,,,,,,,,,,,,return,3.5526330471,,,,,,,,,,,2015_Nov_07_1331,G,facesParametric,28,59.6189157649,
./stim/MorphF8_10_orig.jpg,0,,,,,0,0,0,0,,,,,,,,,,,,,,,,,,,17.28515625,-13.125,1,0,0,3.75162291527,,,,,2015_Nov_07_1331,G,facesParametric,28,59.6189157649,
./stim/MorphM3_08_orig.jpg,1,,,,,0,1,1,1,,,,,,,,,,,,,,,,,,,17.28515625,-13.125,1,0,0,1.80643105507,,,,,2015_Nov_07_1331,G,facesParametric,28,59.6189157649,
./stim/MorphF7_00_orig.jpg,2,,,,,0,2,2,2,,,,,,,,,,,,,,,,,,,17.28515625,-13.125,0,0,1,1.69184994698,,,,,2015_Nov_07_1331,G,facesParametric,28,59.6189157649,
./stim/MorphM5_01_orig.jpg,3,,,,,0,3,3,3,,,,,,,,,,,,,,,,,,,17.28515625,-13.125,0,0,1,2.597397089,,,,,2015_Nov_07_1331,G,facesParametric,28,59.6189157649,
./stim/MorphF2_00_orig.jpg,4,,,,,0,4,4,4,,,,,,,,,,,,,,,,,,,17.28515625,-13.125,0,0,1,2.0422270298,,,,,2015_Nov_07_1331,G,facesParametric,28,59.6189157649,
./stim/MorphM2_08_orig.jpg,5,,,,,0,5,5,5,,,,,,,,,,,,,,,,,,,17.28515625,-13.125,0,0,1,3.43259191513,,,,,2015_Nov_07_1331,G,facesParametric,28,59.6189157649,
./stim/MorphM5_09_orig.jpg,6,,,,,0,6,6,6,,,,,,,,,,,,,,,,,,,17.28515625,-13.125,1,0,0,3.09973907471,,,,,2015_Nov_07_1331,G,facesParametric,28,59.6189157649,
./stim/MorphF3_01_orig.jpg,7,,,,,0,7,7,7,,,,,,,,,,,,,,,,,,,17.28515625,-13.125,0,0,1,2.76296305656,,,,,2015_Nov_07_1331,G,facesParametric,28,59.6189157649,
./stim/MorphF10_02_orig.jpg,8,,,,,0,8,8,8,,,,,,,,,,,,,,,,,,,17.28515625,-13.125,0,0,1,2.46237277985,,,,,2015_Nov_07_1331,G,facesParametric,28,59.6189157649,
./stim/MorphF7_04_orig.jpg,9,,,,,0,9,9,9,,,,,,,,,,,,,,,,,,,17.28515625,-13.125,1,0,0,1.1719930172,,,,,2015_Nov_07_1331,G,facesParametric,28,59.6189157649,
./stim/MorphM3_09_orig.jpg,10,,,,,0,10,10,10,,,,,,,,,,,,,,,,,,,17.28515625,-13.125,1,0,0,1.12172698975,,,,,2015_Nov_07_1331,G,facesParametric,28,59.6189157649,
./stim/MorphM6_04_orig.jpg,11,,,,,0,11,11,11,,,,,,,,,,,,,,,,,,,17.28515625,-13.125,0,0,1,2.73085784912,,,,,2015_Nov_07_1331,G,facesParametric,28,59.6189157649,
./stim/MorphF10_07_orig.jpg,12,,,,,0,12,12,12,,,,,,,,,,,,,,,,,,,17.28515625,-13.125,1,0,0,2.07687306404,,,,,2015_Nov_07_1331,G,facesParametric,28,59.6189157649,
./stim/MorphM4_03_orig.jpg,13,,,,,0,13,13,13,,,,,,,,,,,,,,,,,,,17.28515625,-13.125,0,0,1,5.36148309708,,,,,2015_Nov_07_1331,G,facesParametric,28,59.6189157649,
./stim/MorphF5_09_orig.jpg,14,,,,,0,14,14,14,,,,,,,,,,,,,,,,,,,17.28515625,-13.125,1,0,0,1.00384879112,,,,,2015_Nov_07_1331,G,facesParametric,28,59.6189157649,
./stim/MorphF6_09_orig.jpg,15,,,,,0,15,15,15,,,,,,,,,,,,,,,,,,,17.28515625,-13.125,1,0,0,3.26574587822,,,,,2015_Nov_07_1331,G,facesParametric,28,59.6189157649,
./stim/MorphM3_03_orig.jpg,16,,,,,0,16,16,16,,,,,,,,,,,,,,,,,,,17.28515625,-13.125,1,0,0,1.16969704628,,,,,2015_Nov_07_1331,G,facesParametric,28,59.6189157649,
./stim/MorphF6_04_orig.jpg,17,,,,,0,17,17,17,,,,,,,,,,,,,,,,,,,17.28515625,-13.125,0,0,1,2.49617195129,,,,,2015_Nov_07_1331,G,facesParametric,28,59.6189157649,
./stim/MorphM9_00_orig.jpg,18,,,,,0,18,18,18,,,,,,,,,,,,,,,,,,,17.28515625,-13.125,0,0,1,1.1212849617,,,,,2015_Nov_07_1331,G,facesParametric,28,59.6189157649,
./stim/MorphF2_01_orig.jpg,19,,,,,0,19,19,19,,,,,,,,,,,,,,,,,,,17.28515625,-13.125,0,0,1,2.24492001534,,,,,2015_Nov_07_1331,G,facesParametric,28,59.6189157649,
./stim/MorphF1_09_orig.jpg,20,,,,,0,20,20,20,,,,,,,,,,,,,,,,,,,17.28515625,-13.125,1,0,0,3.56710290909,,,,,2015_Nov_07_1331,G,facesParametric,28,59.6189157649,
./stim/MorphM2_00_orig.jpg,21,,,,,0,21,21,21,,,,,,,,,,,,,,,,,,,17.28515625,-13.125,0,0,1,2.1441090107,,,,,2015_Nov_07_1331,G,facesParametric,28,59.6189157649,
./stim/MorphM1_08_orig.jpg,22,,,,,0,22,22,22,,,,,,,,,,,,,,,,,,,17.28515625,-13.125,1,0,0,1.15508103371,,,,,2015_Nov_07_1331,G,facesParametric,28,59.6189157649,
./stim/MorphM10_01_orig.jpg,23,,,,,0,23,23,23,,,,,,,,,,,,,,,,,,,17.28515625,-13.125,0,0,1,4.07151913643,,,,,2015_Nov_07_1331,G,facesParametric,28,59.6189157649,
./stim/MorphM8_06_orig.jpg,24,,,,,0,24,24,24,,,,,,,,,,,,,,,,,,,17.28515625,-13.125,0,0,1,3.29898905754,,,,,2015_Nov_07_1331,G,facesParametric,28,59.6189157649,
./stim/MorphM4_02_orig.jpg,25,,,,,0,25,25,25,,,,,,,,,,,,,,,,,,,17.28515625,-13.125,0,0,1,1.72469592094,,,,,2015_Nov_07_1331,G,facesParametric,28,59.6189157649,
./stim/MorphM6_10_orig.jpg,26,,,,,0,26,26,26,,,,,,,,,,,,,,,,,,,17.28515625,-13.125,1,0,0,4.60740303993,,,,,2015_Nov_07_1331,G,facesParametric,28,59.6189157649,
./stim/MorphM10_00_orig.jpg,27,,,,,0,27,27,27,,,,,,,,,,,,,,,,,,,17.28515625,-13.125,0,0,1,1.2873570919,,,,,2015_Nov_07_1331,G,facesParametric,28,59.6189157649,
./stim/MorphF1_06_orig.jpg,28,,,,,0,28,28,28,,,,,,,,,,,,,,,,,,,17.28515625,-13.125,0,0,1,5.32838702202,,,,,2015_Nov_07_1331,G,facesParametric,28,59.6189157649,
./stim/MorphM5_05_orig.jpg,29,,,,,0,29,29,29,,,,,,,,,,,,,,,,,,,17.28515625,-13.125,1,0,0,3.03022503853,,,,,2015_Nov_07_1331,G,facesParametric,28,59.6189157649,
./stim/MorphF1_05_orig.jpg,30,,,,,0,30,30,30,,,,,,,,,,,,,,,,,,,17.28515625,-13.125,0,0,1,6.18304991722,,,,,2015_Nov_07_1331,G,facesParametric,28,59.6189157649,
./stim/MorphM6_03_orig.jpg,31,,,,,0,31,31,31,,,,,,,,,,,,,,,,,,,17.28515625,-13.125,0,0,1,4.45724582672,,,,,2015_Nov_07_1331,G,facesParametric,28,59.6189157649,
./stim/MorphF8_09_orig.jpg,32,,,,,0,32,32,32,,,,,,,,,,,,,,,,,,,17.28515625,-13.125,1,0,0,1.5549390316,,,,,2015_Nov_07_1331,G,facesParametric,28,59.6189157649,
./stim/MorphF9_03_orig.jpg,33,,,,,0,33,33,33,,,,,,,,,,,,,,,,,,,17.28515625,-13.125,0,0,1,3.97013616562,,,,,2015_Nov_07_1331,G,facesParametric,28,59.6189157649,
./stim/MorphM1_06_orig.jpg,34,,,,,0,34,34,34,,,,,,,,,,,,,,,,,,,17.28515625,-13.125,1,0,0,2.79831910133,,,,,2015_Nov_07_1331,G,facesParametric,28,59.6189157649,
./stim/MorphF3_09_orig.jpg,35,,,,,0,35,35,35,,,,,,,,,,,,,,,,,,,17.28515625,-13.125,1,0,0,2.27836894989,,,,,2015_Nov_07_1331,G,facesParametric,28,59.6189157649,
./stim/MorphF8_08_orig.jpg,36,,,,,0,36,36,36,,,,,,,,,,,,,,,,,,,17.28515625,-13.125,1,0,0,3.26571106911,,,,,2015_Nov_07_1331,G,facesParametric,28,59.6189157649,
./stim/MorphF4_10_orig.jpg,37,,,,,0,37,37,37,,,,,,,,,,,,,,,,,,,17.28515625,-13.125,1,0,0,6.04914307594,,,,,2015_Nov_07_1331,G,facesParametric,28,59.6189157649,
./stim/MorphF3_10_orig.jpg,38,,,,,0,38,38,38,,,,,,,,,,,,,,,,,,,17.28515625,-13.125,1,0,0,1.27063584328,,,,,2015_Nov_07_1331,G,facesParametric,28,59.6189157649,
./stim/MorphF10_04_orig.jpg,39,,,,,0,39,39,39,,,,,,,,,,,,,,,,,,,17.28515625,-13.125,1,0,0,5.39547681808,,,,,2015_Nov_07_1331,G,facesParametric,28,59.6189157649,
./stim/MorphM4_04_orig.jpg,40,,,,,0,40,40,40,,,,,,,,,,,,,,,,,,,17.28515625,-13.125,0,0,1,3.09898686409,,,,,2015_Nov_07_1331,G,facesParametric,28,59.6189157649,
./stim/MorphF5_03_orig.jpg,41,,,,,0,41,41,41,,,,,,,,,,,,,,,,,,,17.28515625,-13.125,0,0,1,3.60215306282,,,,,2015_Nov_07_1331,G,facesParametric,28,59.6189157649,
./stim/MorphM8_04_orig.jpg,42,,,,,0,42,42,42,,,,,,,,,,,,,,,,,,,17.28515625,-13.125,0,0,1,2.26127099991,,,,,2015_Nov_07_1331,G,facesParametric,28,59.6189157649,
./stim/MorphF4_01_orig.jpg,43,,,,,0,43,43,43,,,,,,,,,,,,,,,,,,,17.28515625,-13.125,0,0,1,2.62931203842,,,,,2015_Nov_07_1331,G,facesParametric,28,59.6189157649,
./stim/MorphF2_09_orig.jpg,44,,,,,0,44,44,44,,,,,,,,,,,,,,,,,,,17.28515625,-13.125,1,0,0,7.87585616112,,,,,2015_Nov_07_1331,G,facesParametric,28,59.6189157649,
./stim/MorphF1_02_orig.jpg,45,,,,,0,45,45,45,,,,,,,,,,,,,,,,,,,17.28515625,-13.125,0,0,1,2.94877099991,,,,,2015_Nov_07_1331,G,facesParametric,28,59.6189157649,
./stim/MorphF4_03_orig.jpg,46,,,,,0,46,46,46,,,,,,,,,,,,,,,,,,,17.28515625,-13.125,0,0,1,4.3061029911,,,,,2015_Nov_07_1331,G,facesParametric,28,59.6189157649,
./stim/MorphM9_10_orig.jpg,47,,,,,0,47,47,47,,,,,,,,,,,,,,,,,,,17.28515625,-13.125,1,0,0,2.42993092537,,,,,2015_Nov_07_1331,G,facesParametric,28,59.6189157649,
./stim/MorphM6_08_orig.jpg,48,,,,,0,48,48,48,,,,,,,,,,,,,,,,,,,17.28515625,-13.125,0,0,1,5.74636316299,,,,,2015_Nov_07_1331,G,facesParametric,28,59.6189157649,
./stim/MorphF4_02_orig.jpg,49,,,,,0,49,49,49,,,,,,,,,,,,,,,,,,,17.28515625,-13.125,0,0,1,2.04331898689,,,,,2015_Nov_07_1331,G,facesParametric,28,59.6189157649,
./stim/MorphF9_10_orig.jpg,50,,,,,0,50,50,50,,,,,,,,,,,,,,,,,,,17.28515625,-13.125,1,0,0,3.65211415291,,,,,2015_Nov_07_1331,G,facesParametric,28,59.6189157649,
./stim/MorphM2_09_orig.jpg,51,,,,,0,51,51,51,,,,,,,,,,,,,,,,,,,17.28515625,-13.125,1,0,0,2.37894296646,,,,,2015_Nov_07_1331,G,facesParametric,28,59.6189157649,
./stim/MorphM7_00_orig.jpg,52,,,,,0,52,52,52,,,,,,,,,,,,,,,,,,,17.28515625,-13.125,0,0,1,8.21061706543,,,,,2015_Nov_07_1331,G,facesParametric,28,59.6189157649,
./stim/MorphM1_01_orig.jpg,53,,,,,0,53,53,53,,,,,,,,,,,,,,,,,,,17.28515625,-13.125,0,0,1,9.36698198318,,,,,2015_Nov_07_1331,G,facesParametric,28,59.6189157649,
./stim/MorphM3_00_orig.jpg,54,,,,,0,54,54,54,,,,,,,,,,,,,,,,,,,17.28515625,-13.125,1,0,0,5.94828915596,,,,,2015_Nov_07_1331,G,facesParametric,28,59.6189157649,
./stim/MorphF7_06_orig.jpg,55,,,,,0,55,55,55,,,,,,,,,,,,,,,,,,,17.28515625,-13.125,1,0,0,4.05383491516,,,,,2015_Nov_07_1331,G,facesParametric,28,59.6189157649,
./stim/MorphF2_04_orig.jpg,56,,,,,0,56,56,56,,,,,,,,,,,,,,,,,,,17.28515625,-13.125,0,0,1,4.79190397263,,,,,2015_Nov_07_1331,G,facesParametric,28,59.6189157649,
./stim/MorphF4_08_orig.jpg,57,,,,,0,57,57,57,,,,,,,,,,,,,,,,,,,17.28515625,-13.125,1,0,0,9.88717794418,,,,,2015_Nov_07_1331,G,facesParametric,28,59.6189157649,
./stim/MorphM2_04_orig.jpg,58,,,,,0,58,58,58,,,,,,,,,,,,,,,,,,,17.28515625,-13.125,0,0,1,2.51261806488,,,,,2015_Nov_07_1331,G,facesParametric,28,59.6189157649,
./stim/MorphF6_10_orig.jpg,59,,,,,0,59,59,59,,,,,,,,,,,,,,,,,,,17.28515625,-13.125,1,0,0,1.13872289658,,,,,2015_Nov_07_1331,G,facesParametric,28,59.6189157649,
./stim/MorphF9_04_orig.jpg,60,,,,,0,60,60,60,,,,,,,,,,,,,,,,,,,17.28515625,-13.125,0,0,1,3.44898414612,,,,,2015_Nov_07_1331,G,facesParametric,28,59.6189157649,
./stim/MorphM8_07_orig.jpg,61,,,,,0,61,61,61,,,,,,,,,,,,,,,,,,,17.28515625,-13.125,1,0,0,2.69730901718,,,,,2015_Nov_07_1331,G,facesParametric,28,59.6189157649,
./stim/MorphF8_07_orig.jpg,62,,,,,0,62,62,62,,,,,,,,,,,,,,,,,,,17.28515625,-13.125,1,0,0,0.467881917953,,,,,2015_Nov_07_1331,G,facesParametric,28,59.6189157649,
./stim/MorphM4_06_orig.jpg,63,,,,,0,63,63,63,,,,,,,,,,,,,,,,,,,17.28515625,-13.125,1,0,0,3.66658186913,,,,,2015_Nov_07_1331,G,facesParametric,28,59.6189157649,
./stim/MorphF8_04_orig.jpg,64,,,,,0,64,64,64,,,,,,,,,,,,,,,,,,,17.28515625,-13.125,0,0,1,2.0772960186,,,,,2015_Nov_07_1331,G,facesParametric,28,59.6189157649,
./stim/MorphM9_04_orig.jpg,65,,,,,0,65,65,65,,,,,,,,,,,,,,,,,,,17.28515625,-13.125,0,0,1,2.0595998764,,,,,2015_Nov_07_1331,G,facesParametric,28,59.6189157649,
./stim/MorphF10_06_orig.jpg,66,,,,,0,66,66,66,,,,,,,,,,,,,,,,,,,17.28515625,-13.125,1,0,0,1.35662102699,,,,,2015_Nov_07_1331,G,facesParametric,28,59.6189157649,
./stim/MorphF5_01_orig.jpg,67,,,,,0,67,67,67,,,,,,,,,,,,,,,,,,,17.28515625,-13.125,0,0,1,4.37136006355,,,,,2015_Nov_07_1331,G,facesParametric,28,59.6189157649,
./stim/MorphF4_06_orig.jpg,68,,,,,0,68,68,68,,,,,,,,,,,,,,,,,,,17.28515625,-13.125,0,0,1,6.35039114952,,,,,2015_Nov_07_1331,G,facesParametric,28,59.6189157649,
./stim/MorphF10_08_orig.jpg,69,,,,,0,69,69,69,,,,,,,,,,,,,,,,,,,17.28515625,-13.125,1,0,0,1.07118415833,,,,,2015_Nov_07_1331,G,facesParametric,28,59.6189157649,
./stim/MorphM1_10_orig.jpg,70,,,,,0,70,70,70,,,,,,,,,,,,,,,,,,,17.28515625,-13.125,1,0,0,1.54104089737,,,,,2015_Nov_07_1331,G,facesParametric,28,59.6189157649,
./stim/MorphF10_10_orig.jpg,71,,,,,0,71,71,71,,,,,,,,,,,,,,,,,,,17.28515625,-13.125,1,0,0,2.32768583298,,,,,2015_Nov_07_1331,G,facesParametric,28,59.6189157649,
./stim/MorphM4_08_orig.jpg,72,,,,,0,72,72,72,,,,,,,,,,,,,,,,,,,17.28515625,-13.125,1,0,0,1.15519285202,,,,,2015_Nov_07_1331,G,facesParametric,28,59.6189157649,
./stim/MorphM2_06_orig.jpg,73,,,,,0,73,73,73,,,,,,,,,,,,,,,,,,,17.28515625,-13.125,0,0,1,2.96545386314,,,,,2015_Nov_07_1331,G,facesParametric,28,59.6189157649,
./stim/MorphF5_08_orig.jpg,74,,,,,0,74,74,74,,,,,,,,,,,,,,,,,,,17.28515625,-13.125,1,0,0,1.67507195473,,,,,2015_Nov_07_1331,G,facesParametric,28,59.6189157649,
./stim/MorphM1_04_orig.jpg,75,,,,,0,75,75,75,,,,,,,,,,,,,,,,,,,17.28515625,-13.125,1,0,0,3.36695098877,,,,,2015_Nov_07_1331,G,facesParametric,28,59.6189157649,
./stim/MorphM9_01_orig.jpg,76,,,,,0,76,76,76,,,,,,,,,,,,,,,,,,,17.28515625,-13.125,0,0,1,1.94306302071,,,,,2015_Nov_07_1331,G,facesParametric,28,59.6189157649,
./stim/MorphM7_09_orig.jpg,77,,,,,0,77,77,77,,,,,,,,,,,,,,,,,,,17.28515625,-13.125,1,0,0,1.05455899239,,,,,2015_Nov_07_1331,G,facesParametric,28,59.6189157649,
./stim/MorphM5_00_orig.jpg,78,,,,,0,78,78,78,,,,,,,,,,,,,,,,,,,17.28515625,-13.125,1,0,0,4.12135100365,,,,,2015_Nov_07_1331,G,facesParametric,28,59.6189157649,
./stim/MorphF1_07_orig.jpg,79,,,,,0,79,79,79,,,,,,,,,,,,,,,,,,,17.28515625,-13.125,1,0,0,7.40693688393,,,,,2015_Nov_07_1331,G,facesParametric,28,59.6189157649,
./stim/MorphF4_05_orig.jpg,80,,,,,0,80,80,80,,,,,,,,,,,,,,,,,,,17.28515625,-13.125,0,0,1,2.46011805534,,,,,2015_Nov_07_1331,G,facesParametric,28,59.6189157649,
./stim/MorphF9_07_orig.jpg,81,,,,,0,81,81,81,,,,,,,,,,,,,,,,,,,17.28515625,-13.125,1,0,0,5.99728798866,,,,,2015_Nov_07_1331,G,facesParametric,28,59.6189157649,
./stim/MorphF8_01_orig.jpg,82,,,,,0,82,82,82,,,,,,,,,,,,,,,,,,,17.28515625,-13.125,0,0,1,1.73952388763,,,,,2015_Nov_07_1331,G,facesParametric,28,59.6189157649,
./stim/MorphM6_06_orig.jpg,83,,,,,0,83,83,83,,,,,,,,,,,,,,,,,,,17.28515625,-13.125,0,0,1,3.18301010132,,,,,2015_Nov_07_1331,G,facesParametric,28,59.6189157649,
./stim/MorphM8_10_orig.jpg,84,,,,,0,84,84,84,,,,,,,,,,,,,,,,,,,17.28515625,-13.125,1,0,0,1.5738837719,,,,,2015_Nov_07_1331,G,facesParametric,28,59.6189157649,
./stim/MorphM2_03_orig.jpg,85,,,,,0,85,85,85,,,,,,,,,,,,,,,,,,,17.28515625,-13.125,0,0,1,3.24998998642,,,,,2015_Nov_07_1331,G,facesParametric,28,59.6189157649,
./stim/MorphM5_06_orig.jpg,86,,,,,0,86,86,86,,,,,,,,,,,,,,,,,,,17.28515625,-13.125,1,0,0,1.65770888329,,,,,2015_Nov_07_1331,G,facesParametric,28,59.6189157649,
./stim/MorphF10_09_orig.jpg,87,,,,,0,87,87,87,,,,,,,,,,,,,,,,,,,17.28515625,-13.125,1,0,0,1.0714468956,,,,,2015_Nov_07_1331,G,facesParametric,28,59.6189157649,
./stim/MorphF7_03_orig.jpg,88,,,,,0,88,88,88,,,,,,,,,,,,,,,,,,,17.28515625,-13.125,0,0,1,2.71385598183,,,,,2015_Nov_07_1331,G,facesParametric,28,59.6189157649,
./stim/MorphM10_08_orig.jpg,89,,,,,0,89,89,89,,,,,,,,,,,,,,,,,,,17.28515625,-13.125,1,0,0,0.954429864883,,,,,2015_Nov_07_1331,G,facesParametric,28,59.6189157649,
./stim/MorphM6_01_orig.jpg,90,,,,,0,90,90,90,,,,,,,,,,,,,,,,,,,17.28515625,-13.125,0,0,1,4.22175598145,,,,,2015_Nov_07_1331,G,facesParametric,28,59.6189157649,
./stim/MorphF5_04_orig.jpg,91,,,,,0,91,91,91,,,,,,,,,,,,,,,,,,,17.28515625,-13.125,0,0,1,1.77453804016,,,,,2015_Nov_07_1331,G,facesParametric,28,59.6189157649,
./stim/MorphF9_00_orig.jpg,92,,,,,0,92,92,92,,,,,,,,,,,,,,,,,,,17.28515625,-13.125,0,0,1,1.87339115143,,,,,2015_Nov_07_1331,G,facesParametric,28,59.6189157649,
./stim/MorphM7_08_orig.jpg,93,,,,,0,93,93,93,,,,,,,,,,,,,,,,,,,17.28515625,-13.125,1,0,0,1.02103304863,,,,,2015_Nov_07_1331,G,facesParametric,28,59.6189157649,
./stim/MorphF6_01_orig.jpg,94,,,,,0,94,94,94,,,,,,,,,,,,,,,,,,,17.28515625,-13.125,0,0,1,2.00916004181,,,,,2015_Nov_07_1331,G,facesParametric,28,59.6189157649,
./stim/MorphM3_07_orig.jpg,95,,,,,0,95,95,95,,,,,,,,,,,,,,,,,,,17.28515625,-13.125,1,0,0,0.920520782471,,,,,2015_Nov_07_1331,G,facesParametric,28,59.6189157649,
./stim/MorphM5_07_orig.jpg,96,,,,,0,96,96,96,,,,,,,,,,,,,,,,,,,17.28515625,-13.125,1,0,0,2.05959391594,,,,,2015_Nov_07_1331,G,facesParametric,28,59.6189157649,
./stim/MorphM9_06_orig.jpg,97,,,,,0,97,97,97,,,,,,,,,,,,,,,,,,,17.28515625,-13.125,0,0,1,4.74155902863,,,,,2015_Nov_07_1331,G,facesParametric,28,59.6189157649,
./stim/MorphM7_02_orig.jpg,98,,,,,0,98,98,98,,,,,,,,,,,,,,,,,,,17.28515625,-13.125,1,0,0,5.39548182487,,,,,2015_Nov_07_1331,G,facesParametric,28,59.6189157649,
./stim/MorphF2_02_orig.jpg,99,,,,,0,99,99,99,,,,,,,,,,,,,,,,,,,17.28515625,-13.125,0,0,1,1.87537288666,,,,,2015_Nov_07_1331,G,facesParametric,28,59.6189157649,
./stim/MorphF5_06_orig.jpg,100,,,,,0,100,100,100,,,,,,,,,,,,,,,,,,,17.28515625,-13.125,1,0,0,1.23878192902,,,,,2015_Nov_07_1331,G,facesParametric,28,59.6189157649,
./stim/MorphM6_05_orig.jpg,101,,,,,0,101,101,101,,,,,,,,,,,,,,,,,,,17.28515625,-13.125,0,0,1,1.35641407967,,,,,2015_Nov_07_1331,G,facesParametric,28,59.6189157649,
./stim/MorphM10_05_orig.jpg,102,,,,,0,102,102,102,,,,,,,,,,,,,,,,,,,17.28515625,-13.125,1,0,0,1.1892080307,,,,,2015_Nov_07_1331,G,facesParametric,28,59.6189157649,
./stim/MorphM2_05_orig.jpg,103,,,,,0,103,103,103,,,,,,,,,,,,,,,,,,,17.28515625,-13.125,0,0,1,1.95907402039,,,,,2015_Nov_07_1331,G,facesParametric,28,59.6189157649,
./stim/MorphM3_02_orig.jpg,104,,,,,0,104,104,104,,,,,,,,,,,,,,,,,,,17.28515625,-13.125,1,0,0,1.07075214386,,,,,2015_Nov_07_1331,G,facesParametric,28,59.6189157649,
./stim/MorphM5_02_orig.jpg,105,,,,,0,105,105,105,,,,,,,,,,,,,,,,,,,17.28515625,-13.125,1,0,0,2.72814702988,,,,,2015_Nov_07_1331,G,facesParametric,28,59.6189157649,
./stim/MorphM10_02_orig.jpg,106,,,,,0,106,106,106,,,,,,,,,,,,,,,,,,,17.28515625,-13.125,0,0,1,5.77930402756,,,,,2015_Nov_07_1331,G,facesParametric,28,59.6189157649,
./stim/MorphM3_05_orig.jpg,107,,,,,0,107,107,107,,,,,,,,,,,,,,,,,,,17.28515625,-13.125,1,0,0,0.971082925797,,,,,2015_Nov_07_1331,G,facesParametric,28,59.6189157649,
./stim/MorphF9_02_orig.jpg,108,,,,,0,108,108,108,,,,,,,,,,,,,,,,,,,17.28515625,-13.125,0,0,1,1.27236008644,,,,,2015_Nov_07_1331,G,facesParametric,28,59.6189157649,
./stim/MorphF1_10_orig.jpg,109,,,,,0,109,109,109,,,,,,,,,,,,,,,,,,,17.28515625,-13.125,1,0,0,2.79620194435,,,,,2015_Nov_07_1331,G,facesParametric,28,59.6189157649,
./stim/MorphM9_05_orig.jpg,110,,,,,0,110,110,110,,,,,,,,,,,,,,,,,,,17.28515625,-13.125,0,0,1,2.81444120407,,,,,2015_Nov_07_1331,G,facesParametric,28,59.6189157649,
./stim/MorphM7_06_orig.jpg,111,,,,,0,111,111,111,,,,,,,,,,,,,,,,,,,17.28515625,-13.125,1,0,0,0.769465208054,,,,,2015_Nov_07_1331,G,facesParametric,28,59.6189157649,
./stim/MorphF5_02_orig.jpg,112,,,,,0,112,112,112,,,,,,,,,,,,,,,,,,,17.28515625,-13.125,0,0,1,1.17198395729,,,,,2015_Nov_07_1331,G,facesParametric,28,59.6189157649,
./stim/MorphM7_03_orig.jpg,113,,,,,0,113,113,113,,,,,,,,,,,,,,,,,,,17.28515625,-13.125,1,0,0,2.29479908943,,,,,2015_Nov_07_1331,G,facesParametric,28,59.6189157649,
./stim/MorphM4_09_orig.jpg,114,,,,,0,114,114,114,,,,,,,,,,,,,,,,,,,17.28515625,-13.125,1,0,0,1.52405500412,,,,,2015_Nov_07_1331,G,facesParametric,28,59.6189157649,
./stim/MorphF5_10_orig.jpg,115,,,,,0,115,115,115,,,,,,,,,,,,,,,,,,,17.28515625,-13.125,1,0,0,0.918684005737,,,,,2015_Nov_07_1331,G,facesParametric,28,59.6189157649,
./stim/MorphM2_10_orig.jpg,116,,,,,0,116,116,116,,,,,,,,,,,,,,,,,,,17.28515625,-13.125,1,0,0,4.62414312363,,,,,2015_Nov_07_1331,G,facesParametric,28,59.6189157649,
./stim/MorphM1_05_orig.jpg,117,,,,,0,117,117,117,,,,,,,,,,,,,,,,,,,17.28515625,-13.125,1,0,0,1.3562669754,,,,,2015_Nov_07_1331,G,facesParametric,28,59.6189157649,
./stim/MorphF7_01_orig.jpg,118,,,,,0,118,118,118,,,,,,,,,,,,,,,,,,,17.28515625,-13.125,0,0,1,1.69148778915,,,,,2015_Nov_07_1331,G,facesParametric,28,59.6189157649,
./stim/MorphF5_00_orig.jpg,119,,,,,0,119,119,119,,,,,,,,,,,,,,,,,,,17.28515625,-13.125,0,0,1,2.68055701256,,,,,2015_Nov_07_1331,G,facesParametric,28,59.6189157649,
./stim/MorphM10_03_orig.jpg,120,,,,,0,120,120,120,,,,,,,,,,,,,,,,,,,17.28515625,-13.125,0,0,1,4.2053539753,,,,,2015_Nov_07_1331,G,facesParametric,28,59.6189157649,
./stim/MorphM7_07_orig.jpg,121,,,,,0,121,121,121,,,,,,,,,,,,,,,,,,,17.28515625,-13.125,1,0,0,0.852610111237,,,,,2015_Nov_07_1331,G,facesParametric,28,59.6189157649,
./stim/MorphF2_03_orig.jpg,122,,,,,0,122,122,122,,,,,,,,,,,,,,,,,,,17.28515625,-13.125,0,0,1,1.253647089,,,,,2015_Nov_07_1331,G,facesParametric,28,59.6189157649,
./stim/MorphM6_09_orig.jpg,123,,,,,0,123,123,123,,,,,,,,,,,,,,,,,,,17.28515625,-13.125,0,0,1,14.9487268925,,,,,2015_Nov_07_1331,G,facesParametric,28,59.6189157649,
./stim/MorphF3_03_orig.jpg,124,,,,,0,124,124,124,,,,,,,,,,,,,,,,,,,17.28515625,-13.125,0,0,1,0.400906085968,,,,,2015_Nov_07_1331,G,facesParametric,28,59.6189157649,
./stim/MorphF8_02_orig.jpg,125,,,,,0,125,125,125,,,,,,,,,,,,,,,,,,,17.28515625,-13.125,0,0,1,3.04933309555,,,,,2015_Nov_07_1331,G,facesParametric,28,59.6189157649,
./stim/MorphM3_01_orig.jpg,126,,,,,0,126,126,126,,,,,,,,,,,,,,,,,,,17.28515625,-13.125,1,0,0,0.868851900101,,,,,2015_Nov_07_1331,G,facesParametric,28,59.6189157649,
./stim/MorphF1_00_orig.jpg,127,,,,,0,127,127,127,,,,,,,,,,,,,,,,,,,17.28515625,-13.125,0,0,1,2.88093614578,,,,,2015_Nov_07_1331,G,facesParametric,28,59.6189157649,
./stim/MorphM6_00_orig.jpg,128,,,,,0,128,128,128,,,,,,,,,,,,,,,,,,,17.28515625,-13.125,0,0,1,2.09398698807,,,,,2015_Nov_07_1331,G,facesParametric,28,59.6189157649,
./stim/MorphF6_06_orig.jpg,129,,,,,0,129,129,129,,,,,,,,,,,,,,,,,,,17.28515625,-13.125,1,0,0,1.50684905052,,,,,2015_Nov_07_1331,G,facesParametric,28,59.6189157649,
./stim/MorphM1_07_orig.jpg,130,,,,,0,130,130,130,,,,,,,,,,,,,,,,,,,17.28515625,-13.125,1,0,0,0.871377944946,,,,,2015_Nov_07_1331,G,facesParametric,28,59.6189157649,
./stim/MorphF7_08_orig.jpg,131,,,,,0,131,131,131,,,,,,,,,,,,,,,,,,,17.28515625,-13.125,1,0,0,1.28808307648,,,,,2015_Nov_07_1331,G,facesParametric,28,59.6189157649,
./stim/MorphF6_05_orig.jpg,132,,,,,0,132,132,132,,,,,,,,,,,,,,,,,,,17.28515625,-13.125,1,0,0,1.59186196327,,,,,2015_Nov_07_1331,G,facesParametric,28,59.6189157649,
./stim/MorphM4_05_orig.jpg,133,,,,,0,133,133,133,,,,,,,,,,,,,,,,,,,17.28515625,-13.125,1,0,0,1.52189302444,,,,,2015_Nov_07_1331,G,facesParametric,28,59.6189157649,
./stim/MorphF7_02_orig.jpg,134,,,,,0,134,134,134,,,,,,,,,,,,,,,,,,,17.28515625,-13.125,0,0,1,3.44873595238,,,,,2015_Nov_07_1331,G,facesParametric,28,59.6189157649,
./stim/MorphM4_10_orig.jpg,135,,,,,0,135,135,135,,,,,,,,,,,,,,,,,,,17.28515625,-13.125,1,0,0,1.23933696747,,,,,2015_Nov_07_1331,G,facesParametric,28,59.6189157649,
./stim/MorphM5_08_orig.jpg,136,,,,,0,136,136,136,,,,,,,,,,,,,,,,,,,17.28515625,-13.125,1,0,0,1.87579488754,,,,,2015_Nov_07_1331,G,facesParametric,28,59.6189157649,
./stim/MorphF4_04_orig.jpg,137,,,,,0,137,137,137,,,,,,,,,,,,,,,,,,,17.28515625,-13.125,0,0,1,1.99327301979,,,,,2015_Nov_07_1331,G,facesParametric,28,59.6189157649,
./stim/MorphF9_08_orig.jpg,138,,,,,0,138,138,138,,,,,,,,,,,,,,,,,,,17.28515625,-13.125,1,0,0,3.45104312897,,,,,2015_Nov_07_1331,G,facesParametric,28,59.6189157649,
./stim/MorphF8_00_orig.jpg,139,,,,,0,139,139,139,,,,,,,,,,,,,,,,,,,17.28515625,-13.125,0,0,1,1.40684294701,,,,,2015_Nov_07_1331,G,facesParametric,28,59.6189157649,
./stim/MorphF3_08_orig.jpg,140,,,,,0,140,140,140,,,,,,,,,,,,,,,,,,,17.28515625,-13.125,1,0,0,1.08819699287,,,,,2015_Nov_07_1331,G,facesParametric,28,59.6189157649,
./stim/MorphF2_08_orig.jpg,141,,,,,0,141,141,141,,,,,,,,,,,,,,,,,,,17.28515625,-13.125,0,0,1,4.99318909645,,,,,2015_Nov_07_1331,G,facesParametric,28,59.6189157649,
./stim/MorphM1_09_orig.jpg,142,,,,,0,142,142,142,,,,,,,,,,,,,,,,,,,17.28515625,-13.125,1,0,0,1.06953692436,,,,,2015_Nov_07_1331,G,facesParametric,28,59.6189157649,
./stim/MorphF7_10_orig.jpg,143,,,,,0,143,143,143,,,,,,,,,,,,,,,,,,,17.28515625,-13.125,1,0,0,8.36154603958,,,,,2015_Nov_07_1331,G,facesParametric,28,59.6189157649,
./stim/MorphF3_00_orig.jpg,144,,,,,0,144,144,144,,,,,,,,,,,,,,,,,,,17.28515625,-13.125,0,0,1,2.15879297256,,,,,2015_Nov_07_1331,G,facesParametric,28,59.6189157649,
./stim/MorphM1_03_orig.jpg,145,,,,,0,145,145,145,,,,,,,,,,,,,,,,,,,17.28515625,-13.125,0,0,1,11.2110052109,,,,,2015_Nov_07_1331,G,facesParametric,28,59.6189157649,
./stim/MorphM3_06_orig.jpg,146,,,,,0,146,146,146,,,,,,,,,,,,,,,,,,,17.28515625,-13.125,1,0,0,1.10508298874,,,,,2015_Nov_07_1331,G,facesParametric,28,59.6189157649,
./stim/MorphM9_03_orig.jpg,147,,,,,0,147,147,147,,,,,,,,,,,,,,,,,,,17.28515625,-13.125,0,0,1,1.1365609169,,,,,2015_Nov_07_1331,G,facesParametric,28,59.6189157649,
./stim/MorphF2_05_orig.jpg,148,,,,,0,148,148,148,,,,,,,,,,,,,,,,,,,17.28515625,-13.125,0,0,1,8.74709892273,,,,,2015_Nov_07_1331,G,facesParametric,28,59.6189157649,
./stim/MorphF8_05_orig.jpg,149,,,,,0,149,149,149,,,,,,,,,,,,,,,,,,,17.28515625,-13.125,0,0,1,2.4796538353,,,,,2015_Nov_07_1331,G,facesParametric,28,59.6189157649,
./stim/MorphF10_03_orig.jpg,150,,,,,0,150,150,150,,,,,,,,,,,,,,,,,,,17.28515625,-13.125,1,0,0,3.18266582489,,,,,2015_Nov_07_1331,G,facesParametric,28,59.6189157649,
./stim/MorphM9_07_orig.jpg,151,,,,,0,151,151,151,,,,,,,,,,,,,,,,,,,17.28515625,-13.125,1,0,0,4.12170505524,,,,,2015_Nov_07_1331,G,facesParametric,28,59.6189157649,
./stim/MorphF9_01_orig.jpg,152,,,,,0,152,152,152,,,,,,,,,,,,,,,,,,,17.28515625,-13.125,0,0,1,1.80897498131,,,,,2015_Nov_07_1331,G,facesParametric,28,59.6189157649,
./stim/MorphF1_08_orig.jpg,153,,,,,0,153,153,153,,,,,,,,,,,,,,,,,,,17.28515625,-13.125,1,0,0,3.58644104004,,,,,2015_Nov_07_1331,G,facesParametric,28,59.6189157649,
./stim/MorphM6_07_orig.jpg,154,,,,,0,154,154,154,,,,,,,,,,,,,,,,,,,17.28515625,-13.125,0,0,1,3.63456082344,,,,,2015_Nov_07_1331,G,facesParametric,28,59.6189157649,
./stim/MorphF4_07_orig.jpg,155,,,,,0,155,155,155,,,,,,,,,,,,,,,,,,,17.28515625,-13.125,0,0,1,4.99400997162,,,,,2015_Nov_07_1331,G,facesParametric,28,59.6189157649,
./stim/MorphF9_05_orig.jpg,156,,,,,0,156,156,156,,,,,,,,,,,,,,,,,,,17.28515625,-13.125,0,0,1,6.634319067,,,,,2015_Nov_07_1331,G,facesParametric,28,59.6189157649,
./stim/MorphF6_08_orig.jpg,157,,,,,0,157,157,157,,,,,,,,,,,,,,,,,,,17.28515625,-13.125,1,0,0,1.10496211052,,,,,2015_Nov_07_1331,G,facesParametric,28,59.6189157649,
./stim/MorphF7_07_orig.jpg,158,,,,,0,158,158,158,,,,,,,,,,,,,,,,,,,17.28515625,-13.125,1,0,0,0.919468164444,,,,,2015_Nov_07_1331,G,facesParametric,28,59.6189157649,
./stim/MorphF9_06_orig.jpg,159,,,,,0,159,159,159,,,,,,,,,,,,,,,,,,,17.28515625,-13.125,0,0,1,1.60762810707,,,,,2015_Nov_07_1331,G,facesParametric,28,59.6189157649,
./stim/MorphF4_09_orig.jpg,160,,,,,0,160,160,160,,,,,,,,,,,,,,,,,,,17.28515625,-13.125,1,0,0,3.95392012596,,,,,2015_Nov_07_1331,G,facesParametric,28,59.6189157649,
./stim/MorphM7_05_orig.jpg,161,,,,,0,161,161,161,,,,,,,,,,,,,,,,,,,17.28515625,-13.125,1,0,0,1.02076888084,,,,,2015_Nov_07_1331,G,facesParametric,28,59.6189157649,
./stim/MorphF3_06_orig.jpg,162,,,,,0,162,162,162,,,,,,,,,,,,,,,,,,,17.28515625,-13.125,1,0,0,1.10397291183,,,,,2015_Nov_07_1331,G,facesParametric,28,59.6189157649,
./stim/MorphM4_01_orig.jpg,163,,,,,0,163,163,163,,,,,,,,,,,,,,,,,,,17.28515625,-13.125,0,0,1,3.38443803787,,,,,2015_Nov_07_1331,G,facesParametric,28,59.6189157649,
./stim/MorphM8_05_orig.jpg,164,,,,,0,164,164,164,,,,,,,,,,,,,,,,,,,17.28515625,-13.125,1,0,0,11.0591769218,,,,,2015_Nov_07_1331,G,facesParametric,28,59.6189157649,
./stim/MorphM2_07_orig.jpg,165,,,,,0,165,165,165,,,,,,,,,,,,,,,,,,,17.28515625,-13.125,0,0,1,1.99309897423,,,,,2015_Nov_07_1331,G,facesParametric,28,59.6189157649,
./stim/MorphM8_01_orig.jpg,166,,,,,0,166,166,166,,,,,,,,,,,,,,,,,,,17.28515625,-13.125,0,0,1,1.72494411469,,,,,2015_Nov_07_1331,G,facesParametric,28,59.6189157649,
./stim/MorphM9_08_orig.jpg,167,,,,,0,167,167,167,,,,,,,,,,,,,,,,,,,17.28515625,-13.125,1,0,0,1.85835599899,,,,,2015_Nov_07_1331,G,facesParametric,28,59.6189157649,
./stim/MorphF10_00_orig.jpg,168,,,,,0,168,168,168,,,,,,,,,,,,,,,,,,,17.28515625,-13.125,0,0,1,3.08267903328,,,,,2015_Nov_07_1331,G,facesParametric,28,59.6189157649,
./stim/MorphM5_04_orig.jpg,169,,,,,0,169,169,169,,,,,,,,,,,,,,,,,,,17.28515625,-13.125,1,0,0,4.28890109062,,,,,2015_Nov_07_1331,G,facesParametric,28,59.6189157649,
./stim/MorphM8_03_orig.jpg,170,,,,,0,170,170,170,,,,,,,,,,,,,,,,,,,17.28515625,-13.125,0,0,1,6.61833906174,,,,,2015_Nov_07_1331,G,facesParametric,28,59.6189157649,
./stim/MorphM7_01_orig.jpg,171,,,,,0,171,171,171,,,,,,,,,,,,,,,,,,,17.28515625,-13.125,1,0,0,4.45455121994,,,,,2015_Nov_07_1331,G,facesParametric,28,59.6189157649,
./stim/MorphM10_04_orig.jpg,172,,,,,0,172,172,172,,,,,,,,,,,,,,,,,,,17.28515625,-13.125,1,0,0,1.23927402496,,,,,2015_Nov_07_1331,G,facesParametric,28,59.6189157649,
./stim/MorphF3_05_orig.jpg,173,,,,,0,173,173,173,,,,,,,,,,,,,,,,,,,17.28515625,-13.125,1,0,0,1.6075720787,,,,,2015_Nov_07_1331,G,facesParametric,28,59.6189157649,
./stim/MorphF2_07_orig.jpg,174,,,,,0,174,174,174,,,,,,,,,,,,,,,,,,,17.28515625,-13.125,0,0,1,2.41111016273,,,,,2015_Nov_07_1331,G,facesParametric,28,59.6189157649,
./stim/MorphF9_09_orig.jpg,175,,,,,0,175,175,175,,,,,,,,,,,,,,,,,,,17.28515625,-13.125,0,0,1,2.61281514168,,,,,2015_Nov_07_1331,G,facesParametric,28,59.6189157649,
./stim/MorphF3_02_orig.jpg,176,,,,,0,176,176,176,,,,,,,,,,,,,,,,,,,17.28515625,-13.125,0,0,1,2.54617500305,,,,,2015_Nov_07_1331,G,facesParametric,28,59.6189157649,
./stim/MorphM9_02_orig.jpg,177,,,,,0,177,177,177,,,,,,,,,,,,,,,,,,,17.28515625,-13.125,0,0,1,1.28955388069,,,,,2015_Nov_07_1331,G,facesParametric,28,59.6189157649,
./stim/MorphF5_05_orig.jpg,178,,,,,0,178,178,178,,,,,,,,,,,,,,,,,,,17.28515625,-13.125,1,0,0,1.13832998276,,,,,2015_Nov_07_1331,G,facesParametric,28,59.6189157649,
./stim/MorphM7_04_orig.jpg,179,,,,,0,179,179,179,,,,,,,,,,,,,,,,,,,17.28515625,-13.125,1,0,0,1.1385910511,,,,,2015_Nov_07_1331,G,facesParametric,28,59.6189157649,
./stim/MorphM8_00_orig.jpg,180,,,,,0,180,180,180,,,,,,,,,,,,,,,,,,,17.28515625,-13.125,0,0,1,3.60210204124,,,,,2015_Nov_07_1331,G,facesParametric,28,59.6189157649,
./stim/MorphM6_02_orig.jpg,181,,,,,0,181,181,181,,,,,,,,,,,,,,,,,,,17.28515625,-13.125,0,0,1,2.41042804718,,,,,2015_Nov_07_1331,G,facesParametric,28,59.6189157649,
./stim/MorphF6_07_orig.jpg,182,,,,,0,182,182,182,,,,,,,,,,,,,,,,,,,17.28515625,-13.125,1,0,0,1.2398250103,,,,,2015_Nov_07_1331,G,facesParametric,28,59.6189157649,
./stim/MorphF10_01_orig.jpg,183,,,,,0,183,183,183,,,,,,,,,,,,,,,,,,,17.28515625,-13.125,0,0,1,5.71341013908,,,,,2015_Nov_07_1331,G,facesParametric,28,59.6189157649,
./stim/MorphF8_06_orig.jpg,184,,,,,0,184,184,184,,,,,,,,,,,,,,,,,,,17.28515625,-13.125,1,0,0,2.44457912445,,,,,2015_Nov_07_1331,G,facesParametric,28,59.6189157649,
./stim/MorphM1_02_orig.jpg,185,,,,,0,185,185,185,,,,,,,,,,,,,,,,,,,17.28515625,-13.125,1,0,0,0.903174877167,,,,,2015_Nov_07_1331,G,facesParametric,28,59.6189157649,
./stim/MorphF1_04_orig.jpg,186,,,,,0,186,186,186,,,,,,,,,,,,,,,,,,,17.28515625,-13.125,0,0,1,2.41004681587,,,,,2015_Nov_07_1331,G,facesParametric,28,59.6189157649,
./stim/MorphM10_07_orig.jpg,187,,,,,0,187,187,187,,,,,,,,,,,,,,,,,,,17.28515625,-13.125,1,0,0,1.10486984253,,,,,2015_Nov_07_1331,G,facesParametric,28,59.6189157649,
./stim/MorphF5_07_orig.jpg,188,,,,,0,188,188,188,,,,,,,,,,,,,,,,,,,17.28515625,-13.125,1,0,0,0.818764925003,,,,,2015_Nov_07_1331,G,facesParametric,28,59.6189157649,
./stim/MorphF1_01_orig.jpg,189,,,,,0,189,189,189,,,,,,,,,,,,,,,,,,,17.28515625,-13.125,0,0,1,2.74734401703,,,,,2015_Nov_07_1331,G,facesParametric,28,59.6189157649,
./stim/MorphM5_10_orig.jpg,190,,,,,0,190,190,190,,,,,,,,,,,,,,,,,,,17.28515625,-13.125,1,0,0,0.987758159637,,,,,2015_Nov_07_1331,G,facesParametric,28,59.6189157649,
./stim/MorphF8_03_orig.jpg,191,,,,,0,191,191,191,,,,,,,,,,,,,,,,,,,17.28515625,-13.125,0,0,1,1.75789904594,,,,,2015_Nov_07_1331,G,facesParametric,28,59.6189157649,
./stim/MorphF6_02_orig.jpg,192,,,,,0,192,192,192,,,,,,,,,,,,,,,,,,,17.28515625,-13.125,0,0,1,8.73062181473,,,,,2015_Nov_07_1331,G,facesParametric,28,59.6189157649,
./stim/MorphM10_10_orig.jpg,193,,,,,0,193,193,193,,,,,,,,,,,,,,,,,,,17.28515625,-13.125,1,0,0,0.937022924423,,,,,2015_Nov_07_1331,G,facesParametric,28,59.6189157649,
./stim/MorphF2_06_orig.jpg,194,,,,,0,194,194,194,,,,,,,,,,,,,,,,,,,17.28515625,-13.125,0,0,1,4.75853300095,,,,,2015_Nov_07_1331,G,facesParametric,28,59.6189157649,
./stim/MorphM5_03_orig.jpg,195,,,,,0,195,195,195,,,,,,,,,,,,,,,,,,,17.28515625,-13.125,1,0,0,0.987699985504,,,,,2015_Nov_07_1331,G,facesParametric,28,59.6189157649,
./stim/MorphF7_05_orig.jpg,196,,,,,0,196,196,196,,,,,,,,,,,,,,,,,,,17.28515625,-13.125,0,0,1,22.2724750042,,,,,2015_Nov_07_1331,G,facesParametric,28,59.6189157649,
./stim/MorphF10_05_orig.jpg,197,,,,,0,197,197,197,,,,,,,,,,,,,,,,,,,17.28515625,-13.125,1,0,0,1.07080101967,,,,,2015_Nov_07_1331,G,facesParametric,28,59.6189157649,
./stim/MorphF7_09_orig.jpg,198,,,,,0,198,198,198,,,,,,,,,,,,,,,,,,,17.28515625,-13.125,1,0,0,0.886322975159,,,,,2015_Nov_07_1331,G,facesParametric,28,59.6189157649,
./stim/MorphM7_10_orig.jpg,199,,,,,0,199,199,199,,,,,,,,,,,,,,,,,,,17.28515625,-13.125,1,0,0,0.784510850906,,,,,2015_Nov_07_1331,G,facesParametric,28,59.6189157649,
./stim/MorphF2_10_orig.jpg,200,,,,,0,200,200,200,,,,,,,,,,,,,,,,,,,17.28515625,-13.125,1,0,0,3.41728210449,,,,,2015_Nov_07_1331,G,facesParametric,28,59.6189157649,
./stim/MorphM1_00_orig.jpg,201,,,,,0,201,201,201,,,,,,,,,,,,,,,,,,,17.28515625,-13.125,0,0,1,3.31752300262,,,,,2015_Nov_07_1331,G,facesParametric,28,59.6189157649,
./stim/MorphF4_00_orig.jpg,202,,,,,0,202,202,202,,,,,,,,,,,,,,,,,,,17.28515625,-13.125,0,0,1,4.22273397446,,,,,2015_Nov_07_1331,G,facesParametric,28,59.6189157649,
./stim/MorphM10_06_orig.jpg,203,,,,,0,203,203,203,,,,,,,,,,,,,,,,,,,17.28515625,-13.125,1,0,0,0.835886001587,,,,,2015_Nov_07_1331,G,facesParametric,28,59.6189157649,
./stim/MorphM8_09_orig.jpg,204,,,,,0,204,204,204,,,,,,,,,,,,,,,,,,,17.28515625,-13.125,1,0,0,1.50684499741,,,,,2015_Nov_07_1331,G,facesParametric,28,59.6189157649,
./stim/MorphM3_10_orig.jpg,205,,,,,0,205,205,205,,,,,,,,,,,,,,,,,,,17.28515625,-13.125,1,0,0,0.903813838959,,,,,2015_Nov_07_1331,G,facesParametric,28,59.6189157649,
./stim/MorphM8_08_orig.jpg,206,,,,,0,206,206,206,,,,,,,,,,,,,,,,,,,17.28515625,-13.125,1,0,0,1.45510411263,,,,,2015_Nov_07_1331,G,facesParametric,28,59.6189157649,
./stim/MorphF1_03_orig.jpg,207,,,,,0,207,207,207,,,,,,,,,,,,,,,,,,,17.28515625,-13.125,0,0,1,2.16097807884,,,,,2015_Nov_07_1331,G,facesParametric,28,59.6189157649,
./stim/MorphF3_07_orig.jpg,208,,,,,0,208,208,208,,,,,,,,,,,,,,,,,,,17.28515625,-13.125,1,0,0,1.13667583466,,,,,2015_Nov_07_1331,G,facesParametric,28,59.6189157649,
./stim/MorphF6_00_orig.jpg,209,,,,,0,209,209,209,,,,,,,,,,,,,,,,,,,17.28515625,-13.125,0,0,1,1.65749907494,,,,,2015_Nov_07_1331,G,facesParametric,28,59.6189157649,
./stim/MorphM9_09_orig.jpg,210,,,,,0,210,210,210,,,,,,,,,,,,,,,,,,,17.28515625,-13.125,1,0,0,1.10486602783,,,,,2015_Nov_07_1331,G,facesParametric,28,59.6189157649,
./stim/MorphM3_04_orig.jpg,211,,,,,0,211,211,211,,,,,,,,,,,,,,,,,,,17.28515625,-13.125,1,0,0,0.887033224106,,,,,2015_Nov_07_1331,G,facesParametric,28,59.6189157649,
./stim/MorphM2_02_orig.jpg,212,,,,,0,212,212,212,,,,,,,,,,,,,,,,,,,17.28515625,-13.125,0,0,1,1.54098701477,,,,,2015_Nov_07_1331,G,facesParametric,28,59.6189157649,
./stim/MorphM8_02_orig.jpg,213,,,,,0,213,213,213,,,,,,,,,,,,,,,,,,,17.28515625,-13.125,0,0,1,1.42248010635,,,,,2015_Nov_07_1331,G,facesParametric,28,59.6189157649,
./stim/MorphM2_01_orig.jpg,214,,,,,0,214,214,214,,,,,,,,,,,,,,,,,,,17.28515625,-13.125,0,0,1,3.41584897041,,,,,2015_Nov_07_1331,G,facesParametric,28,59.6189157649,
./stim/MorphM4_00_orig.jpg,215,,,,,0,215,215,215,,,,,,,,,,,,,,,,,,,17.28515625,-13.125,0,0,1,1.62478804588,,,,,2015_Nov_07_1331,G,facesParametric,28,59.6189157649,
./stim/MorphM10_09_orig.jpg,216,,,,,0,216,216,216,,,,,,,,,,,,,,,,,,,17.28515625,-13.125,1,0,0,1.11948204041,,,,,2015_Nov_07_1331,G,facesParametric,28,59.6189157649,
./stim/MorphM4_07_orig.jpg,217,,,,,0,217,217,217,,,,,,,,,,,,,,,,,,,17.28515625,-13.125,1,0,0,1.02116894722,,,,,2015_Nov_07_1331,G,facesParametric,28,59.6189157649,
./stim/MorphF6_03_orig.jpg,218,,,,,0,218,218,218,,,,,,,,,,,,,,,,,,,17.28515625,-13.125,0,0,1,1.55765795708,,,,,2015_Nov_07_1331,G,facesParametric,28,59.6189157649,
./stim/MorphF3_04_orig.jpg,219,,,,,0,219,219,219,,,,,,,,,,,,,,,,,,,17.28515625,-13.125,0,0,1,1.26966786385,,,,,2015_Nov_07_1331,G,facesParametric,28,59.6189157649,
,,,,,,,,,,,,,,,,,,,,,,,,,,,,,,,,,,return,7.40789198875,,,2015_Nov_07_1331,G,facesParametric,28,59.6189157649,
./stim/MorphF8_07_orig.jpg,0,,,,,,,,,0,0,0,0,,,,,,,,,,,,,,,17.28515625,-13.125,1,0,0,7.36507081985,,,,,2015_Nov_07_1331,G,facesParametric,28,59.6189157649,
./stim/MorphF10_03_orig.jpg,1,,,,,,,,,0,1,1,1,,,,,,,,,,,,,,,17.28515625,-13.125,1,0,0,2.77888202667,,,,,2015_Nov_07_1331,G,facesParametric,28,59.6189157649,
./stim/MorphF7_10_orig.jpg,2,,,,,,,,,0,2,2,2,,,,,,,,,,,,,,,17.28515625,-13.125,1,0,0,0.718945980072,,,,,2015_Nov_07_1331,G,facesParametric,28,59.6189157649,
./stim/MorphM2_01_orig.jpg,3,,,,,,,,,0,3,3,3,,,,,,,,,,,,,,,17.28515625,-13.125,0,0,1,1.28845095634,,,,,2015_Nov_07_1331,G,facesParametric,28,59.6189157649,
./stim/MorphM8_05_orig.jpg,4,,,,,,,,,0,4,4,4,,,,,,,,,,,,,,,17.28515625,-13.125,0,0,1,1.32353782654,,,,,2015_Nov_07_1331,G,facesParametric,28,59.6189157649,
./stim/MorphF2_03_orig.jpg,5,,,,,,,,,0,5,5,5,,,,,,,,,,,,,,,17.28515625,-13.125,0,0,1,1.47311496735,,,,,2015_Nov_07_1331,G,facesParametric,28,59.6189157649,
./stim/MorphM10_07_orig.jpg,6,,,,,,,,,0,6,6,6,,,,,,,,,,,,,,,17.28515625,-13.125,1,0,0,0.852190971375,,,,,2015_Nov_07_1331,G,facesParametric,28,59.6189157649,
./stim/MorphF10_08_orig.jpg,7,,,,,,,,,0,7,7,7,,,,,,,,,,,,,,,17.28515625,-13.125,1,0,0,0.801933050156,,,,,2015_Nov_07_1331,G,facesParametric,28,59.6189157649,
./stim/MorphF9_03_orig.jpg,8,,,,,,,,,0,8,8,8,,,,,,,,,,,,,,,17.28515625,-13.125,0,0,1,1.38868403435,,,,,2015_Nov_07_1331,G,facesParametric,28,59.6189157649,
./stim/MorphF5_01_orig.jpg,9,,,,,,,,,0,9,9,9,,,,,,,,,,,,,,,17.28515625,-13.125,0,0,1,0.937174081802,,,,,2015_Nov_07_1331,G,facesParametric,28,59.6189157649,
./stim/MorphM2_05_orig.jpg,10,,,,,,,,,0,10,10,10,,,,,,,,,,,,,,,17.28515625,-13.125,0,0,1,1.57411003113,,,,,2015_Nov_07_1331,G,facesParametric,28,59.6189157649,
./stim/MorphF6_07_orig.jpg,11,,,,,,,,,0,11,11,11,,,,,,,,,,,,,,,17.28515625,-13.125,1,0,0,0.818046092987,,,,,2015_Nov_07_1331,G,facesParametric,28,59.6189157649,
./stim/MorphM3_09_orig.jpg,12,,,,,,,,,0,12,12,12,,,,,,,,,,,,,,,17.28515625,-13.125,1,0,0,0.702685117722,,,,,2015_Nov_07_1331,G,facesParametric,28,59.6189157649,
./stim/MorphF3_02_orig.jpg,13,,,,,,,,,0,13,13,13,,,,,,,,,,,,,,,17.28515625,-13.125,0,0,1,1.87576293945,,,,,2015_Nov_07_1331,G,facesParametric,28,59.6189157649,
./stim/MorphM6_05_orig.jpg,14,,,,,,,,,0,14,14,14,,,,,,,,,,,,,,,17.28515625,-13.125,0,0,1,0.904182195663,,,,,2015_Nov_07_1331,G,facesParametric,28,59.6189157649,
./stim/MorphM1_00_orig.jpg,15,,,,,,,,,0,15,15,15,,,,,,,,,,,,,,,17.28515625,-13.125,0,0,1,1.30480098724,,,,,2015_Nov_07_1331,G,facesParametric,28,59.6189157649,
./stim/MorphM5_06_orig.jpg,16,,,,,,,,,0,16,16,16,,,,,,,,,,,,,,,17.28515625,-13.125,1,0,0,0.937412977219,,,,,2015_Nov_07_1331,G,facesParametric,28,59.6189157649,
./stim/MorphF4_00_orig.jpg,17,,,,,,,,,0,17,17,17,,,,,,,,,,,,,,,17.28515625,-13.125,0,0,1,1.62483811378,,,,,2015_Nov_07_1331,G,facesParametric,28,59.6189157649,
./stim/MorphF3_00_orig.jpg,18,,,,,,,,,0,18,18,18,,,,,,,,,,,,,,,17.28515625,-13.125,0,0,1,1.30560803413,,,,,2015_Nov_07_1331,G,facesParametric,28,59.6189157649,
./stim/MorphF9_07_orig.jpg,19,,,,,,,,,0,19,19,19,,,,,,,,,,,,,,,17.28515625,-13.125,0,0,1,1.18867087364,,,,,2015_Nov_07_1331,G,facesParametric,28,59.6189157649,
./stim/MorphM5_04_orig.jpg,20,,,,,,,,,0,20,20,20,,,,,,,,,,,,,,,17.28515625,-13.125,1,0,0,1.17010903358,,,,,2015_Nov_07_1331,G,facesParametric,28,59.6189157649,
./stim/MorphM4_02_orig.jpg,21,,,,,,,,,0,21,21,21,,,,,,,,,,,,,,,17.28515625,-13.125,0,0,1,8.57981204987,,,,,2015_Nov_07_1331,G,facesParametric,28,59.6189157649,
./stim/MorphM2_00_orig.jpg,22,,,,,,,,,0,22,22,22,,,,,,,,,,,,,,,17.28515625,-13.125,0,0,1,0.836602926254,,,,,2015_Nov_07_1331,G,facesParametric,28,59.6189157649,
./stim/MorphM8_02_orig.jpg,23,,,,,,,,,0,23,23,23,,,,,,,,,,,,,,,17.28515625,-13.125,0,0,1,1.06969499588,,,,,2015_Nov_07_1331,G,facesParametric,28,59.6189157649,
./stim/MorphM5_01_orig.jpg,24,,,,,,,,,0,24,24,24,,,,,,,,,,,,,,,17.28515625,-13.125,1,0,0,1.03854084015,,,,,2015_Nov_07_1331,G,facesParametric,28,59.6189157649,
./stim/MorphF7_02_orig.jpg,25,,,,,,,,,0,25,25,25,,,,,,,,,,,,,,,17.28515625,-13.125,0,0,1,1.55465102196,,,,,2015_Nov_07_1331,G,facesParametric,28,59.6189157649,
./stim/MorphF4_01_orig.jpg,26,,,,,,,,,0,26,26,26,,,,,,,,,,,,,,,17.28515625,-13.125,0,0,1,1.05480122566,,,,,2015_Nov_07_1331,G,facesParametric,28,59.6189157649,
./stim/MorphM5_03_orig.jpg,27,,,,,,,,,0,27,27,27,,,,,,,,,,,,,,,17.28515625,-13.125,1,0,0,1.4732170105,,,,,2015_Nov_07_1331,G,facesParametric,28,59.6189157649,
./stim/MorphF5_03_orig.jpg,28,,,,,,,,,0,28,28,28,,,,,,,,,,,,,,,17.28515625,-13.125,0,0,1,1.07148814201,,,,,2015_Nov_07_1331,G,facesParametric,28,59.6189157649,
./stim/MorphM1_06_orig.jpg,29,,,,,,,,,0,29,29,29,,,,,,,,,,,,,,,17.28515625,-13.125,1,0,0,0.953951835632,,,,,2015_Nov_07_1331,G,facesParametric,28,59.6189157649,
./stim/MorphM7_02_orig.jpg,30,,,,,,,,,0,30,30,30,,,,,,,,,,,,,,,17.28515625,-13.125,1,0,0,1.12213587761,,,,,2015_Nov_07_1331,G,facesParametric,28,59.6189157649,
./stim/MorphM5_02_orig.jpg,31,,,,,,,,,0,31,31,31,,,,,,,,,,,,,,,17.28515625,-13.125,1,0,0,1.23658585548,,,,,2015_Nov_07_1331,G,facesParametric,28,59.6189157649,
./stim/MorphM2_08_orig.jpg,32,,,,,,,,,0,32,32,32,,,,,,,,,,,,,,,17.28515625,-13.125,1,0,0,1.39089584351,,,,,2015_Nov_07_1331,G,facesParametric,28,59.6189157649,
./stim/MorphF2_09_orig.jpg,33,,,,,,,,,0,33,33,33,,,,,,,,,,,,,,,17.28515625,-13.125,1,0,0,1.28777980804,,,,,2015_Nov_07_1331,G,facesParametric,28,59.6189157649,
./stim/MorphM7_09_orig.jpg,34,,,,,,,,,0,34,34,34,,,,,,,,,,,,,,,17.28515625,-13.125,1,0,0,2.26131701469,,,,,2015_Nov_07_1331,G,facesParametric,28,59.6189157649,
./stim/MorphM3_08_orig.jpg,35,,,,,,,,,0,35,35,35,,,,,,,,,,,,,,,17.28515625,-13.125,1,0,0,0.853527069092,,,,,2015_Nov_07_1331,G,facesParametric,28,59.6189157649,
./stim/MorphM8_08_orig.jpg,36,,,,,,,,,0,36,36,36,,,,,,,,,,,,,,,17.28515625,-13.125,1,0,0,1.2384428978,,,,,2015_Nov_07_1331,G,facesParametric,28,59.6189157649,
./stim/MorphF6_04_orig.jpg,37,,,,,,,,,0,37,37,37,,,,,,,,,,,,,,,17.28515625,-13.125,0,0,1,3.19990086555,,,,,2015_Nov_07_1331,G,facesParametric,28,59.6189157649,
./stim/MorphF2_10_orig.jpg,38,,,,,,,,,0,38,38,38,,,,,,,,,,,,,,,17.28515625,-13.125,1,0,0,1.28930211067,,,,,2015_Nov_07_1331,G,facesParametric,28,59.6189157649,
./stim/MorphF6_09_orig.jpg,39,,,,,,,,,0,39,39,39,,,,,,,,,,,,,,,17.28515625,-13.125,1,0,0,1.13745903969,,,,,2015_Nov_07_1331,G,facesParametric,28,59.6189157649,
./stim/MorphM3_01_orig.jpg,40,,,,,,,,,0,40,40,40,,,,,,,,,,,,,,,17.28515625,-13.125,1,0,0,1.20515012741,,,,,2015_Nov_07_1331,G,facesParametric,28,59.6189157649,
./stim/MorphM4_03_orig.jpg,41,,,,,,,,,0,41,41,41,,,,,,,,,,,,,,,17.28515625,-13.125,0,0,1,2.6465651989,,,,,2015_Nov_07_1331,G,facesParametric,28,59.6189157649,
./stim/MorphM10_02_orig.jpg,42,,,,,,,,,0,42,42,42,,,,,,,,,,,,,,,17.28515625,-13.125,0,0,1,1.3897819519,,,,,2015_Nov_07_1331,G,facesParametric,28,59.6189157649,
./stim/MorphF6_10_orig.jpg,43,,,,,,,,,0,43,43,43,,,,,,,,,,,,,,,17.28515625,-13.125,1,0,0,1.15497207642,,,,,2015_Nov_07_1331,G,facesParametric,28,59.6189157649,
./stim/MorphM3_00_orig.jpg,44,,,,,,,,,0,44,44,44,,,,,,,,,,,,,,,17.28515625,-13.125,1,0,0,0.786301136017,,,,,2015_Nov_07_1331,G,facesParametric,28,59.6189157649,
./stim/MorphF1_08_orig.jpg,45,,,,,,,,,0,45,45,45,,,,,,,,,,,,,,,17.28515625,-13.125,0,0,1,2.69711089134,,,,,2015_Nov_07_1331,G,facesParametric,28,59.6189157649,
./stim/MorphF7_01_orig.jpg,46,,,,,,,,,0,46,46,46,,,,,,,,,,,,,,,17.28515625,-13.125,0,0,1,1.89258003235,,,,,2015_Nov_07_1331,G,facesParametric,28,59.6189157649,
./stim/MorphF2_07_orig.jpg,47,,,,,,,,,0,47,47,47,,,,,,,,,,,,,,,17.28515625,-13.125,1,0,0,1.1720328331,,,,,2015_Nov_07_1331,G,facesParametric,28,59.6189157649,
./stim/MorphM4_06_orig.jpg,48,,,,,,,,,0,48,48,48,,,,,,,,,,,,,,,17.28515625,-13.125,1,0,0,2.31278300285,,,,,2015_Nov_07_1331,G,facesParametric,28,59.6189157649,
./stim/MorphM9_04_orig.jpg,49,,,,,,,,,0,49,49,49,,,,,,,,,,,,,,,17.28515625,-13.125,0,0,1,3.83471608162,,,,,2015_Nov_07_1331,G,facesParametric,28,59.6189157649,
./stim/MorphM4_07_orig.jpg,50,,,,,,,,,0,50,50,50,,,,,,,,,,,,,,,17.28515625,-13.125,1,0,0,0.751734018326,,,,,2015_Nov_07_1331,G,facesParametric,28,59.6189157649,
./stim/MorphF1_04_orig.jpg,51,,,,,,,,,0,51,51,51,,,,,,,,,,,,,,,17.28515625,-13.125,0,0,1,0.988187074661,,,,,2015_Nov_07_1331,G,facesParametric,28,59.6189157649,
./stim/MorphF6_00_orig.jpg,52,,,,,,,,,0,52,52,52,,,,,,,,,,,,,,,17.28515625,-13.125,0,0,1,1.22003793716,,,,,2015_Nov_07_1331,G,facesParametric,28,59.6189157649,
./stim/MorphF8_02_orig.jpg,53,,,,,,,,,0,53,53,53,,,,,,,,,,,,,,,17.28515625,-13.125,0,0,1,1.15376091003,,,,,2015_Nov_07_1331,G,facesParametric,28,59.6189157649,
./stim/MorphM8_03_orig.jpg,54,,,,,,,,,0,54,54,54,,,,,,,,,,,,,,,17.28515625,-13.125,0,0,1,1.07020807266,,,,,2015_Nov_07_1331,G,facesParametric,28,59.6189157649,
./stim/MorphM4_05_orig.jpg,55,,,,,,,,,0,55,55,55,,,,,,,,,,,,,,,17.28515625,-13.125,1,0,0,1.28794503212,,,,,2015_Nov_07_1331,G,facesParametric,28,59.6189157649,
./stim/MorphM10_10_orig.jpg,56,,,,,,,,,0,56,56,56,,,,,,,,,,,,,,,17.28515625,-13.125,1,0,0,0.971088886261,,,,,2015_Nov_07_1331,G,facesParametric,28,59.6189157649,
./stim/MorphM5_08_orig.jpg,57,,,,,,,,,0,57,57,57,,,,,,,,,,,,,,,17.28515625,-13.125,1,0,0,0.902868032455,,,,,2015_Nov_07_1331,G,facesParametric,28,59.6189157649,
./stim/MorphF7_07_orig.jpg,58,,,,,,,,,0,58,58,58,,,,,,,,,,,,,,,17.28515625,-13.125,1,0,0,3.76915097237,,,,,2015_Nov_07_1331,G,facesParametric,28,59.6189157649,
./stim/MorphF9_09_orig.jpg,59,,,,,,,,,0,59,59,59,,,,,,,,,,,,,,,17.28515625,-13.125,0,0,1,1.33963108063,,,,,2015_Nov_07_1331,G,facesParametric,28,59.6189157649,
./stim/MorphF3_09_orig.jpg,60,,,,,,,,,0,60,60,60,,,,,,,,,,,,,,,17.28515625,-13.125,1,0,0,1.12076807022,,,,,2015_Nov_07_1331,G,facesParametric,28,59.6189157649,
./stim/MorphM9_09_orig.jpg,61,,,,,,,,,0,61,61,61,,,,,,,,,,,,,,,17.28515625,-13.125,0,0,1,3.50148105621,,,,,2015_Nov_07_1331,G,facesParametric,28,59.6189157649,
./stim/MorphM3_04_orig.jpg,62,,,,,,,,,0,62,62,62,,,,,,,,,,,,,,,17.28515625,-13.125,1,0,0,0.920295000076,,,,,2015_Nov_07_1331,G,facesParametric,28,59.6189157649,
./stim/MorphF10_05_orig.jpg,63,,,,,,,,,0,63,63,63,,,,,,,,,,,,,,,17.28515625,-13.125,1,0,0,0.853074073792,,,,,2015_Nov_07_1331,G,facesParametric,28,59.6189157649,
./stim/MorphM7_08_orig.jpg,64,,,,,,,,,0,64,64,64,,,,,,,,,,,,,,,17.28515625,-13.125,1,0,0,0.853724002838,,,,,2015_Nov_07_1331,G,facesParametric,28,59.6189157649,
./stim/MorphM6_09_orig.jpg,65,,,,,,,,,0,65,65,65,,,,,,,,,,,,,,,17.28515625,-13.125,0,0,1,2.9486579895,,,,,2015_Nov_07_1331,G,facesParametric,28,59.6189157649,
./stim/MorphM1_03_orig.jpg,66,,,,,,,,,0,66,66,66,,,,,,,,,,,,,,,17.28515625,-13.125,0,0,1,3.45115184784,,,,,2015_Nov_07_1331,G,facesParametric,28,59.6189157649,
./stim/MorphM7_07_orig.jpg,67,,,,,,,,,0,67,67,67,,,,,,,,,,,,,,,17.28515625,-13.125,1,0,0,0.886604070663,,,,,2015_Nov_07_1331,G,facesParametric,28,59.6189157649,
./stim/MorphF1_10_orig.jpg,68,,,,,,,,,0,68,68,68,,,,,,,,,,,,,,,17.28515625,-13.125,1,0,0,3.48530101776,,,,,2015_Nov_07_1331,G,facesParametric,28,59.6189157649,
./stim/MorphF4_08_orig.jpg,69,,,,,,,,,0,69,69,69,,,,,,,,,,,,,,,17.28515625,-13.125,1,0,0,6.33391618729,,,,,2015_Nov_07_1331,G,facesParametric,28,59.6189157649,
./stim/MorphM10_04_orig.jpg,70,,,,,,,,,0,70,70,70,,,,,,,,,,,,,,,17.28515625,-13.125,0,0,1,2.40996003151,,,,,2015_Nov_07_1331,G,facesParametric,28,59.6189157649,
./stim/MorphM5_07_orig.jpg,71,,,,,,,,,0,71,71,71,,,,,,,,,,,,,,,17.28515625,-13.125,1,0,0,0.853919029236,,,,,2015_Nov_07_1331,G,facesParametric,28,59.6189157649,
./stim/MorphM6_06_orig.jpg,72,,,,,,,,,0,72,72,72,,,,,,,,,,,,,,,17.28515625,-13.125,0,0,1,2.69460201263,,,,,2015_Nov_07_1331,G,facesParametric,28,59.6189157649,
./stim/MorphM10_09_orig.jpg,73,,,,,,,,,0,73,73,73,,,,,,,,,,,,,,,17.28515625,-13.125,1,0,0,1.90927696228,,,,,2015_Nov_07_1331,G,facesParametric,28,59.6189157649,
./stim/MorphF6_05_orig.jpg,74,,,,,,,,,0,74,74,74,,,,,,,,,,,,,,,17.28515625,-13.125,0,0,1,3.01599502563,,,,,2015_Nov_07_1331,G,facesParametric,28,59.6189157649,
./stim/MorphF9_10_orig.jpg,75,,,,,,,,,0,75,75,75,,,,,,,,,,,,,,,17.28515625,-13.125,0,0,1,3.0832760334,,,,,2015_Nov_07_1331,G,facesParametric,28,59.6189157649,
./stim/MorphM2_02_orig.jpg,76,,,,,,,,,0,76,76,76,,,,,,,,,,,,,,,17.28515625,-13.125,0,0,1,0.886337041855,,,,,2015_Nov_07_1331,G,facesParametric,28,59.6189157649,
./stim/MorphM6_03_orig.jpg,77,,,,,,,,,0,77,77,77,,,,,,,,,,,,,,,17.28515625,-13.125,0,0,1,0.903782844543,,,,,2015_Nov_07_1331,G,facesParametric,28,59.6189157649,
./stim/MorphM7_05_orig.jpg,78,,,,,,,,,0,78,78,78,,,,,,,,,,,,,,,17.28515625,-13.125,1,0,0,1.69033908844,,,,,2015_Nov_07_1331,G,facesParametric,28,59.6189157649,
./stim/MorphF5_08_orig.jpg,79,,,,,,,,,0,79,79,79,,,,,,,,,,,,,,,17.28515625,-13.125,1,0,0,0.853056907654,,,,,2015_Nov_07_1331,G,facesParametric,28,59.6189157649,
./stim/MorphF4_04_orig.jpg,80,,,,,,,,,0,80,80,80,,,,,,,,,,,,,,,17.28515625,-13.125,0,0,1,5.07706809044,,,,,2015_Nov_07_1331,G,facesParametric,28,59.6189157649,
./stim/MorphM9_00_orig.jpg,81,,,,,,,,,0,81,81,81,,,,,,,,,,,,,,,17.28515625,-13.125,0,0,1,0.937115907669,,,,,2015_Nov_07_1331,G,facesParametric,28,59.6189157649,
./stim/MorphM10_01_orig.jpg,82,,,,,,,,,0,82,82,82,,,,,,,,,,,,,,,17.28515625,-13.125,0,0,1,1.22101402283,,,,,2015_Nov_07_1331,G,facesParametric,28,59.6189157649,
./stim/MorphF8_08_orig.jpg,83,,,,,,,,,0,83,83,83,,,,,,,,,,,,,,,17.28515625,-13.125,1,0,0,1.03792405128,,,,,2015_Nov_07_1331,G,facesParametric,28,59.6189157649,
./stim/MorphF3_05_orig.jpg,84,,,,,,,,,0,84,84,84,,,,,,,,,,,,,,,17.28515625,-13.125,1,0,0,2.22756314278,,,,,2015_Nov_07_1331,G,facesParametric,28,59.6189157649,
./stim/MorphF2_05_orig.jpg,85,,,,,,,,,0,85,85,85,,,,,,,,,,,,,,,17.28515625,-13.125,1,0,0,3.48483395576,,,,,2015_Nov_07_1331,G,facesParametric,28,59.6189157649,
./stim/MorphF7_08_orig.jpg,86,,,,,,,,,0,86,86,86,,,,,,,,,,,,,,,17.28515625,-13.125,1,0,0,0.870054006577,,,,,2015_Nov_07_1331,G,facesParametric,28,59.6189157649,
./stim/MorphF8_00_orig.jpg,87,,,,,,,,,0,87,87,87,,,,,,,,,,,,,,,17.28515625,-13.125,0,0,1,1.11934900284,,,,,2015_Nov_07_1331,G,facesParametric,28,59.6189157649,
./stim/MorphM1_02_orig.jpg,88,,,,,,,,,0,88,88,88,,,,,,,,,,,,,,,17.28515625,-13.125,0,0,1,1.95944714546,,,,,2015_Nov_07_1331,G,facesParametric,28,59.6189157649,
./stim/MorphM3_10_orig.jpg,89,,,,,,,,,0,89,89,89,,,,,,,,,,,,,,,17.28515625,-13.125,1,0,0,0.88633108139,,,,,2015_Nov_07_1331,G,facesParametric,28,59.6189157649,
./stim/MorphM8_06_orig.jpg,90,,,,,,,,,0,90,90,90,,,,,,,,,,,,,,,17.28515625,-13.125,1,0,0,1.79093813896,,,,,2015_Nov_07_1331,G,facesParametric,28,59.6189157649,
./stim/MorphM10_03_orig.jpg,91,,,,,,,,,0,91,91,91,,,,,,,,,,,,,,,17.28515625,-13.125,0,0,1,1.5908870697,,,,,2015_Nov_07_1331,G,facesParametric,28,59.6189157649,
./stim/MorphM8_01_orig.jpg,92,,,,,,,,,0,92,92,92,,,,,,,,,,,,,,,17.28515625,-13.125,0,0,1,1.23910498619,,,,,2015_Nov_07_1331,G,facesParametric,28,59.6189157649,
./stim/MorphM3_07_orig.jpg,93,,,,,,,,,0,93,93,93,,,,,,,,,,,,,,,17.28515625,-13.125,1,0,0,0.769418001175,,,,,2015_Nov_07_1331,G,facesParametric,28,59.6189157649,
./stim/MorphM6_00_orig.jpg,94,,,,,,,,,0,94,94,94,,,,,,,,,,,,,,,17.28515625,-13.125,0,0,1,1.35660505295,,,,,2015_Nov_07_1331,G,facesParametric,28,59.6189157649,
./stim/MorphF2_02_orig.jpg,95,,,,,,,,,0,95,95,95,,,,,,,,,,,,,,,17.28515625,-13.125,0,0,1,2.21094298363,,,,,2015_Nov_07_1331,G,facesParametric,28,59.6189157649,
./stim/MorphM9_10_orig.jpg,96,,,,,,,,,0,96,96,96,,,,,,,,,,,,,,,17.28515625,-13.125,1,0,0,1.13800001144,,,,,2015_Nov_07_1331,G,facesParametric,28,59.6189157649,
./stim/MorphM4_04_orig.jpg,97,,,,,,,,,0,97,97,97,,,,,,,,,,,,,,,17.28515625,-13.125,1,0,0,1.18845701218,,,,,2015_Nov_07_1331,G,facesParametric,28,59.6189157649,
./stim/MorphF4_09_orig.jpg,98,,,,,,,,,0,98,98,98,,,,,,,,,,,,,,,17.28515625,-13.125,1,0,0,1.70637822151,,,,,2015_Nov_07_1331,G,facesParametric,28,59.6189157649,
./stim/MorphF3_01_orig.jpg,99,,,,,,,,,0,99,99,99,,,,,,,,,,,,,,,17.28515625,-13.125,0,0,1,1.70933198929,,,,,2015_Nov_07_1331,G,facesParametric,28,59.6189157649,
./stim/MorphF7_03_orig.jpg,100,,,,,,,,,0,100,100,100,,,,,,,,,,,,,,,17.28515625,-13.125,0,0,1,4.07045412064,,,,,2015_Nov_07_1331,G,facesParametric,28,59.6189157649,
./stim/MorphF9_04_orig.jpg,101,,,,,,,,,0,101,101,101,,,,,,,,,,,,,,,17.28515625,-13.125,0,0,1,1.0361161232,,,,,2015_Nov_07_1331,G,facesParametric,28,59.6189157649,
./stim/MorphM5_10_orig.jpg,102,,,,,,,,,0,102,102,102,,,,,,,,,,,,,,,17.28515625,-13.125,1,0,0,0.919301986694,,,,,2015_Nov_07_1331,G,facesParametric,28,59.6189157649,
./stim/MorphF4_03_orig.jpg,103,,,,,,,,,0,103,103,103,,,,,,,,,,,,,,,17.28515625,-13.125,0,0,1,3.33440685272,,,,,2015_Nov_07_1331,G,facesParametric,28,59.6189157649,
./stim/MorphF8_05_orig.jpg,104,,,,,,,,,0,104,104,104,,,,,,,,,,,,,,,17.28515625,-13.125,1,0,0,1.80644321442,,,,,2015_Nov_07_1331,G,facesParametric,28,59.6189157649,
./stim/MorphF7_09_orig.jpg,105,,,,,,,,,0,105,105,105,,,,,,,,,,,,,,,17.28515625,-13.125,1,0,0,0.836765050888,,,,,2015_Nov_07_1331,G,facesParametric,28,59.6189157649,
./stim/MorphF1_09_orig.jpg,106,,,,,,,,,0,106,106,106,,,,,,,,,,,,,,,17.28515625,-13.125,1,0,0,0.93660402298,,,,,2015_Nov_07_1331,G,facesParametric,28,59.6189157649,
./stim/MorphF4_07_orig.jpg,107,,,,,,,,,0,107,107,107,,,,,,,,,,,,,,,17.28515625,-13.125,1,0,0,2.07747387886,,,,,2015_Nov_07_1331,G,facesParametric,28,59.6189157649,
./stim/MorphM6_08_orig.jpg,108,,,,,,,,,0,108,108,108,,,,,,,,,,,,,,,17.28515625,-13.125,0,0,1,3.06516289711,,,,,2015_Nov_07_1331,G,facesParametric,28,59.6189157649,
./stim/MorphF5_02_orig.jpg,109,,,,,,,,,0,109,109,109,,,,,,,,,,,,,,,17.28515625,-13.125,0,0,1,1.23758506775,,,,,2015_Nov_07_1331,G,facesParametric,28,59.6189157649,
./stim/MorphF3_08_orig.jpg,110,,,,,,,,,0,110,110,110,,,,,,,,,,,,,,,17.28515625,-13.125,1,0,0,1.10328888893,,,,,2015_Nov_07_1331,G,facesParametric,28,59.6189157649,
./stim/MorphM3_02_orig.jpg,111,,,,,,,,,0,111,111,111,,,,,,,,,,,,,,,17.28515625,-13.125,1,0,0,2.9485449791,,,,,2015_Nov_07_1331,G,facesParametric,28,59.6189157649,
./stim/MorphF9_08_orig.jpg,112,,,,,,,,,0,112,112,112,,,,,,,,,,,,,,,17.28515625,-13.125,1,0,0,1.28721213341,,,,,2015_Nov_07_1331,G,facesParametric,28,59.6189157649,
./stim/MorphF4_02_orig.jpg,113,,,,,,,,,0,113,113,113,,,,,,,,,,,,,,,17.28515625,-13.125,0,0,1,2.06000590324,,,,,2015_Nov_07_1331,G,facesParametric,28,59.6189157649,
./stim/MorphM1_07_orig.jpg,114,,,,,,,,,0,114,114,114,,,,,,,,,,,,,,,17.28515625,-13.125,1,0,0,1.92478895187,,,,,2015_Nov_07_1331,G,facesParametric,28,59.6189157649,
./stim/MorphM4_10_orig.jpg,115,,,,,,,,,0,115,115,115,,,,,,,,,,,,,,,17.28515625,-13.125,1,0,0,1.84094500542,,,,,2015_Nov_07_1331,G,facesParametric,28,59.6189157649,
./stim/MorphM8_07_orig.jpg,116,,,,,,,,,0,116,116,116,,,,,,,,,,,,,,,17.28515625,-13.125,1,0,0,9.31708097458,,,,,2015_Nov_07_1331,G,facesParametric,28,59.6189157649,
./stim/MorphM9_01_orig.jpg,117,,,,,,,,,0,117,117,117,,,,,,,,,,,,,,,17.28515625,-13.125,0,0,1,1.4231607914,,,,,2015_Nov_07_1331,G,facesParametric,28,59.6189157649,
./stim/MorphM8_09_orig.jpg,118,,,,,,,,,0,118,118,118,,,,,,,,,,,,,,,17.28515625,-13.125,1,0,0,1.17197990417,,,,,2015_Nov_07_1331,G,facesParametric,28,59.6189157649,
./stim/MorphF2_04_orig.jpg,119,,,,,,,,,0,119,119,119,,,,,,,,,,,,,,,17.28515625,-13.125,0,0,1,8.79751610756,,,,,2015_Nov_07_1331,G,facesParametric,28,59.6189157649,
./stim/MorphF5_10_orig.jpg,120,,,,,,,,,0,120,120,120,,,,,,,,,,,,,,,17.28515625,-13.125,1,0,0,1.22199511528,,,,,2015_Nov_07_1331,G,facesParametric,28,59.6189157649,
./stim/MorphM6_10_orig.jpg,121,,,,,,,,,0,121,121,121,,,,,,,,,,,,,,,17.28515625,-13.125,1,0,0,3.08240103722,,,,,2015_Nov_07_1331,G,facesParametric,28,59.6189157649,
./stim/MorphM1_10_orig.jpg,122,,,,,,,,,0,122,122,122,,,,,,,,,,,,,,,17.28515625,-13.125,1,0,0,0.77009510994,,,,,2015_Nov_07_1331,G,facesParametric,28,59.6189157649,
./stim/MorphF7_04_orig.jpg,123,,,,,,,,,0,123,123,123,,,,,,,,,,,,,,,17.28515625,-13.125,0,0,1,1.78963398933,,,,,2015_Nov_07_1331,G,facesParametric,28,59.6189157649,
./stim/MorphF4_10_orig.jpg,124,,,,,,,,,0,124,124,124,,,,,,,,,,,,,,,17.28515625,-13.125,1,0,0,1.79231905937,,,,,2015_Nov_07_1331,G,facesParametric,28,59.6189157649,
./stim/MorphM4_01_orig.jpg,125,,,,,,,,,0,125,125,125,,,,,,,,,,,,,,,17.28515625,-13.125,0,0,1,1.45674085617,,,,,2015_Nov_07_1331,G,facesParametric,28,59.6189157649,
./stim/MorphF2_06_orig.jpg,126,,,,,,,,,0,126,126,126,,,,,,,,,,,,,,,17.28515625,-13.125,0,0,1,2.62998795509,,,,,2015_Nov_07_1331,G,facesParametric,28,59.6189157649,
./stim/MorphF1_07_orig.jpg,127,,,,,,,,,0,127,127,127,,,,,,,,,,,,,,,17.28515625,-13.125,0,0,1,2.46059989929,,,,,2015_Nov_07_1331,G,facesParametric,28,59.6189157649,
./stim/MorphM8_04_orig.jpg,128,,,,,,,,,0,128,128,128,,,,,,,,,,,,,,,17.28515625,-13.125,0,0,1,1.49006485939,,,,,2015_Nov_07_1331,G,facesParametric,28,59.6189157649,
./stim/MorphM9_07_orig.jpg,129,,,,,,,,,0,129,129,129,,,,,,,,,,,,,,,17.28515625,-13.125,0,0,1,1.70803308487,,,,,2015_Nov_07_1331,G,facesParametric,28,59.6189157649,
./stim/MorphF8_04_orig.jpg,130,,,,,,,,,0,130,130,130,,,,,,,,,,,,,,,17.28515625,-13.125,0,0,1,1.59123110771,,,,,2015_Nov_07_1331,G,facesParametric,28,59.6189157649,
./stim/MorphM7_01_orig.jpg,131,,,,,,,,,0,131,131,131,,,,,,,,,,,,,,,17.28515625,-13.125,0,0,1,1.84209799767,,,,,2015_Nov_07_1331,G,facesParametric,28,59.6189157649,
./stim/MorphF6_02_orig.jpg,132,,,,,,,,,0,132,132,132,,,,,,,,,,,,,,,17.28515625,-13.125,0,0,1,1.89258408546,,,,,2015_Nov_07_1331,G,facesParametric,28,59.6189157649,
./stim/MorphF10_07_orig.jpg,133,,,,,,,,,0,133,133,133,,,,,,,,,,,,,,,17.28515625,-13.125,1,0,0,0.870303869247,,,,,2015_Nov_07_1331,G,facesParametric,28,59.6189157649,
./stim/MorphM5_05_orig.jpg,134,,,,,,,,,0,134,134,134,,,,,,,,,,,,,,,17.28515625,-13.125,1,0,0,0.903719186783,,,,,2015_Nov_07_1331,G,facesParametric,28,59.6189157649,
./stim/MorphF1_02_orig.jpg,135,,,,,,,,,0,135,135,135,,,,,,,,,,,,,,,17.28515625,-13.125,0,0,1,2.11000680923,,,,,2015_Nov_07_1331,G,facesParametric,28,59.6189157649,
./stim/MorphM9_08_orig.jpg,136,,,,,,,,,0,136,136,136,,,,,,,,,,,,,,,17.28515625,-13.125,1,0,0,1.79208493233,,,,,2015_Nov_07_1331,G,facesParametric,28,59.6189157649,
./stim/MorphM3_03_orig.jpg,137,,,,,,,,,0,137,137,137,,,,,,,,,,,,,,,17.28515625,-13.125,1,0,0,0.734925031662,,,,,2015_Nov_07_1331,G,facesParametric,28,59.6189157649,
./stim/MorphF8_10_orig.jpg,138,,,,,,,,,0,138,138,138,,,,,,,,,,,,,,,17.28515625,-13.125,1,0,0,0.937044858932,,,,,2015_Nov_07_1331,G,facesParametric,28,59.6189157649,
./stim/MorphM5_09_orig.jpg,139,,,,,,,,,0,139,139,139,,,,,,,,,,,,,,,17.28515625,-13.125,1,0,0,1.13682222366,,,,,2015_Nov_07_1331,G,facesParametric,28,59.6189157649,
./stim/MorphF5_05_orig.jpg,140,,,,,,,,,0,140,140,140,,,,,,,,,,,,,,,17.28515625,-13.125,1,0,0,1.07045412064,,,,,2015_Nov_07_1331,G,facesParametric,28,59.6189157649,
./stim/MorphF1_03_orig.jpg,141,,,,,,,,,0,141,141,141,,,,,,,,,,,,,,,17.28515625,-13.125,0,0,1,2.81183695793,,,,,2015_Nov_07_1331,G,facesParametric,28,59.6189157649,
./stim/MorphM8_10_orig.jpg,142,,,,,,,,,0,142,142,142,,,,,,,,,,,,,,,17.28515625,-13.125,1,0,0,1.74022483826,,,,,2015_Nov_07_1331,G,facesParametric,28,59.6189157649,
./stim/MorphM4_00_orig.jpg,143,,,,,,,,,0,143,143,143,,,,,,,,,,,,,,,17.28515625,-13.125,0,0,1,1.55753183365,,,,,2015_Nov_07_1331,G,facesParametric,28,59.6189157649,
./stim/MorphM7_03_orig.jpg,144,,,,,,,,,0,144,144,144,,,,,,,,,,,,,,,17.28515625,-13.125,0,0,1,6.97111988068,,,,,2015_Nov_07_1331,G,facesParametric,28,59.6189157649,
./stim/MorphF5_07_orig.jpg,145,,,,,,,,,0,145,145,145,,,,,,,,,,,,,,,17.28515625,-13.125,1,0,0,0.753590106964,,,,,2015_Nov_07_1331,G,facesParametric,28,59.6189157649,
./stim/MorphM7_04_orig.jpg,146,,,,,,,,,0,146,146,146,,,,,,,,,,,,,,,17.28515625,-13.125,0,0,1,2.34414505959,,,,,2015_Nov_07_1331,G,facesParametric,28,59.6189157649,
./stim/MorphF1_01_orig.jpg,147,,,,,,,,,0,147,147,147,,,,,,,,,,,,,,,17.28515625,-13.125,0,0,1,1.65825414658,,,,,2015_Nov_07_1331,G,facesParametric,28,59.6189157649,
./stim/MorphF10_04_orig.jpg,148,,,,,,,,,0,148,148,148,,,,,,,,,,,,,,,17.28515625,-13.125,1,0,0,2.44586396217,,,,,2015_Nov_07_1331,G,facesParametric,28,59.6189157649,
./stim/MorphM2_06_orig.jpg,149,,,,,,,,,0,149,149,149,,,,,,,,,,,,,,,17.28515625,-13.125,0,0,1,1.13661193848,,,,,2015_Nov_07_1331,G,facesParametric,28,59.6189157649,
./stim/MorphM1_08_orig.jpg,150,,,,,,,,,0,150,150,150,,,,,,,,,,,,,,,17.28515625,-13.125,1,0,0,0.953162908554,,,,,2015_Nov_07_1331,G,facesParametric,28,59.6189157649,
./stim/MorphF9_02_orig.jpg,151,,,,,,,,,0,151,151,151,,,,,,,,,,,,,,,17.28515625,-13.125,0,0,1,2.11067891121,,,,,2015_Nov_07_1331,G,facesParametric,28,59.6189157649,
./stim/MorphF5_00_orig.jpg,152,,,,,,,,,0,152,152,152,,,,,,,,,,,,,,,17.28515625,-13.125,0,0,1,1.00178098679,,,,,2015_Nov_07_1331,G,facesParametric,28,59.6189157649,
./stim/MorphM9_06_orig.jpg,153,,,,,,,,,0,153,153,153,,,,,,,,,,,,,,,17.28515625,-13.125,0,0,1,1.23684096336,,,,,2015_Nov_07_1331,G,facesParametric,28,59.6189157649,
./stim/MorphM1_01_orig.jpg,154,,,,,,,,,0,154,154,154,,,,,,,,,,,,,,,17.28515625,-13.125,0,0,1,2.37671303749,,,,,2015_Nov_07_1331,G,facesParametric,28,59.6189157649,
./stim/MorphF8_01_orig.jpg,155,,,,,,,,,0,155,155,155,,,,,,,,,,,,,,,17.28515625,-13.125,0,0,1,0.937169075012,,,,,2015_Nov_07_1331,G,facesParametric,28,59.6189157649,
./stim/MorphF9_00_orig.jpg,156,,,,,,,,,0,156,156,156,,,,,,,,,,,,,,,17.28515625,-13.125,0,0,1,2.41105985641,,,,,2015_Nov_07_1331,G,facesParametric,28,59.6189157649,
./stim/MorphF10_02_orig.jpg,157,,,,,,,,,0,157,157,157,,,,,,,,,,,,,,,17.28515625,-13.125,0,0,1,2.52939009666,,,,,2015_Nov_07_1331,G,facesParametric,28,59.6189157649,
./stim/MorphF8_03_orig.jpg,158,,,,,,,,,0,158,158,158,,,,,,,,,,,,,,,17.28515625,-13.125,0,0,1,1.33949899673,,,,,2015_Nov_07_1331,G,facesParametric,28,59.6189157649,
./stim/MorphF3_04_orig.jpg,159,,,,,,,,,0,159,159,159,,,,,,,,,,,,,,,17.28515625,-13.125,0,0,1,3.5688560009,,,,,2015_Nov_07_1331,G,facesParametric,28,59.6189157649,
./stim/MorphF8_06_orig.jpg,160,,,,,,,,,0,160,160,160,,,,,,,,,,,,,,,17.28515625,-13.125,1,0,0,10.019217968,,,,,2015_Nov_07_1331,G,facesParametric,28,59.6189157649,
./stim/MorphM2_07_orig.jpg,161,,,,,,,,,0,161,161,161,,,,,,,,,,,,,,,17.28515625,-13.125,1,0,0,1.22058391571,,,,,2015_Nov_07_1331,G,facesParametric,28,59.6189157649,
./stim/MorphM10_05_orig.jpg,162,,,,,,,,,0,162,162,162,,,,,,,,,,,,,,,17.28515625,-13.125,1,0,0,0.785592079163,,,,,2015_Nov_07_1331,G,facesParametric,28,59.6189157649,
./stim/MorphM6_07_orig.jpg,163,,,,,,,,,0,163,163,163,,,,,,,,,,,,,,,17.28515625,-13.125,0,0,1,1.42226696014,,,,,2015_Nov_07_1331,G,facesParametric,28,59.6189157649,
./stim/MorphF10_06_orig.jpg,164,,,,,,,,,0,164,164,164,,,,,,,,,,,,,,,17.28515625,-13.125,1,0,0,0.868809938431,,,,,2015_Nov_07_1331,G,facesParametric,28,59.6189157649,
./stim/MorphF6_03_orig.jpg,165,,,,,,,,,0,165,165,165,,,,,,,,,,,,,,,17.28515625,-13.125,0,0,1,2.41193795204,,,,,2015_Nov_07_1331,G,facesParametric,28,59.6189157649,
./stim/MorphF4_05_orig.jpg,166,,,,,,,,,0,166,166,166,,,,,,,,,,,,,,,17.28515625,-13.125,1,0,0,3.75296497345,,,,,2015_Nov_07_1331,G,facesParametric,28,59.6189157649,
./stim/MorphF5_06_orig.jpg,167,,,,,,,,,0,167,167,167,,,,,,,,,,,,,,,17.28515625,-13.125,1,0,0,0.686064958572,,,,,2015_Nov_07_1331,G,facesParametric,28,59.6189157649,
./stim/MorphF3_07_orig.jpg,168,,,,,,,,,0,168,168,168,,,,,,,,,,,,,,,17.28515625,-13.125,1,0,0,0.820003986359,,,,,2015_Nov_07_1331,G,facesParametric,28,59.6189157649,
./stim/MorphF7_06_orig.jpg,169,,,,,,,,,0,169,169,169,,,,,,,,,,,,,,,17.28515625,-13.125,1,0,0,1.08815789223,,,,,2015_Nov_07_1331,G,facesParametric,28,59.6189157649,
./stim/MorphF6_08_orig.jpg,170,,,,,,,,,0,170,170,170,,,,,,,,,,,,,,,17.28515625,-13.125,1,0,0,1.02005505562,,,,,2015_Nov_07_1331,G,facesParametric,28,59.6189157649,
./stim/MorphF1_06_orig.jpg,171,,,,,,,,,0,171,171,171,,,,,,,,,,,,,,,17.28515625,-13.125,0,0,1,1.65760302544,,,,,2015_Nov_07_1331,G,facesParametric,28,59.6189157649,
./stim/MorphM8_00_orig.jpg,172,,,,,,,,,0,172,172,172,,,,,,,,,,,,,,,17.28515625,-13.125,0,0,1,3.166492939,,,,,2015_Nov_07_1331,G,facesParametric,28,59.6189157649,
./stim/MorphM1_09_orig.jpg,173,,,,,,,,,0,173,173,173,,,,,,,,,,,,,,,17.28515625,-13.125,1,0,0,1.00523495674,,,,,2015_Nov_07_1331,G,facesParametric,28,59.6189157649,
./stim/MorphF9_01_orig.jpg,174,,,,,,,,,0,174,174,174,,,,,,,,,,,,,,,17.28515625,-13.125,0,0,1,2.14134407043,,,,,2015_Nov_07_1331,G,facesParametric,28,59.6189157649,
./stim/MorphM2_04_orig.jpg,175,,,,,,,,,0,175,175,175,,,,,,,,,,,,,,,17.28515625,-13.125,0,0,1,1.43990302086,,,,,2015_Nov_07_1331,G,facesParametric,28,59.6189157649,
./stim/MorphF2_08_orig.jpg,176,,,,,,,,,0,176,176,176,,,,,,,,,,,,,,,17.28515625,-13.125,1,0,0,1.49069905281,,,,,2015_Nov_07_1331,G,facesParametric,28,59.6189157649,
./stim/MorphM10_08_orig.jpg,177,,,,,,,,,0,177,177,177,,,,,,,,,,,,,,,17.28515625,-13.125,1,0,0,0.769776821136,,,,,2015_Nov_07_1331,G,facesParametric,28,59.6189157649,
./stim/MorphM9_02_orig.jpg,178,,,,,,,,,0,178,178,178,,,,,,,,,,,,,,,17.28515625,-13.125,0,0,1,1.20337414742,,,,,2015_Nov_07_1331,G,facesParametric,28,59.6189157649,
./stim/MorphM1_05_orig.jpg,179,,,,,,,,,0,179,179,179,,,,,,,,,,,,,,,17.28515625,-13.125,0,0,1,3.66810083389,,,,,2015_Nov_07_1331,G,facesParametric,28,59.6189157649,
./stim/MorphF10_09_orig.jpg,180,,,,,,,,,0,180,180,180,,,,,,,,,,,,,,,17.28515625,-13.125,1,0,0,0.90322804451,,,,,2015_Nov_07_1331,G,facesParametric,28,59.6189157649,
./stim/MorphF5_04_orig.jpg,181,,,,,,,,,0,181,181,181,,,,,,,,,,,,,,,17.28515625,-13.125,0,0,1,1.60803508759,,,,,2015_Nov_07_1331,G,facesParametric,28,59.6189157649,
./stim/MorphF10_00_orig.jpg,182,,,,,,,,,0,182,182,182,,,,,,,,,,,,,,,17.28515625,-13.125,0,0,1,2.67907786369,,,,,2015_Nov_07_1331,G,facesParametric,28,59.6189157649,
./stim/MorphM9_05_orig.jpg,183,,,,,,,,,0,183,183,183,,,,,,,,,,,,,,,17.28515625,-13.125,0,0,1,1.22216701508,,,,,2015_Nov_07_1331,G,facesParametric,28,59.6189157649,
./stim/MorphM3_06_orig.jpg,184,,,,,,,,,0,184,184,184,,,,,,,,,,,,,,,17.28515625,-13.125,1,0,0,0.803354978561,,,,,2015_Nov_07_1331,G,facesParametric,28,59.6189157649,
./stim/MorphM10_00_orig.jpg,185,,,,,,,,,0,185,185,185,,,,,,,,,,,,,,,17.28515625,-13.125,0,0,1,2.78221297264,,,,,2015_Nov_07_1331,G,facesParametric,28,59.6189157649,
./stim/MorphM9_03_orig.jpg,186,,,,,,,,,0,186,186,186,,,,,,,,,,,,,,,17.28515625,-13.125,0,0,1,1.50622582436,,,,,2015_Nov_07_1331,G,facesParametric,28,59.6189157649,
./stim/MorphM6_04_orig.jpg,187,,,,,,,,,0,187,187,187,,,,,,,,,,,,,,,17.28515625,-13.125,0,0,1,0.918678998947,,,,,2015_Nov_07_1331,G,facesParametric,28,59.6189157649,
./stim/MorphF10_10_orig.jpg,188,,,,,,,,,0,188,188,188,,,,,,,,,,,,,,,17.28515625,-13.125,1,0,0,0.954754114151,,,,,2015_Nov_07_1331,G,facesParametric,28,59.6189157649,
./stim/MorphF6_01_orig.jpg,189,,,,,,,,,0,189,189,189,,,,,,,,,,,,,,,17.28515625,-13.125,0,0,1,1.82482099533,,,,,2015_Nov_07_1331,G,facesParametric,28,59.6189157649,
./stim/MorphF3_03_orig.jpg,190,,,,,,,,,0,190,190,190,,,,,,,,,,,,,,,17.28515625,-13.125,0,0,1,1.64059686661,,,,,2015_Nov_07_1331,G,facesParametric,28,59.6189157649,
./stim/MorphF9_05_orig.jpg,191,,,,,,,,,0,191,191,191,,,,,,,,,,,,,,,17.28515625,-13.125,0,0,1,1.12149500847,,,,,2015_Nov_07_1331,G,facesParametric,28,59.6189157649,
./stim/MorphM5_00_orig.jpg,192,,,,,,,,,0,192,192,192,,,,,,,,,,,,,,,17.28515625,-13.125,1,0,0,2.07730722427,,,,,2015_Nov_07_1331,G,facesParametric,28,59.6189157649,
./stim/MorphM6_01_orig.jpg,193,,,,,,,,,0,193,193,193,,,,,,,,,,,,,,,17.28515625,-13.125,0,0,1,2.9310901165,,,,,2015_Nov_07_1331,G,facesParametric,28,59.6189157649,
./stim/MorphM7_00_orig.jpg,194,,,,,,,,,0,194,194,194,,,,,,,,,,,,,,,17.28515625,-13.125,0,0,1,1.48958301544,,,,,2015_Nov_07_1331,G,facesParametric,28,59.6189157649,
./stim/MorphF8_09_orig.jpg,195,,,,,,,,,0,195,195,195,,,,,,,,,,,,,,,17.28515625,-13.125,1,0,0,1.05285716057,,,,,2015_Nov_07_1331,G,facesParametric,28,59.6189157649,
./stim/MorphF3_10_orig.jpg,196,,,,,,,,,0,196,196,196,,,,,,,,,,,,,,,17.28515625,-13.125,1,0,0,0.76935005188,,,,,2015_Nov_07_1331,G,facesParametric,28,59.6189157649,
./stim/MorphF7_05_orig.jpg,197,,,,,,,,,0,197,197,197,,,,,,,,,,,,,,,17.28515625,-13.125,0,0,1,2.34543991089,,,,,2015_Nov_07_1331,G,facesParametric,28,59.6189157649,
./stim/MorphF4_06_orig.jpg,198,,,,,,,,,0,198,198,198,,,,,,,,,,,,,,,17.28515625,-13.125,1,0,0,1.54031896591,,,,,2015_Nov_07_1331,G,facesParametric,28,59.6189157649,
./stim/MorphF10_01_orig.jpg,199,,,,,,,,,0,199,199,199,,,,,,,,,,,,,,,17.28515625,-13.125,0,0,1,1.4397790432,,,,,2015_Nov_07_1331,G,facesParametric,28,59.6189157649,
./stim/MorphM3_05_orig.jpg,200,,,,,,,,,0,200,200,200,,,,,,,,,,,,,,,17.28515625,-13.125,1,0,0,0.953529119492,,,,,2015_Nov_07_1331,G,facesParametric,28,59.6189157649,
./stim/MorphF1_00_orig.jpg,201,,,,,,,,,0,201,201,201,,,,,,,,,,,,,,,17.28515625,-13.125,0,0,1,1.4901239872,,,,,2015_Nov_07_1331,G,facesParametric,28,59.6189157649,
./stim/MorphF2_01_orig.jpg,202,,,,,,,,,0,202,202,202,,,,,,,,,,,,,,,17.28515625,-13.125,0,0,1,3.30079102516,,,,,2015_Nov_07_1331,G,facesParametric,28,59.6189157649,
./stim/MorphM6_02_orig.jpg,203,,,,,,,,,0,203,203,203,,,,,,,,,,,,,,,17.28515625,-13.125,0,0,1,0.886677980423,,,,,2015_Nov_07_1331,G,facesParametric,28,59.6189157649,
./stim/MorphM2_09_orig.jpg,204,,,,,,,,,0,204,204,204,,,,,,,,,,,,,,,17.28515625,-13.125,1,0,0,1.03819990158,,,,,2015_Nov_07_1331,G,facesParametric,28,59.6189157649,
./stim/MorphF7_00_orig.jpg,205,,,,,,,,,0,205,205,205,,,,,,,,,,,,,,,17.28515625,-13.125,0,0,1,1.30482792854,,,,,2015_Nov_07_1331,G,facesParametric,28,59.6189157649,
./stim/MorphM7_06_orig.jpg,206,,,,,,,,,0,206,206,206,,,,,,,,,,,,,,,17.28515625,-13.125,1,0,0,1.35620307922,,,,,2015_Nov_07_1331,G,facesParametric,28,59.6189157649,
./stim/MorphF5_09_orig.jpg,207,,,,,,,,,0,207,207,207,,,,,,,,,,,,,,,17.28515625,-13.125,1,0,0,0.819848060608,,,,,2015_Nov_07_1331,G,facesParametric,28,59.6189157649,
./stim/MorphM2_10_orig.jpg,208,,,,,,,,,0,208,208,208,,,,,,,,,,,,,,,17.28515625,-13.125,1,0,0,1.47355103493,,,,,2015_Nov_07_1331,G,facesParametric,28,59.6189157649,
./stim/MorphF9_06_orig.jpg,209,,,,,,,,,0,209,209,209,,,,,,,,,,,,,,,17.28515625,-13.125,0,0,1,2.78095293045,,,,,2015_Nov_07_1331,G,facesParametric,28,59.6189157649,
./stim/MorphF6_06_orig.jpg,210,,,,,,,,,0,210,210,210,,,,,,,,,,,,,,,17.28515625,-13.125,1,0,0,3.95392799377,,,,,2015_Nov_07_1331,G,facesParametric,28,59.6189157649,
./stim/MorphM4_09_orig.jpg,211,,,,,,,,,0,211,211,211,,,,,,,,,,,,,,,17.28515625,-13.125,1,0,0,1.10508012772,,,,,2015_Nov_07_1331,G,facesParametric,28,59.6189157649,
./stim/MorphM1_04_orig.jpg,212,,,,,,,,,0,212,212,212,,,,,,,,,,,,,,,17.28515625,-13.125,1,0,0,4.42128705978,,,,,2015_Nov_07_1331,G,facesParametric,28,59.6189157649,
./stim/MorphM2_03_orig.jpg,213,,,,,,,,,0,213,213,213,,,,,,,,,,,,,,,17.28515625,-13.125,0,0,1,1.054885149,,,,,2015_Nov_07_1331,G,facesParametric,28,59.6189157649,
./stim/MorphF2_00_orig.jpg,214,,,,,,,,,0,214,214,214,,,,,,,,,,,,,,,17.28515625,-13.125,0,0,1,1.35576295853,,,,,2015_Nov_07_1331,G,facesParametric,28,59.6189157649,
./stim/MorphM7_10_orig.jpg,215,,,,,,,,,0,215,215,215,,,,,,,,,,,,,,,17.28515625,-13.125,1,0,0,0.870302915573,,,,,2015_Nov_07_1331,G,facesParametric,28,59.6189157649,
./stim/MorphM10_06_orig.jpg,216,,,,,,,,,0,216,216,216,,,,,,,,,,,,,,,17.28515625,-13.125,1,0,0,0.886907100677,,,,,2015_Nov_07_1331,G,facesParametric,28,59.6189157649,
./stim/MorphM4_08_orig.jpg,217,,,,,,,,,0,217,217,217,,,,,,,,,,,,,,,17.28515625,-13.125,1,0,0,1.22200012207,,,,,2015_Nov_07_1331,G,facesParametric,28,59.6189157649,
./stim/MorphF1_05_orig.jpg,218,,,,,,,,,0,218,218,218,,,,,,,,,,,,,,,17.28515625,-13.125,0,0,1,1.28916811943,,,,,2015_Nov_07_1331,G,facesParametric,28,59.6189157649,
./stim/MorphF3_06_orig.jpg,219,,,,,,,,,0,219,219,219,,,,,,,,,,,,,,,17.28515625,-13.125,1,0,0,6.60011100769,,,,,2015_Nov_07_1331,G,facesParametric,28,59.6189157649,
,,,,,,,,,,,,,,,,,,,,,,,,,,,,,,,,,,,,return,4.47016811371,2015_Nov_07_1331,G,facesParametric,28,59.6189157649,
