img,num,basicLoop.thisRepN,basicLoop.thisTrialN,basicLoop.thisN,basicLoop.thisIndex,trials.thisRepN,trials.thisTrialN,trials.thisN,trials.thisIndex,trials2.thisRepN,trials2.thisTrialN,trials2.thisN,trials2.thisIndex,key_resp_2.keys,key_resp_2.rt,basicRating1.response,basicRating1.rt,basicRating2.response,basicRating2.rt,basicRating3.response,basicRating3.rt,basicRating4.response,basicRating4.rt,key_resp_3.keys,key_resp_3.rt,key_resp_4.keys,key_resp_4.rt,mouseResp.x,mouseResp.y,mouseResp.leftButton,mouseResp.midButton,mouseResp.rightButton,mouseResp.time,key_resp_5.keys,key_resp_5.rt,key_resp_7.keys,key_resp_7.rt,date,group,expName,participant,frameRate,
,,,,,,,,,,,,,,return,34.8496160507,,,,,,,,,,,,,,,,,,,,,,,2015_Nov_09_1327,G,facesParametric,29,59.7500480786,
./basicStim/01F_NE_C.jpg,,0,0,0,6,,,,,,,,,,,SAD,5.722,None,None,None,None,None,None,,,,,,,,,,,,,,,2015_Nov_09_1327,G,facesParametric,29,59.7500480786,
./basicStim/06F_SA_C.jpg,,0,1,1,25,,,,,,,,,,,None,None,None,None,DIS,3.951,None,None,,,,,,,,,,,,,,,2015_Nov_09_1327,G,facesParametric,29,59.7500480786,
./basicStim/09F_FE_O.jpg,,0,2,2,37,,,,,,,,,,,None,None,None,None,SUP,4.512,None,None,,,,,,,,,,,,,,,2015_Nov_09_1327,G,facesParametric,29,59.7500480786,
./basicStim/01F_SA_C.jpg,,0,3,3,4,,,,,,,,,,,SAD,2.332,None,None,None,None,None,None,,,,,,,,,,,,,,,2015_Nov_09_1327,G,facesParametric,29,59.7500480786,
./basicStim/01F_DI_O.jpg,,0,4,4,1,,,,,,,,,,,None,None,None,None,SUP,4.291,None,None,,,,,,,,,,,,,,,2015_Nov_09_1327,G,facesParametric,29,59.7500480786,
./basicStim/07F_AN_O.jpg,,0,5,5,28,,,,,,,,,,,None,None,FEA,5.769,None,None,None,None,,,,,,,,,,,,,,,2015_Nov_09_1327,G,facesParametric,29,59.7500480786,
./basicStim/24M_NE_C.jpg,,0,6,6,62,,,,,,,,,,,HAP,2.437,None,None,None,None,None,None,,,,,,,,,,,,,,,2015_Nov_09_1327,G,facesParametric,29,59.7500480786,
./basicStim/03F_AN_O.jpg,,0,7,7,14,,,,,,,,,,,None,None,ANG,5.098,None,None,None,None,,,,,,,,,,,,,,,2015_Nov_09_1327,G,facesParametric,29,59.7500480786,
./basicStim/36M_AN_O.jpg,,0,8,8,77,,,,,,,,,,,SAD,3.627,None,None,None,None,None,None,,,,,,,,,,,,,,,2015_Nov_09_1327,G,facesParametric,29,59.7500480786,
./basicStim/36M_NE_C.jpg,,0,9,9,83,,,,,,,,,,,HAP,2.301,None,None,None,None,None,None,,,,,,,,,,,,,,,2015_Nov_09_1327,G,facesParametric,29,59.7500480786,
./basicStim/21M_HA_O.jpg,,0,10,10,45,,,,,,,,,,,HAP,0.608,None,None,None,None,None,None,,,,,,,,,,,,,,,2015_Nov_09_1327,G,facesParametric,29,59.7500480786,
./basicStim/23M_SP_O.jpg,,0,11,11,54,,,,,,,,,,,None,None,None,None,SUP,2.415,None,None,,,,,,,,,,,,,,,2015_Nov_09_1327,G,facesParametric,29,59.7500480786,
./basicStim/34M_NE_C.jpg,,0,12,12,76,,,,,,,,,,,None,None,None,None,None,None,NTR,4.38,,,,,,,,,,,,,,,2015_Nov_09_1327,G,facesParametric,29,59.7500480786,
./basicStim/23M_FE_O.jpg,,0,13,13,51,,,,,,,,,,,None,None,FEA,4.044,None,None,None,None,,,,,,,,,,,,,,,2015_Nov_09_1327,G,facesParametric,29,59.7500480786,
./basicStim/02F_SP_O.jpg,,0,14,14,12,,,,,,,,,,,None,None,None,None,SUP,2.301,None,None,,,,,,,,,,,,,,,2015_Nov_09_1327,G,facesParametric,29,59.7500480786,
./basicStim/24M_AN_O.jpg,,0,15,15,56,,,,,,,,,,,None,None,ANG,2.233,None,None,None,None,,,,,,,,,,,,,,,2015_Nov_09_1327,G,facesParametric,29,59.7500480786,
./basicStim/28M_NE_C.jpg,,0,16,16,69,,,,,,,,,,,None,None,None,None,None,None,NTR,1.412,,,,,,,,,,,,,,,2015_Nov_09_1327,G,facesParametric,29,59.7500480786,
./basicStim/07F_NE_C.jpg,,0,17,17,34,,,,,,,,,,,SAD,2.117,None,None,None,None,None,None,,,,,,,,,,,,,,,2015_Nov_09_1327,G,facesParametric,29,59.7500480786,
./basicStim/23M_NE_C.jpg,,0,18,18,55,,,,,,,,,,,None,None,None,None,SUP,2.904,None,None,,,,,,,,,,,,,,,2015_Nov_09_1327,G,facesParametric,29,59.7500480786,
./basicStim/28M_SA_C.jpg,,0,19,19,67,,,,,,,,,,,None,None,FEA,2.298,None,None,None,None,,,,,,,,,,,,,,,2015_Nov_09_1327,G,facesParametric,29,59.7500480786,
./basicStim/21M_DI_O.jpg,,0,20,20,43,,,,,,,,,,,None,None,None,None,DIS,1.512,None,None,,,,,,,,,,,,,,,2015_Nov_09_1327,G,facesParametric,29,59.7500480786,
./basicStim/02F_HA_O.jpg,,0,21,21,10,,,,,,,,,,,HAP,1.999,None,None,None,None,None,None,,,,,,,,,,,,,,,2015_Nov_09_1327,G,facesParametric,29,59.7500480786,
./basicStim/06F_SP_O.jpg,,0,22,22,26,,,,,,,,,,,None,None,None,None,SUP,2.036,None,None,,,,,,,,,,,,,,,2015_Nov_09_1327,G,facesParametric,29,59.7500480786,
./basicStim/02F_AN_O.jpg,,0,23,23,7,,,,,,,,,,,None,None,FEA,3.907,None,None,None,None,,,,,,,,,,,,,,,2015_Nov_09_1327,G,facesParametric,29,59.7500480786,
./basicStim/23M_HA_O.jpg,,0,24,24,52,,,,,,,,,,,HAP,1.043,None,None,None,None,None,None,,,,,,,,,,,,,,,2015_Nov_09_1327,G,facesParametric,29,59.7500480786,
./basicStim/36M_HA_O.jpg,,0,25,25,80,,,,,,,,,,,HAP,0.646,None,None,None,None,None,None,,,,,,,,,,,,,,,2015_Nov_09_1327,G,facesParametric,29,59.7500480786,
./basicStim/23M_SA_C.jpg,,0,26,26,53,,,,,,,,,,,SAD,2.201,None,None,None,None,None,None,,,,,,,,,,,,,,,2015_Nov_09_1327,G,facesParametric,29,59.7500480786,
./basicStim/28M_AN_O.jpg,,0,27,27,63,,,,,,,,,,,None,None,None,None,DIS,2.147,None,None,,,,,,,,,,,,,,,2015_Nov_09_1327,G,facesParametric,29,59.7500480786,
./basicStim/09F_NE_C.jpg,,0,28,28,41,,,,,,,,,,,None,None,None,None,None,None,NTR,1.707,,,,,,,,,,,,,,,2015_Nov_09_1327,G,facesParametric,29,59.7500480786,
./basicStim/03F_NE_C.jpg,,0,29,29,20,,,,,,,,,,,None,None,None,None,SUP,3.328,None,None,,,,,,,,,,,,,,,2015_Nov_09_1327,G,facesParametric,29,59.7500480786,
./basicStim/01F_FE_O.jpg,,0,30,30,2,,,,,,,,,,,HAP,1.949,None,None,None,None,None,None,,,,,,,,,,,,,,,2015_Nov_09_1327,G,facesParametric,29,59.7500480786,
./basicStim/09F_SP_O.jpg,,0,31,31,40,,,,,,,,,,,None,None,None,None,SUP,3.744,None,None,,,,,,,,,,,,,,,2015_Nov_09_1327,G,facesParametric,29,59.7500480786,
./basicStim/09F_DI_O.jpg,,0,32,32,36,,,,,,,,,,,None,None,None,None,DIS,1.635,None,None,,,,,,,,,,,,,,,2015_Nov_09_1327,G,facesParametric,29,59.7500480786,
./basicStim/07F_SA_C.jpg,,0,33,33,32,,,,,,,,,,,SAD,1.882,None,None,None,None,None,None,,,,,,,,,,,,,,,2015_Nov_09_1327,G,facesParametric,29,59.7500480786,
./basicStim/09F_AN_O.jpg,,0,34,34,35,,,,,,,,,,,None,None,ANG,1.765,None,None,None,None,,,,,,,,,,,,,,,2015_Nov_09_1327,G,facesParametric,29,59.7500480786,
./basicStim/21M_FE_O.jpg,,0,35,35,44,,,,,,,,,,,None,None,FEA,2.72,None,None,None,None,,,,,,,,,,,,,,,2015_Nov_09_1327,G,facesParametric,29,59.7500480786,
./basicStim/34M_FE_O.jpg,,0,36,36,72,,,,,,,,,,,None,None,None,None,SUP,5.822,None,None,,,,,,,,,,,,,,,2015_Nov_09_1327,G,facesParametric,29,59.7500480786,
./basicStim/34M_DI_O.jpg,,0,37,37,71,,,,,,,,,,,None,None,None,None,DIS,2.303,None,None,,,,,,,,,,,,,,,2015_Nov_09_1327,G,facesParametric,29,59.7500480786,
./basicStim/07F_HA_O.jpg,,0,38,38,31,,,,,,,,,,,HAP,1.164,None,None,None,None,None,None,,,,,,,,,,,,,,,2015_Nov_09_1327,G,facesParametric,29,59.7500480786,
./basicStim/03F_SA_C.jpg,,0,39,39,18,,,,,,,,,,,SAD,1.244,None,None,None,None,None,None,,,,,,,,,,,,,,,2015_Nov_09_1327,G,facesParametric,29,59.7500480786,
./basicStim/03F_FE_O.jpg,,0,40,40,16,,,,,,,,,,,None,None,FEA,1.813,None,None,None,None,,,,,,,,,,,,,,,2015_Nov_09_1327,G,facesParametric,29,59.7500480786,
./basicStim/24M_FE_O.jpg,,0,41,41,58,,,,,,,,,,,None,None,None,None,SUP,3.713,None,None,,,,,,,,,,,,,,,2015_Nov_09_1327,G,facesParametric,29,59.7500480786,
./basicStim/28M_DI_O.jpg,,0,42,42,64,,,,,,,,,,,None,None,None,None,DIS,1.357,None,None,,,,,,,,,,,,,,,2015_Nov_09_1327,G,facesParametric,29,59.7500480786,
./basicStim/02F_DI_O.jpg,,0,43,43,8,,,,,,,,,,,None,None,None,None,DIS,0.478,None,None,,,,,,,,,,,,,,,2015_Nov_09_1327,G,facesParametric,29,59.7500480786,
./basicStim/34M_AN_O.jpg,,0,44,44,70,,,,,,,,,,,None,None,None,None,DIS,0.412,None,None,,,,,,,,,,,,,,,2015_Nov_09_1327,G,facesParametric,29,59.7500480786,
./basicStim/01F_AN_O.jpg,,0,45,45,0,,,,,,,,,,,None,None,None,None,DIS,0.445,None,None,,,,,,,,,,,,,,,2015_Nov_09_1327,G,facesParametric,29,59.7500480786,
./basicStim/09F_SA_C.jpg,,0,46,46,39,,,,,,,,,,,SAD,3.024,None,None,None,None,None,None,,,,,,,,,,,,,,,2015_Nov_09_1327,G,facesParametric,29,59.7500480786,
./basicStim/21M_SP_O.jpg,,0,47,47,47,,,,,,,,,,,HAP,1.696,None,None,None,None,None,None,,,,,,,,,,,,,,,2015_Nov_09_1327,G,facesParametric,29,59.7500480786,
./basicStim/06F_DI_O.jpg,,0,48,48,22,,,,,,,,,,,None,None,None,None,DIS,2.049,None,None,,,,,,,,,,,,,,,2015_Nov_09_1327,G,facesParametric,29,59.7500480786,
./basicStim/36M_FE_O.jpg,,0,49,49,79,,,,,,,,,,,None,None,FEA,1.85,None,None,None,None,,,,,,,,,,,,,,,2015_Nov_09_1327,G,facesParametric,29,59.7500480786,
./basicStim/36M_SA_C.jpg,,0,50,50,81,,,,,,,,,,,SAD,2.387,None,None,None,None,None,None,,,,,,,,,,,,,,,2015_Nov_09_1327,G,facesParametric,29,59.7500480786,
./basicStim/21M_AN_O.jpg,,0,51,51,42,,,,,,,,,,,None,None,ANG,2.699,None,None,None,None,,,,,,,,,,,,,,,2015_Nov_09_1327,G,facesParametric,29,59.7500480786,
./basicStim/06F_HA_O.jpg,,0,52,52,24,,,,,,,,,,,HAP,0.963,None,None,None,None,None,None,,,,,,,,,,,,,,,2015_Nov_09_1327,G,facesParametric,29,59.7500480786,
./basicStim/06F_NE_C.jpg,,0,53,53,27,,,,,,,,,,,None,None,None,None,None,None,NTR,3.537,,,,,,,,,,,,,,,2015_Nov_09_1327,G,facesParametric,29,59.7500480786,
./basicStim/01F_SP_O.jpg,,0,54,54,5,,,,,,,,,,,None,None,None,None,SUP,1.663,None,None,,,,,,,,,,,,,,,2015_Nov_09_1327,G,facesParametric,29,59.7500480786,
./basicStim/23M_AN_O.jpg,,0,55,55,49,,,,,,,,,,,None,None,ANG,1.649,None,None,None,None,,,,,,,,,,,,,,,2015_Nov_09_1327,G,facesParametric,29,59.7500480786,
./basicStim/07F_FE_O.jpg,,0,56,56,30,,,,,,,,,,,None,None,FEA,2.051,None,None,None,None,,,,,,,,,,,,,,,2015_Nov_09_1327,G,facesParametric,29,59.7500480786,
./basicStim/02F_NE_C.jpg,,0,57,57,13,,,,,,,,,,,SAD,1.766,None,None,None,None,None,None,,,,,,,,,,,,,,,2015_Nov_09_1327,G,facesParametric,29,59.7500480786,
./basicStim/07F_SP_O.jpg,,0,58,58,33,,,,,,,,,,,None,None,None,None,SUP,1.848,None,None,,,,,,,,,,,,,,,2015_Nov_09_1327,G,facesParametric,29,59.7500480786,
./basicStim/06F_FE_O.jpg,,0,59,59,23,,,,,,,,,,,SAD,1.38,None,None,None,None,None,None,,,,,,,,,,,,,,,2015_Nov_09_1327,G,facesParametric,29,59.7500480786,
./basicStim/07F_DI_O.jpg,,0,60,60,29,,,,,,,,,,,None,None,None,None,DIS,2.098,None,None,,,,,,,,,,,,,,,2015_Nov_09_1327,G,facesParametric,29,59.7500480786,
./basicStim/36M_SP_O.jpg,,0,61,61,82,,,,,,,,,,,None,None,None,None,SUP,1.78,None,None,,,,,,,,,,,,,,,2015_Nov_09_1327,G,facesParametric,29,59.7500480786,
./basicStim/24M_SA_C.jpg,,0,62,62,60,,,,,,,,,,,SAD,1.737,None,None,None,None,None,None,,,,,,,,,,,,,,,2015_Nov_09_1327,G,facesParametric,29,59.7500480786,
./basicStim/28M_FE_O.jpg,,0,63,63,65,,,,,,,,,,,None,None,FEA,2.792,None,None,None,None,,,,,,,,,,,,,,,2015_Nov_09_1327,G,facesParametric,29,59.7500480786,
./basicStim/03F_SP_O.jpg,,0,64,64,19,,,,,,,,,,,HAP,0.98,None,None,None,None,None,None,,,,,,,,,,,,,,,2015_Nov_09_1327,G,facesParametric,29,59.7500480786,
./basicStim/21M_NE_C.jpg,,0,65,65,48,,,,,,,,,,,None,None,None,None,None,None,NTR,5.721,,,,,,,,,,,,,,,2015_Nov_09_1327,G,facesParametric,29,59.7500480786,
./basicStim/34M_HA_O.jpg,,0,66,66,73,,,,,,,,,,,HAP,1.162,None,None,None,None,None,None,,,,,,,,,,,,,,,2015_Nov_09_1327,G,facesParametric,29,59.7500480786,
./basicStim/02F_SA_C.jpg,,0,67,67,11,,,,,,,,,,,SAD,2.015,None,None,None,None,None,None,,,,,,,,,,,,,,,2015_Nov_09_1327,G,facesParametric,29,59.7500480786,
./basicStim/02F_FE_O.jpg,,0,68,68,9,,,,,,,,,,,SAD,0.574,None,None,None,None,None,None,,,,,,,,,,,,,,,2015_Nov_09_1327,G,facesParametric,29,59.7500480786,
./basicStim/24M_SP_O.jpg,,0,69,69,61,,,,,,,,,,,HAP,2.205,None,None,None,None,None,None,,,,,,,,,,,,,,,2015_Nov_09_1327,G,facesParametric,29,59.7500480786,
./basicStim/34M_SP_O.jpg,,0,70,70,75,,,,,,,,,,,HAP,0.458,None,None,None,None,None,None,,,,,,,,,,,,,,,2015_Nov_09_1327,G,facesParametric,29,59.7500480786,
./basicStim/34M_SA_C.jpg,,0,71,71,74,,,,,,,,,,,SAD,1.638,None,None,None,None,None,None,,,,,,,,,,,,,,,2015_Nov_09_1327,G,facesParametric,29,59.7500480786,
./basicStim/01F_HA_O.jpg,,0,72,72,3,,,,,,,,,,,HAP,1.315,None,None,None,None,None,None,,,,,,,,,,,,,,,2015_Nov_09_1327,G,facesParametric,29,59.7500480786,
./basicStim/21M_SA_C.jpg,,0,73,73,46,,,,,,,,,,,SAD,3.362,None,None,None,None,None,None,,,,,,,,,,,,,,,2015_Nov_09_1327,G,facesParametric,29,59.7500480786,
./basicStim/03F_DI_O.jpg,,0,74,74,15,,,,,,,,,,,None,None,None,None,DIS,3.3,None,None,,,,,,,,,,,,,,,2015_Nov_09_1327,G,facesParametric,29,59.7500480786,
./basicStim/36M_DI_O.jpg,,0,75,75,78,,,,,,,,,,,None,None,None,None,DIS,0.455,None,None,,,,,,,,,,,,,,,2015_Nov_09_1327,G,facesParametric,29,59.7500480786,
./basicStim/09F_HA_O.jpg,,0,76,76,38,,,,,,,,,,,HAP,1.871,None,None,None,None,None,None,,,,,,,,,,,,,,,2015_Nov_09_1327,G,facesParametric,29,59.7500480786,
./basicStim/28M_HA_O.jpg,,0,77,77,66,,,,,,,,,,,HAP,0.408,None,None,None,None,None,None,,,,,,,,,,,,,,,2015_Nov_09_1327,G,facesParametric,29,59.7500480786,
./basicStim/24M_HA_O.jpg,,0,78,78,59,,,,,,,,,,,HAP,0.574,None,None,None,None,None,None,,,,,,,,,,,,,,,2015_Nov_09_1327,G,facesParametric,29,59.7500480786,
./basicStim/28M_SP_O.jpg,,0,79,79,68,,,,,,,,,,,None,None,FEA,1.602,None,None,None,None,,,,,,,,,,,,,,,2015_Nov_09_1327,G,facesParametric,29,59.7500480786,
./basicStim/23M_DI_O.jpg,,0,80,80,50,,,,,,,,,,,None,None,FEA,1.579,None,None,None,None,,,,,,,,,,,,,,,2015_Nov_09_1327,G,facesParametric,29,59.7500480786,
./basicStim/24M_DI_O.jpg,,0,81,81,57,,,,,,,,,,,None,None,ANG,2.469,None,None,None,None,,,,,,,,,,,,,,,2015_Nov_09_1327,G,facesParametric,29,59.7500480786,
./basicStim/06F_AN_O.jpg,,0,82,82,21,,,,,,,,,,,None,None,ANG,2.014,None,None,None,None,,,,,,,,,,,,,,,2015_Nov_09_1327,G,facesParametric,29,59.7500480786,
./basicStim/03F_HA_O.jpg,,0,83,83,17,,,,,,,,,,,HAP,2.572,None,None,None,None,None,None,,,,,,,,,,,,,,,2015_Nov_09_1327,G,facesParametric,29,59.7500480786,
,,,,,,,,,,,,,,,,,,,,,,,,return,25.6767468452,,,,,,,,,,,,,2015_Nov_09_1327,G,facesParametric,29,59.7500480786,
,,,,,,,,,,,,,,return,1.10531210899,,,,,,,,,,,,,,,,,,,,,,,2015_Nov_09_1327,G,facesParametric,29,59.7500480786,
,,,,,,,,,,,,,,,,,,,,,,,,return,8.91666316986,,,,,,,,,,,,,2015_Nov_09_1327,G,facesParametric,29,59.7500480786,
,,,,,,,,,,,,,,,,,,,,,,,,,,return,1.7926568985,,,,,,,,,,,2015_Nov_09_1327,G,facesParametric,29,59.7500480786,
./stim/MorphF1_09_orig.jpg,0,,,,,0,0,0,0,,,,,,,,,,,,,,,,,,,-0.439453125,-4.072265625,0,0,1,4.00447511673,,,,,2015_Nov_09_1327,G,facesParametric,29,59.7500480786,
./stim/MorphM9_02_orig.jpg,1,,,,,0,1,1,1,,,,,,,,,,,,,,,,,,,-0.3515625,-3.984375,1,0,0,2.99525380135,,,,,2015_Nov_09_1327,G,facesParametric,29,59.7500480786,
./stim/MorphM10_00_orig.jpg,2,,,,,0,2,2,2,,,,,,,,,,,,,,,,,,,0.087890625,-3.779296875,1,0,0,2.39265394211,,,,,2015_Nov_09_1327,G,facesParametric,29,59.7500480786,
./stim/MorphM5_04_orig.jpg,3,,,,,0,3,3,3,,,,,,,,,,,,,,,,,,,0.087890625,-3.779296875,1,0,0,1.75913310051,,,,,2015_Nov_09_1327,G,facesParametric,29,59.7500480786,
./stim/MorphF6_08_orig.jpg,4,,,,,0,4,4,4,,,,,,,,,,,,,,,,,,,0.087890625,-3.779296875,0,0,1,0.70207285881,,,,,2015_Nov_09_1327,G,facesParametric,29,59.7500480786,
./stim/MorphF3_02_orig.jpg,5,,,,,0,5,5,5,,,,,,,,,,,,,,,,,,,1.201171875,-3.92578125,1,0,0,1.1888229847,,,,,2015_Nov_09_1327,G,facesParametric,29,59.7500480786,
./stim/MorphF2_09_orig.jpg,6,,,,,0,6,6,6,,,,,,,,,,,,,,,,,,,1.11328125,-8.115234375,0,0,1,0.804000139236,,,,,2015_Nov_09_1327,G,facesParametric,29,59.7500480786,
./stim/MorphM6_02_orig.jpg,7,,,,,0,7,7,7,,,,,,,,,,,,,,,,,,,1.46484375,-7.734375,1,0,0,1.3540019989,,,,,2015_Nov_09_1327,G,facesParametric,29,59.7500480786,
./stim/MorphF2_10_orig.jpg,8,,,,,0,8,8,8,,,,,,,,,,,,,,,,,,,1.2890625,-7.67578125,0,0,1,1.07125306129,,,,,2015_Nov_09_1327,G,facesParametric,29,59.7500480786,
./stim/MorphF3_07_orig.jpg,9,,,,,0,9,9,9,,,,,,,,,,,,,,,,,,,1.23046875,-7.646484375,0,0,1,2.04345703125,,,,,2015_Nov_09_1327,G,facesParametric,29,59.7500480786,
./stim/MorphF2_01_orig.jpg,10,,,,,0,10,10,10,,,,,,,,,,,,,,,,,,,1.171875,-7.646484375,0,0,1,1.30606508255,,,,,2015_Nov_09_1327,G,facesParametric,29,59.7500480786,
./stim/MorphM5_03_orig.jpg,11,,,,,0,11,11,11,,,,,,,,,,,,,,,,,,,1.171875,-7.646484375,0,0,1,1.3225209713,,,,,2015_Nov_09_1327,G,facesParametric,29,59.7500480786,
./stim/MorphM6_07_orig.jpg,12,,,,,0,12,12,12,,,,,,,,,,,,,,,,,,,1.171875,-7.646484375,0,0,1,0.920958995819,,,,,2015_Nov_09_1327,G,facesParametric,29,59.7500480786,
./stim/MorphM3_02_orig.jpg,13,,,,,0,13,13,13,,,,,,,,,,,,,,,,,,,1.171875,-7.646484375,0,0,1,0.85373711586,,,,,2015_Nov_09_1327,G,facesParametric,29,59.7500480786,
./stim/MorphF8_10_orig.jpg,14,,,,,0,14,14,14,,,,,,,,,,,,,,,,,,,0.0,-7.3828125,0,0,1,4.20528697968,,,,,2015_Nov_09_1327,G,facesParametric,29,59.7500480786,
./stim/MorphM4_02_orig.jpg,15,,,,,0,15,15,15,,,,,,,,,,,,,,,,,,,-0.556640625,-7.3828125,1,0,0,0.987402200699,,,,,2015_Nov_09_1327,G,facesParametric,29,59.7500480786,
./stim/MorphF8_04_orig.jpg,16,,,,,0,16,16,16,,,,,,,,,,,,,,,,,,,-0.556640625,-7.412109375,1,0,0,0.736869812012,,,,,2015_Nov_09_1327,G,facesParametric,29,59.7500480786,
./stim/MorphM7_07_orig.jpg,17,,,,,0,17,17,17,,,,,,,,,,,,,,,,,,,-3.3984375,-8.61328125,0,0,1,1.55547308922,,,,,2015_Nov_09_1327,G,facesParametric,29,59.7500480786,
./stim/MorphF8_06_orig.jpg,18,,,,,0,18,18,18,,,,,,,,,,,,,,,,,,,-3.955078125,-8.7890625,0,0,1,2.4293050766,,,,,2015_Nov_09_1327,G,facesParametric,29,59.7500480786,
./stim/MorphF2_02_orig.jpg,19,,,,,0,19,19,19,,,,,,,,,,,,,,,,,,,-4.892578125,-8.84765625,1,0,0,1.57289004326,,,,,2015_Nov_09_1327,G,facesParametric,29,59.7500480786,
./stim/MorphM2_10_orig.jpg,20,,,,,0,20,20,20,,,,,,,,,,,,,,,,,,,-5.302734375,-8.96484375,0,0,1,1.02143001556,,,,,2015_Nov_09_1327,G,facesParametric,29,59.7500480786,
./stim/MorphM10_06_orig.jpg,21,,,,,0,21,21,21,,,,,,,,,,,,,,,,,,,-6.474609375,-9.580078125,0,0,1,1.07137203217,,,,,2015_Nov_09_1327,G,facesParametric,29,59.7500480786,
./stim/MorphF10_03_orig.jpg,22,,,,,0,22,22,22,,,,,,,,,,,,,,,,,,,-6.62109375,-9.66796875,0,0,1,1.00455498695,,,,,2015_Nov_09_1327,G,facesParametric,29,59.7500480786,
./stim/MorphM5_01_orig.jpg,23,,,,,0,23,23,23,,,,,,,,,,,,,,,,,,,-6.416015625,-9.4921875,1,0,0,2.63035392761,,,,,2015_Nov_09_1327,G,facesParametric,29,59.7500480786,
./stim/MorphM4_04_orig.jpg,24,,,,,0,24,24,24,,,,,,,,,,,,,,,,,,,-6.5625,-9.462890625,0,0,1,1.23849391937,,,,,2015_Nov_09_1327,G,facesParametric,29,59.7500480786,
./stim/MorphF4_04_orig.jpg,25,,,,,0,25,25,25,,,,,,,,,,,,,,,,,,,-7.1484375,-9.814453125,1,0,0,0.835325956345,,,,,2015_Nov_09_1327,G,facesParametric,29,59.7500480786,
./stim/MorphF1_03_orig.jpg,26,,,,,0,26,26,26,,,,,,,,,,,,,,,,,,,-7.1484375,-9.814453125,1,0,0,1.57420396805,,,,,2015_Nov_09_1327,G,facesParametric,29,59.7500480786,
./stim/MorphM3_05_orig.jpg,27,,,,,0,27,27,27,,,,,,,,,,,,,,,,,,,-7.177734375,-9.814453125,0,0,1,1.03769493103,,,,,2015_Nov_09_1327,G,facesParametric,29,59.7500480786,
./stim/MorphM4_03_orig.jpg,28,,,,,0,28,28,28,,,,,,,,,,,,,,,,,,,-7.6171875,-9.931640625,1,0,0,1.38886594772,,,,,2015_Nov_09_1327,G,facesParametric,29,59.7500480786,
./stim/MorphF5_02_orig.jpg,29,,,,,0,29,29,29,,,,,,,,,,,,,,,,,,,-7.587890625,-10.078125,1,0,0,2.6799659729,,,,,2015_Nov_09_1327,G,facesParametric,29,59.7500480786,
./stim/MorphM1_03_orig.jpg,30,,,,,0,30,30,30,,,,,,,,,,,,,,,,,,,-7.55859375,-10.13671875,1,0,0,1.17051482201,,,,,2015_Nov_09_1327,G,facesParametric,29,59.7500480786,
./stim/MorphM4_00_orig.jpg,31,,,,,0,31,31,31,,,,,,,,,,,,,,,,,,,-7.55859375,-10.13671875,1,0,0,1.52510714531,,,,,2015_Nov_09_1327,G,facesParametric,29,59.7500480786,
./stim/MorphM9_07_orig.jpg,32,,,,,0,32,32,32,,,,,,,,,,,,,,,,,,,-7.587890625,-10.166015625,1,0,0,2.54386901855,,,,,2015_Nov_09_1327,G,facesParametric,29,59.7500480786,
./stim/MorphF9_03_orig.jpg,33,,,,,0,33,33,33,,,,,,,,,,,,,,,,,,,-7.587890625,-10.166015625,1,0,0,1.00445699692,,,,,2015_Nov_09_1327,G,facesParametric,29,59.7500480786,
./stim/MorphF1_07_orig.jpg,34,,,,,0,34,34,34,,,,,,,,,,,,,,,,,,,-7.587890625,-10.166015625,1,0,0,1.07017707825,,,,,2015_Nov_09_1327,G,facesParametric,29,59.7500480786,
./stim/MorphF6_00_orig.jpg,35,,,,,0,35,35,35,,,,,,,,,,,,,,,,,,,-7.587890625,-10.166015625,1,0,0,2.44513201714,,,,,2015_Nov_09_1327,G,facesParametric,29,59.7500480786,
./stim/MorphM7_04_orig.jpg,36,,,,,0,36,36,36,,,,,,,,,,,,,,,,,,,-7.6171875,-10.224609375,0,0,1,1.57451701164,,,,,2015_Nov_09_1327,G,facesParametric,29,59.7500480786,
./stim/MorphF9_06_orig.jpg,37,,,,,0,37,37,37,,,,,,,,,,,,,,,,,,,-7.91015625,-10.458984375,0,0,1,2.15981793404,,,,,2015_Nov_09_1327,G,facesParametric,29,59.7500480786,
./stim/MorphF3_09_orig.jpg,38,,,,,0,38,38,38,,,,,,,,,,,,,,,,,,,-7.939453125,-10.458984375,0,0,1,2.20877289772,,,,,2015_Nov_09_1327,G,facesParametric,29,59.7500480786,
./stim/MorphF4_08_orig.jpg,39,,,,,0,39,39,39,,,,,,,,,,,,,,,,,,,-7.998046875,-10.48828125,0,0,1,1.13856911659,,,,,2015_Nov_09_1327,G,facesParametric,29,59.7500480786,
./stim/MorphF7_09_orig.jpg,40,,,,,0,40,40,40,,,,,,,,,,,,,,,,,,,-8.056640625,-10.546875,0,0,1,1.42099714279,,,,,2015_Nov_09_1327,G,facesParametric,29,59.7500480786,
./stim/MorphM2_08_orig.jpg,41,,,,,0,41,41,41,,,,,,,,,,,,,,,,,,,-8.056640625,-10.546875,0,0,1,1.28931999207,,,,,2015_Nov_09_1327,G,facesParametric,29,59.7500480786,
./stim/MorphF10_06_orig.jpg,42,,,,,0,42,42,42,,,,,,,,,,,,,,,,,,,-8.0859375,-10.576171875,0,0,1,1.64060401917,,,,,2015_Nov_09_1327,G,facesParametric,29,59.7500480786,
./stim/MorphF7_01_orig.jpg,43,,,,,0,43,43,43,,,,,,,,,,,,,,,,,,,-8.0859375,-10.576171875,0,0,1,0.736112833023,,,,,2015_Nov_09_1327,G,facesParametric,29,59.7500480786,
./stim/MorphM10_01_orig.jpg,44,,,,,0,44,44,44,,,,,,,,,,,,,,,,,,,-8.115234375,-10.576171875,0,0,1,1.00391101837,,,,,2015_Nov_09_1327,G,facesParametric,29,59.7500480786,
./stim/MorphF7_00_orig.jpg,45,,,,,0,45,45,45,,,,,,,,,,,,,,,,,,,-8.115234375,-10.576171875,1,0,0,3.3172249794,,,,,2015_Nov_09_1327,G,facesParametric,29,59.7500480786,
./stim/MorphM2_05_orig.jpg,46,,,,,0,46,46,46,,,,,,,,,,,,,,,,,,,-8.115234375,-10.576171875,0,0,1,1.00388383865,,,,,2015_Nov_09_1327,G,facesParametric,29,59.7500480786,
./stim/MorphF10_10_orig.jpg,47,,,,,0,47,47,47,,,,,,,,,,,,,,,,,,,-8.115234375,-10.576171875,0,0,1,1.08801102638,,,,,2015_Nov_09_1327,G,facesParametric,29,59.7500480786,
./stim/MorphM6_04_orig.jpg,48,,,,,0,48,48,48,,,,,,,,,,,,,,,,,,,-8.291015625,-10.693359375,1,0,0,1.32257294655,,,,,2015_Nov_09_1327,G,facesParametric,29,59.7500480786,
./stim/MorphM5_09_orig.jpg,49,,,,,0,49,49,49,,,,,,,,,,,,,,,,,,,-8.291015625,-10.693359375,0,0,1,1.32319402695,,,,,2015_Nov_09_1327,G,facesParametric,29,59.7500480786,
./stim/MorphF5_01_orig.jpg,50,,,,,0,50,50,50,,,,,,,,,,,,,,,,,,,-8.203125,-10.6640625,1,0,0,2.04313707352,,,,,2015_Nov_09_1327,G,facesParametric,29,59.7500480786,
./stim/MorphF9_10_orig.jpg,51,,,,,0,51,51,51,,,,,,,,,,,,,,,,,,,-8.173828125,-9.931640625,0,0,1,3.28418684006,,,,,2015_Nov_09_1327,G,facesParametric,29,59.7500480786,
./stim/MorphM8_07_orig.jpg,52,,,,,0,52,52,52,,,,,,,,,,,,,,,,,,,-8.26171875,-10.01953125,0,0,1,0.851263046265,,,,,2015_Nov_09_1327,G,facesParametric,29,59.7500480786,
./stim/MorphF4_03_orig.jpg,53,,,,,0,53,53,53,,,,,,,,,,,,,,,,,,,-8.232421875,-10.078125,1,0,0,1.42362904549,,,,,2015_Nov_09_1327,G,facesParametric,29,59.7500480786,
./stim/MorphF1_01_orig.jpg,54,,,,,0,54,54,54,,,,,,,,,,,,,,,,,,,-8.232421875,-10.078125,1,0,0,1.74126195908,,,,,2015_Nov_09_1327,G,facesParametric,29,59.7500480786,
./stim/MorphM9_00_orig.jpg,55,,,,,0,55,55,55,,,,,,,,,,,,,,,,,,,-8.232421875,-10.078125,1,0,0,2.98233509064,,,,,2015_Nov_09_1327,G,facesParametric,29,59.7500480786,
./stim/MorphF4_06_orig.jpg,56,,,,,0,56,56,56,,,,,,,,,,,,,,,,,,,-8.232421875,-10.078125,0,0,1,0.802608013153,,,,,2015_Nov_09_1327,G,facesParametric,29,59.7500480786,
./stim/MorphM2_03_orig.jpg,57,,,,,0,57,57,57,,,,,,,,,,,,,,,,,,,-8.4375,-10.283203125,0,0,1,0.903374195099,,,,,2015_Nov_09_1327,G,facesParametric,29,59.7500480786,
./stim/MorphM1_02_orig.jpg,58,,,,,0,58,58,58,,,,,,,,,,,,,,,,,,,-8.466796875,-10.3125,1,0,0,4.42348694801,,,,,2015_Nov_09_1327,G,facesParametric,29,59.7500480786,
./stim/MorphM7_06_orig.jpg,59,,,,,0,59,59,59,,,,,,,,,,,,,,,,,,,-8.466796875,-10.3125,1,0,0,1.6744799614,,,,,2015_Nov_09_1327,G,facesParametric,29,59.7500480786,
./stim/MorphF5_05_orig.jpg,60,,,,,0,60,60,60,,,,,,,,,,,,,,,,,,,-8.466796875,-10.3125,1,0,0,1.80851101875,,,,,2015_Nov_09_1327,G,facesParametric,29,59.7500480786,
./stim/MorphM6_05_orig.jpg,61,,,,,0,61,61,61,,,,,,,,,,,,,,,,,,,-8.466796875,-10.3125,1,0,0,1.23929381371,,,,,2015_Nov_09_1327,G,facesParametric,29,59.7500480786,
./stim/MorphF3_03_orig.jpg,62,,,,,0,62,62,62,,,,,,,,,,,,,,,,,,,-8.466796875,-10.3125,0,0,1,3.61865711212,,,,,2015_Nov_09_1327,G,facesParametric,29,59.7500480786,
./stim/MorphM9_06_orig.jpg,63,,,,,0,63,63,63,,,,,,,,,,,,,,,,,,,-8.642578125,-10.400390625,1,0,0,1.22192215919,,,,,2015_Nov_09_1327,G,facesParametric,29,59.7500480786,
./stim/MorphF9_00_orig.jpg,64,,,,,0,64,64,64,,,,,,,,,,,,,,,,,,,-8.642578125,-10.400390625,1,0,0,1.42327404022,,,,,2015_Nov_09_1327,G,facesParametric,29,59.7500480786,
./stim/MorphM7_01_orig.jpg,65,,,,,0,65,65,65,,,,,,,,,,,,,,,,,,,-8.642578125,-10.400390625,0,0,1,1.17172813416,,,,,2015_Nov_09_1327,G,facesParametric,29,59.7500480786,
./stim/MorphM3_10_orig.jpg,66,,,,,0,66,66,66,,,,,,,,,,,,,,,,,,,-8.642578125,-10.400390625,1,0,0,1.37335300446,,,,,2015_Nov_09_1327,G,facesParametric,29,59.7500480786,
./stim/MorphF5_07_orig.jpg,67,,,,,0,67,67,67,,,,,,,,,,,,,,,,,,,-8.642578125,-10.400390625,0,0,1,1.17150807381,,,,,2015_Nov_09_1327,G,facesParametric,29,59.7500480786,
./stim/MorphM3_03_orig.jpg,68,,,,,0,68,68,68,,,,,,,,,,,,,,,,,,,-8.759765625,-10.458984375,0,0,1,1.32326221466,,,,,2015_Nov_09_1327,G,facesParametric,29,59.7500480786,
./stim/MorphF2_06_orig.jpg,69,,,,,0,69,69,69,,,,,,,,,,,,,,,,,,,-8.7890625,-10.48828125,0,0,1,1.1047809124,,,,,2015_Nov_09_1327,G,facesParametric,29,59.7500480786,
./stim/MorphM6_08_orig.jpg,70,,,,,0,70,70,70,,,,,,,,,,,,,,,,,,,-8.876953125,-10.517578125,0,0,1,0.784559011459,,,,,2015_Nov_09_1327,G,facesParametric,29,59.7500480786,
./stim/MorphM9_05_orig.jpg,71,,,,,0,71,71,71,,,,,,,,,,,,,,,,,,,-8.90625,-10.546875,0,0,1,0.834528923035,,,,,2015_Nov_09_1327,G,facesParametric,29,59.7500480786,
./stim/MorphF4_05_orig.jpg,72,,,,,0,72,72,72,,,,,,,,,,,,,,,,,,,-8.90625,-10.546875,0,0,1,0.702610969543,,,,,2015_Nov_09_1327,G,facesParametric,29,59.7500480786,
./stim/MorphM10_03_orig.jpg,73,,,,,0,73,73,73,,,,,,,,,,,,,,,,,,,-8.90625,-10.546875,0,0,1,2.88165307045,,,,,2015_Nov_09_1327,G,facesParametric,29,59.7500480786,
./stim/MorphF2_03_orig.jpg,74,,,,,0,74,74,74,,,,,,,,,,,,,,,,,,,-8.90625,-10.546875,1,0,0,1.30598211288,,,,,2015_Nov_09_1327,G,facesParametric,29,59.7500480786,
./stim/MorphM7_00_orig.jpg,75,,,,,0,75,75,75,,,,,,,,,,,,,,,,,,,-8.876953125,-10.458984375,0,0,1,0.935117006302,,,,,2015_Nov_09_1327,G,facesParametric,29,59.7500480786,
./stim/MorphF7_02_orig.jpg,76,,,,,0,76,76,76,,,,,,,,,,,,,,,,,,,-8.3203125,-9.78515625,1,0,0,0.953933954239,,,,,2015_Nov_09_1327,G,facesParametric,29,59.7500480786,
./stim/MorphF10_02_orig.jpg,77,,,,,0,77,77,77,,,,,,,,,,,,,,,,,,,-8.3203125,-9.78515625,0,0,1,0.937636137009,,,,,2015_Nov_09_1327,G,facesParametric,29,59.7500480786,
./stim/MorphM10_09_orig.jpg,78,,,,,0,78,78,78,,,,,,,,,,,,,,,,,,,-8.3203125,-9.78515625,0,0,1,0.901258945465,,,,,2015_Nov_09_1327,G,facesParametric,29,59.7500480786,
./stim/MorphF7_10_orig.jpg,79,,,,,0,79,79,79,,,,,,,,,,,,,,,,,,,-8.3203125,-9.78515625,0,0,1,0.803030967712,,,,,2015_Nov_09_1327,G,facesParametric,29,59.7500480786,
./stim/MorphF4_00_orig.jpg,80,,,,,0,80,80,80,,,,,,,,,,,,,,,,,,,-8.3203125,-9.78515625,0,0,1,0.803480863571,,,,,2015_Nov_09_1327,G,facesParametric,29,59.7500480786,
./stim/MorphF8_08_orig.jpg,81,,,,,0,81,81,81,,,,,,,,,,,,,,,,,,,-8.3203125,-9.78515625,0,0,1,1.70823788643,,,,,2015_Nov_09_1327,G,facesParametric,29,59.7500480786,
./stim/MorphM1_01_orig.jpg,82,,,,,0,82,82,82,,,,,,,,,,,,,,,,,,,-8.3203125,-9.78515625,0,0,1,1.99156284332,,,,,2015_Nov_09_1327,G,facesParametric,29,59.7500480786,
./stim/MorphF8_03_orig.jpg,83,,,,,0,83,83,83,,,,,,,,,,,,,,,,,,,-8.3203125,-9.78515625,1,0,0,2.3118019104,,,,,2015_Nov_09_1327,G,facesParametric,29,59.7500480786,
./stim/MorphM3_08_orig.jpg,84,,,,,0,84,84,84,,,,,,,,,,,,,,,,,,,-8.3203125,-9.78515625,0,0,1,0.75293302536,,,,,2015_Nov_09_1327,G,facesParametric,29,59.7500480786,
./stim/MorphF1_00_orig.jpg,85,,,,,0,85,85,85,,,,,,,,,,,,,,,,,,,-8.4375,-9.873046875,1,0,0,2.51263213158,,,,,2015_Nov_09_1327,G,facesParametric,29,59.7500480786,
./stim/MorphM10_07_orig.jpg,86,,,,,0,86,86,86,,,,,,,,,,,,,,,,,,,-8.4375,-9.873046875,0,0,1,0.818964958191,,,,,2015_Nov_09_1327,G,facesParametric,29,59.7500480786,
./stim/MorphF8_07_orig.jpg,87,,,,,0,87,87,87,,,,,,,,,,,,,,,,,,,-8.4375,-9.873046875,1,0,0,1.08631587029,,,,,2015_Nov_09_1327,G,facesParametric,29,59.7500480786,
./stim/MorphM4_08_orig.jpg,88,,,,,0,88,88,88,,,,,,,,,,,,,,,,,,,-8.4375,-9.873046875,0,0,1,3.03241610527,,,,,2015_Nov_09_1327,G,facesParametric,29,59.7500480786,
./stim/MorphM5_10_orig.jpg,89,,,,,0,89,89,89,,,,,,,,,,,,,,,,,,,-8.4375,-9.873046875,1,0,0,3.06552791595,,,,,2015_Nov_09_1327,G,facesParametric,29,59.7500480786,
./stim/MorphF3_00_orig.jpg,90,,,,,0,90,90,90,,,,,,,,,,,,,,,,,,,-8.4375,-9.873046875,1,0,0,3.16629600525,,,,,2015_Nov_09_1327,G,facesParametric,29,59.7500480786,
./stim/MorphM8_10_orig.jpg,91,,,,,0,91,91,91,,,,,,,,,,,,,,,,,,,-8.466796875,-9.90234375,0,0,1,0.769701957703,,,,,2015_Nov_09_1327,G,facesParametric,29,59.7500480786,
./stim/MorphF2_04_orig.jpg,92,,,,,0,92,92,92,,,,,,,,,,,,,,,,,,,-8.5546875,-9.9609375,1,0,0,1.00421905518,,,,,2015_Nov_09_1327,G,facesParametric,29,59.7500480786,
./stim/MorphM2_07_orig.jpg,93,,,,,0,93,93,93,,,,,,,,,,,,,,,,,,,-8.5546875,-9.9609375,0,0,1,1.7584540844,,,,,2015_Nov_09_1327,G,facesParametric,29,59.7500480786,
./stim/MorphM6_10_orig.jpg,94,,,,,0,94,94,94,,,,,,,,,,,,,,,,,,,-8.5546875,-9.9609375,0,0,1,1.23886704445,,,,,2015_Nov_09_1327,G,facesParametric,29,59.7500480786,
./stim/MorphF6_03_orig.jpg,95,,,,,0,95,95,95,,,,,,,,,,,,,,,,,,,-8.5546875,-9.9609375,1,0,0,0.903788089752,,,,,2015_Nov_09_1327,G,facesParametric,29,59.7500480786,
./stim/MorphF7_03_orig.jpg,96,,,,,0,96,96,96,,,,,,,,,,,,,,,,,,,-8.5546875,-9.9609375,1,0,0,1.03689408302,,,,,2015_Nov_09_1327,G,facesParametric,29,59.7500480786,
./stim/MorphM5_00_orig.jpg,97,,,,,0,97,97,97,,,,,,,,,,,,,,,,,,,-8.5546875,-9.9609375,0,0,1,0.718946933746,,,,,2015_Nov_09_1327,G,facesParametric,29,59.7500480786,
./stim/MorphF5_03_orig.jpg,98,,,,,0,98,98,98,,,,,,,,,,,,,,,,,,,-8.5546875,-9.9609375,1,0,0,2.02678203583,,,,,2015_Nov_09_1327,G,facesParametric,29,59.7500480786,
./stim/MorphM2_09_orig.jpg,99,,,,,0,99,99,99,,,,,,,,,,,,,,,,,,,-8.5546875,-9.9609375,0,0,1,2.27706480026,,,,,2015_Nov_09_1327,G,facesParametric,29,59.7500480786,
./stim/MorphM3_01_orig.jpg,100,,,,,0,100,100,100,,,,,,,,,,,,,,,,,,,-8.5546875,-9.9609375,0,0,1,1.52405881882,,,,,2015_Nov_09_1327,G,facesParametric,29,59.7500480786,
./stim/MorphF7_07_orig.jpg,101,,,,,0,101,101,101,,,,,,,,,,,,,,,,,,,-8.5546875,-9.9609375,1,0,0,1.18680500984,,,,,2015_Nov_09_1327,G,facesParametric,29,59.7500480786,
./stim/MorphM8_03_orig.jpg,102,,,,,0,102,102,102,,,,,,,,,,,,,,,,,,,-8.5546875,-9.9609375,1,0,0,1.57418608665,,,,,2015_Nov_09_1327,G,facesParametric,29,59.7500480786,
./stim/MorphF1_10_orig.jpg,103,,,,,0,103,103,103,,,,,,,,,,,,,,,,,,,-8.5546875,-9.9609375,1,0,0,2.27784395218,,,,,2015_Nov_09_1327,G,facesParametric,29,59.7500480786,
./stim/MorphF3_06_orig.jpg,104,,,,,0,104,104,104,,,,,,,,,,,,,,,,,,,-8.5546875,-9.9609375,1,0,0,1.33801388741,,,,,2015_Nov_09_1327,G,facesParametric,29,59.7500480786,
./stim/MorphF6_01_orig.jpg,105,,,,,0,105,105,105,,,,,,,,,,,,,,,,,,,-8.5546875,-9.9609375,1,0,0,0.853142976761,,,,,2015_Nov_09_1327,G,facesParametric,29,59.7500480786,
./stim/MorphM2_02_orig.jpg,106,,,,,0,106,106,106,,,,,,,,,,,,,,,,,,,-8.5546875,-9.9609375,1,0,0,1.43925595284,,,,,2015_Nov_09_1327,G,facesParametric,29,59.7500480786,
./stim/MorphF3_10_orig.jpg,107,,,,,0,107,107,107,,,,,,,,,,,,,,,,,,,-8.5546875,-9.9609375,0,0,1,1.02065706253,,,,,2015_Nov_09_1327,G,facesParametric,29,59.7500480786,
./stim/MorphM8_00_orig.jpg,108,,,,,0,108,108,108,,,,,,,,,,,,,,,,,,,-8.5546875,-9.9609375,0,0,1,2.31182193756,,,,,2015_Nov_09_1327,G,facesParametric,29,59.7500480786,
./stim/MorphM7_05_orig.jpg,109,,,,,0,109,109,109,,,,,,,,,,,,,,,,,,,-8.5546875,-9.9609375,0,0,1,0.853384971619,,,,,2015_Nov_09_1327,G,facesParametric,29,59.7500480786,
./stim/MorphM6_01_orig.jpg,110,,,,,0,110,110,110,,,,,,,,,,,,,,,,,,,-8.5546875,-9.9609375,1,0,0,1.22228384018,,,,,2015_Nov_09_1327,G,facesParametric,29,59.7500480786,
./stim/MorphF3_05_orig.jpg,111,,,,,0,111,111,111,,,,,,,,,,,,,,,,,,,-8.5546875,-9.9609375,1,0,0,2.49587392807,,,,,2015_Nov_09_1327,G,facesParametric,29,59.7500480786,
./stim/MorphM1_07_orig.jpg,112,,,,,0,112,112,112,,,,,,,,,,,,,,,,,,,-8.5546875,-9.9609375,0,0,1,2.00845909119,,,,,2015_Nov_09_1327,G,facesParametric,29,59.7500480786,
./stim/MorphM4_10_orig.jpg,113,,,,,0,113,113,113,,,,,,,,,,,,,,,,,,,-8.583984375,-9.990234375,1,0,0,1.90906095505,,,,,2015_Nov_09_1327,G,facesParametric,29,59.7500480786,
./stim/MorphF9_08_orig.jpg,114,,,,,0,114,114,114,,,,,,,,,,,,,,,,,,,-8.61328125,-9.990234375,0,0,1,1.59078598022,,,,,2015_Nov_09_1327,G,facesParametric,29,59.7500480786,
./stim/MorphF4_01_orig.jpg,115,,,,,0,115,115,115,,,,,,,,,,,,,,,,,,,-9.7265625,-10.48828125,1,0,0,1.22229194641,,,,,2015_Nov_09_1327,G,facesParametric,29,59.7500480786,
./stim/MorphF1_04_orig.jpg,116,,,,,0,116,116,116,,,,,,,,,,,,,,,,,,,-9.521484375,-10.37109375,1,0,0,1.35622286797,,,,,2015_Nov_09_1327,G,facesParametric,29,59.7500480786,
./stim/MorphM8_05_orig.jpg,117,,,,,0,117,117,117,,,,,,,,,,,,,,,,,,,-9.4921875,-10.341796875,1,0,0,1.0884578228,,,,,2015_Nov_09_1327,G,facesParametric,29,59.7500480786,
./stim/MorphM2_00_orig.jpg,118,,,,,0,118,118,118,,,,,,,,,,,,,,,,,,,-9.4921875,-10.341796875,1,0,0,0.767832994461,,,,,2015_Nov_09_1327,G,facesParametric,29,59.7500480786,
./stim/MorphF2_00_orig.jpg,119,,,,,0,119,119,119,,,,,,,,,,,,,,,,,,,-9.4921875,-10.341796875,1,0,0,0.769794940948,,,,,2015_Nov_09_1327,G,facesParametric,29,59.7500480786,
./stim/MorphM3_06_orig.jpg,120,,,,,0,120,120,120,,,,,,,,,,,,,,,,,,,-9.4921875,-10.341796875,1,0,0,0.853658914566,,,,,2015_Nov_09_1327,G,facesParametric,29,59.7500480786,
./stim/MorphM8_06_orig.jpg,121,,,,,0,121,121,121,,,,,,,,,,,,,,,,,,,-9.4921875,-10.341796875,0,0,1,3.3673350811,,,,,2015_Nov_09_1327,G,facesParametric,29,59.7500480786,
./stim/MorphM9_10_orig.jpg,122,,,,,0,122,122,122,,,,,,,,,,,,,,,,,,,-9.4921875,-10.341796875,0,0,1,0.618728876114,,,,,2015_Nov_09_1327,G,facesParametric,29,59.7500480786,
./stim/MorphF10_07_orig.jpg,123,,,,,0,123,123,123,,,,,,,,,,,,,,,,,,,-9.4921875,-10.341796875,0,0,1,0.636047124863,,,,,2015_Nov_09_1327,G,facesParametric,29,59.7500480786,
./stim/MorphF2_07_orig.jpg,124,,,,,0,124,124,124,,,,,,,,,,,,,,,,,,,-9.55078125,-10.400390625,0,0,1,1.23873090744,,,,,2015_Nov_09_1327,G,facesParametric,29,59.7500480786,
./stim/MorphF7_05_orig.jpg,125,,,,,0,125,125,125,,,,,,,,,,,,,,,,,,,-9.55078125,-10.400390625,1,0,0,1.30606603622,,,,,2015_Nov_09_1327,G,facesParametric,29,59.7500480786,
./stim/MorphM6_06_orig.jpg,126,,,,,0,126,126,126,,,,,,,,,,,,,,,,,,,-9.55078125,-10.400390625,0,0,1,1.54042100906,,,,,2015_Nov_09_1327,G,facesParametric,29,59.7500480786,
./stim/MorphM5_06_orig.jpg,127,,,,,0,127,127,127,,,,,,,,,,,,,,,,,,,-9.755859375,-10.517578125,0,0,1,5.68132996559,,,,,2015_Nov_09_1327,G,facesParametric,29,59.7500480786,
./stim/MorphM10_05_orig.jpg,128,,,,,0,128,128,128,,,,,,,,,,,,,,,,,,,-9.78515625,-10.546875,0,0,1,0.95285320282,,,,,2015_Nov_09_1327,G,facesParametric,29,59.7500480786,
./stim/MorphF9_09_orig.jpg,129,,,,,0,129,129,129,,,,,,,,,,,,,,,,,,,-9.873046875,-10.60546875,0,0,1,0.734158992767,,,,,2015_Nov_09_1327,G,facesParametric,29,59.7500480786,
./stim/MorphM3_09_orig.jpg,130,,,,,0,130,130,130,,,,,,,,,,,,,,,,,,,-9.873046875,-10.60546875,0,0,1,0.68608880043,,,,,2015_Nov_09_1327,G,facesParametric,29,59.7500480786,
./stim/MorphM1_06_orig.jpg,131,,,,,0,131,131,131,,,,,,,,,,,,,,,,,,,-9.90234375,-10.60546875,0,0,1,1.13839697838,,,,,2015_Nov_09_1327,G,facesParametric,29,59.7500480786,
./stim/MorphF3_01_orig.jpg,132,,,,,0,132,132,132,,,,,,,,,,,,,,,,,,,-9.990234375,-10.6640625,1,0,0,1.69161891937,,,,,2015_Nov_09_1327,G,facesParametric,29,59.7500480786,
./stim/MorphF9_07_orig.jpg,133,,,,,0,133,133,133,,,,,,,,,,,,,,,,,,,-10.01953125,-10.693359375,1,0,0,2.62998485565,,,,,2015_Nov_09_1327,G,facesParametric,29,59.7500480786,
./stim/MorphF6_05_orig.jpg,134,,,,,0,134,134,134,,,,,,,,,,,,,,,,,,,-10.01953125,-10.693359375,1,0,0,0.601693868637,,,,,2015_Nov_09_1327,G,facesParametric,29,59.7500480786,
./stim/MorphM6_09_orig.jpg,135,,,,,0,135,135,135,,,,,,,,,,,,,,,,,,,-10.01953125,-10.693359375,1,0,0,0.667447090149,,,,,2015_Nov_09_1327,G,facesParametric,29,59.7500480786,
./stim/MorphF6_10_orig.jpg,136,,,,,0,136,136,136,,,,,,,,,,,,,,,,,,,-10.01953125,-10.693359375,0,0,1,0.837054014206,,,,,2015_Nov_09_1327,G,facesParametric,29,59.7500480786,
./stim/MorphM7_03_orig.jpg,137,,,,,0,137,137,137,,,,,,,,,,,,,,,,,,,-9.90234375,-10.546875,1,0,0,2.79562902451,,,,,2015_Nov_09_1327,G,facesParametric,29,59.7500480786,
./stim/MorphF8_00_orig.jpg,138,,,,,0,138,138,138,,,,,,,,,,,,,,,,,,,-9.90234375,-10.546875,0,0,1,0.76944899559,,,,,2015_Nov_09_1327,G,facesParametric,29,59.7500480786,
./stim/MorphM3_04_orig.jpg,139,,,,,0,139,139,139,,,,,,,,,,,,,,,,,,,-9.90234375,-10.546875,1,0,0,3.66902303696,,,,,2015_Nov_09_1327,G,facesParametric,29,59.7500480786,
./stim/MorphM1_09_orig.jpg,140,,,,,0,140,140,140,,,,,,,,,,,,,,,,,,,-9.90234375,-10.546875,0,0,1,2.7806019783,,,,,2015_Nov_09_1327,G,facesParametric,29,59.7500480786,
./stim/MorphM2_06_orig.jpg,141,,,,,0,141,141,141,,,,,,,,,,,,,,,,,,,-9.90234375,-10.546875,0,0,1,1.89293384552,,,,,2015_Nov_09_1327,G,facesParametric,29,59.7500480786,
./stim/MorphM10_08_orig.jpg,142,,,,,0,142,142,142,,,,,,,,,,,,,,,,,,,-10.83984375,-11.19140625,0,0,1,1.9740459919,,,,,2015_Nov_09_1327,G,facesParametric,29,59.7500480786,
./stim/MorphM9_01_orig.jpg,143,,,,,0,143,143,143,,,,,,,,,,,,,,,,,,,-10.83984375,-11.19140625,1,0,0,1.25566005707,,,,,2015_Nov_09_1327,G,facesParametric,29,59.7500480786,
./stim/MorphF1_05_orig.jpg,144,,,,,0,144,144,144,,,,,,,,,,,,,,,,,,,-10.83984375,-11.19140625,1,0,0,1.22248411179,,,,,2015_Nov_09_1327,G,facesParametric,29,59.7500480786,
./stim/MorphF6_06_orig.jpg,145,,,,,0,145,145,145,,,,,,,,,,,,,,,,,,,-10.83984375,-11.19140625,1,0,0,1.35609412193,,,,,2015_Nov_09_1327,G,facesParametric,29,59.7500480786,
./stim/MorphM2_04_orig.jpg,146,,,,,0,146,146,146,,,,,,,,,,,,,,,,,,,-10.83984375,-11.19140625,1,0,0,3.28199386597,,,,,2015_Nov_09_1327,G,facesParametric,29,59.7500480786,
./stim/MorphF9_01_orig.jpg,147,,,,,0,147,147,147,,,,,,,,,,,,,,,,,,,-10.8984375,-11.19140625,1,0,0,5.00976705551,,,,,2015_Nov_09_1327,G,facesParametric,29,59.7500480786,
./stim/MorphM3_07_orig.jpg,148,,,,,0,148,148,148,,,,,,,,,,,,,,,,,,,-10.8984375,-11.19140625,1,0,0,1.42132282257,,,,,2015_Nov_09_1327,G,facesParametric,29,59.7500480786,
./stim/MorphF2_08_orig.jpg,149,,,,,0,149,149,149,,,,,,,,,,,,,,,,,,,-10.8984375,-11.19140625,0,0,1,1.15539312363,,,,,2015_Nov_09_1327,G,facesParametric,29,59.7500480786,
./stim/MorphM9_03_orig.jpg,150,,,,,0,150,150,150,,,,,,,,,,,,,,,,,,,-10.8984375,-11.19140625,0,0,1,1.87601089478,,,,,2015_Nov_09_1327,G,facesParametric,29,59.7500480786,
./stim/MorphF6_09_orig.jpg,151,,,,,0,151,151,151,,,,,,,,,,,,,,,,,,,-11.220703125,-11.30859375,0,0,1,0.970685958862,,,,,2015_Nov_09_1327,G,facesParametric,29,59.7500480786,
./stim/MorphM1_08_orig.jpg,152,,,,,0,152,152,152,,,,,,,,,,,,,,,,,,,-11.337890625,-11.30859375,0,0,1,1.35601806641,,,,,2015_Nov_09_1327,G,facesParametric,29,59.7500480786,
./stim/MorphM8_02_orig.jpg,153,,,,,0,153,153,153,,,,,,,,,,,,,,,,,,,-11.337890625,-11.30859375,0,0,1,0.785099029541,,,,,2015_Nov_09_1327,G,facesParametric,29,59.7500480786,
./stim/MorphF3_04_orig.jpg,154,,,,,0,154,154,154,,,,,,,,,,,,,,,,,,,-11.337890625,-11.30859375,0,0,1,0.869630098343,,,,,2015_Nov_09_1327,G,facesParametric,29,59.7500480786,
./stim/MorphF1_08_orig.jpg,155,,,,,0,155,155,155,,,,,,,,,,,,,,,,,,,-11.337890625,-11.30859375,1,0,0,2.24451613426,,,,,2015_Nov_09_1327,G,facesParametric,29,59.7500480786,
./stim/MorphF10_05_orig.jpg,156,,,,,0,156,156,156,,,,,,,,,,,,,,,,,,,-11.337890625,-11.30859375,0,0,1,1.0043129921,,,,,2015_Nov_09_1327,G,facesParametric,29,59.7500480786,
./stim/MorphM3_00_orig.jpg,157,,,,,0,157,157,157,,,,,,,,,,,,,,,,,,,-11.42578125,-11.3671875,1,0,0,3.83706688881,,,,,2015_Nov_09_1327,G,facesParametric,29,59.7500480786,
./stim/MorphF7_08_orig.jpg,158,,,,,0,158,158,158,,,,,,,,,,,,,,,,,,,-11.455078125,-11.396484375,1,0,0,0.92058801651,,,,,2015_Nov_09_1327,G,facesParametric,29,59.7500480786,
./stim/MorphM8_01_orig.jpg,159,,,,,0,159,159,159,,,,,,,,,,,,,,,,,,,-11.455078125,-11.396484375,0,0,1,0.702469110489,,,,,2015_Nov_09_1327,G,facesParametric,29,59.7500480786,
./stim/MorphM1_04_orig.jpg,160,,,,,0,160,160,160,,,,,,,,,,,,,,,,,,,-12.3046875,-11.806640625,0,0,1,1.82527399063,,,,,2015_Nov_09_1327,G,facesParametric,29,59.7500480786,
./stim/MorphF1_06_orig.jpg,161,,,,,0,161,161,161,,,,,,,,,,,,,,,,,,,-12.392578125,-11.865234375,1,0,0,1.55744194984,,,,,2015_Nov_09_1327,G,facesParametric,29,59.7500480786,
./stim/MorphF9_04_orig.jpg,162,,,,,0,162,162,162,,,,,,,,,,,,,,,,,,,-12.392578125,-11.865234375,1,0,0,0.802000999451,,,,,2015_Nov_09_1327,G,facesParametric,29,59.7500480786,
./stim/MorphF5_10_orig.jpg,163,,,,,0,163,163,163,,,,,,,,,,,,,,,,,,,-12.392578125,-11.865234375,0,0,1,1.42167305946,,,,,2015_Nov_09_1327,G,facesParametric,29,59.7500480786,
./stim/MorphM1_10_orig.jpg,164,,,,,0,164,164,164,,,,,,,,,,,,,,,,,,,-12.48046875,-11.89453125,0,0,1,0.903544187546,,,,,2015_Nov_09_1327,G,facesParametric,29,59.7500480786,
./stim/MorphM10_04_orig.jpg,165,,,,,0,165,165,165,,,,,,,,,,,,,,,,,,,-12.5390625,-11.953125,0,0,1,0.752883911133,,,,,2015_Nov_09_1327,G,facesParametric,29,59.7500480786,
./stim/MorphF5_04_orig.jpg,166,,,,,0,166,166,166,,,,,,,,,,,,,,,,,,,-12.5390625,-11.953125,1,0,0,2.10952281952,,,,,2015_Nov_09_1327,G,facesParametric,29,59.7500480786,
./stim/MorphM5_08_orig.jpg,167,,,,,0,167,167,167,,,,,,,,,,,,,,,,,,,-12.5390625,-11.953125,1,0,0,1.80842208862,,,,,2015_Nov_09_1327,G,facesParametric,29,59.7500480786,
./stim/MorphM10_02_orig.jpg,168,,,,,0,168,168,168,,,,,,,,,,,,,,,,,,,-12.5390625,-11.953125,1,0,0,1.28934216499,,,,,2015_Nov_09_1327,G,facesParametric,29,59.7500480786,
./stim/MorphM4_06_orig.jpg,169,,,,,0,169,169,169,,,,,,,,,,,,,,,,,,,-12.5390625,-11.953125,0,0,1,2.67889809608,,,,,2015_Nov_09_1327,G,facesParametric,29,59.7500480786,
./stim/MorphF6_07_orig.jpg,170,,,,,0,170,170,170,,,,,,,,,,,,,,,,,,,-12.626953125,-12.01171875,1,0,0,0.903748035431,,,,,2015_Nov_09_1327,G,facesParametric,29,59.7500480786,
./stim/MorphM4_07_orig.jpg,171,,,,,0,171,171,171,,,,,,,,,,,,,,,,,,,-12.626953125,-12.01171875,0,0,1,0.752964019775,,,,,2015_Nov_09_1327,G,facesParametric,29,59.7500480786,
./stim/MorphF7_04_orig.jpg,172,,,,,0,172,172,172,,,,,,,,,,,,,,,,,,,-12.626953125,-12.01171875,1,0,0,0.836906909943,,,,,2015_Nov_09_1327,G,facesParametric,29,59.7500480786,
./stim/MorphF8_09_orig.jpg,173,,,,,0,173,173,173,,,,,,,,,,,,,,,,,,,-12.626953125,-12.01171875,1,0,0,1.52360701561,,,,,2015_Nov_09_1327,G,facesParametric,29,59.7500480786,
./stim/MorphF5_08_orig.jpg,174,,,,,0,174,174,174,,,,,,,,,,,,,,,,,,,-12.626953125,-12.01171875,0,0,1,2.2432050705,,,,,2015_Nov_09_1327,G,facesParametric,29,59.7500480786,
./stim/MorphM4_09_orig.jpg,175,,,,,0,175,175,175,,,,,,,,,,,,,,,,,,,-12.626953125,-12.01171875,0,0,1,1.48992586136,,,,,2015_Nov_09_1327,G,facesParametric,29,59.7500480786,
./stim/MorphM1_05_orig.jpg,176,,,,,0,176,176,176,,,,,,,,,,,,,,,,,,,-12.744140625,-12.099609375,0,0,1,1.47331786156,,,,,2015_Nov_09_1327,G,facesParametric,29,59.7500480786,
./stim/MorphF4_02_orig.jpg,177,,,,,0,177,177,177,,,,,,,,,,,,,,,,,,,-12.744140625,-12.099609375,0,0,1,0.918838977814,,,,,2015_Nov_09_1327,G,facesParametric,29,59.7500480786,
./stim/MorphM7_08_orig.jpg,178,,,,,0,178,178,178,,,,,,,,,,,,,,,,,,,-12.861328125,-12.099609375,0,0,1,0.635720014572,,,,,2015_Nov_09_1327,G,facesParametric,29,59.7500480786,
./stim/MorphF4_10_orig.jpg,179,,,,,0,179,179,179,,,,,,,,,,,,,,,,,,,-12.861328125,-12.099609375,0,0,1,0.517681837082,,,,,2015_Nov_09_1327,G,facesParametric,29,59.7500480786,
./stim/MorphF5_09_orig.jpg,180,,,,,0,180,180,180,,,,,,,,,,,,,,,,,,,-12.94921875,-11.54296875,0,0,1,0.619288921356,,,,,2015_Nov_09_1327,G,facesParametric,29,59.7500480786,
./stim/MorphM7_02_orig.jpg,181,,,,,0,181,181,181,,,,,,,,,,,,,,,,,,,-12.94921875,-11.484375,0,0,1,0.920811891556,,,,,2015_Nov_09_1327,G,facesParametric,29,59.7500480786,
./stim/MorphM5_05_orig.jpg,182,,,,,0,182,182,182,,,,,,,,,,,,,,,,,,,-12.94921875,-11.484375,1,0,0,1.05513000488,,,,,2015_Nov_09_1327,G,facesParametric,29,59.7500480786,
./stim/MorphF8_05_orig.jpg,183,,,,,0,183,183,183,,,,,,,,,,,,,,,,,,,-12.94921875,-11.484375,1,0,0,1.05374383926,,,,,2015_Nov_09_1327,G,facesParametric,29,59.7500480786,
./stim/MorphF10_04_orig.jpg,184,,,,,0,184,184,184,,,,,,,,,,,,,,,,,,,-12.94921875,-11.484375,1,0,0,0.853231906891,,,,,2015_Nov_09_1327,G,facesParametric,29,59.7500480786,
./stim/MorphM7_09_orig.jpg,185,,,,,0,185,185,185,,,,,,,,,,,,,,,,,,,-12.94921875,-11.484375,0,0,1,0.78729891777,,,,,2015_Nov_09_1327,G,facesParametric,29,59.7500480786,
./stim/MorphM8_04_orig.jpg,186,,,,,0,186,186,186,,,,,,,,,,,,,,,,,,,-13.30078125,-11.513671875,0,0,1,0.652506113052,,,,,2015_Nov_09_1327,G,facesParametric,29,59.7500480786,
./stim/MorphF5_00_orig.jpg,187,,,,,0,187,187,187,,,,,,,,,,,,,,,,,,,-13.388671875,-11.6015625,1,0,0,1.15420794487,,,,,2015_Nov_09_1327,G,facesParametric,29,59.7500480786,
./stim/MorphM9_08_orig.jpg,188,,,,,0,188,188,188,,,,,,,,,,,,,,,,,,,-13.388671875,-11.6015625,0,0,1,0.635329008102,,,,,2015_Nov_09_1327,G,facesParametric,29,59.7500480786,
./stim/MorphF9_02_orig.jpg,189,,,,,0,189,189,189,,,,,,,,,,,,,,,,,,,-13.388671875,-11.6015625,1,0,0,0.836936950684,,,,,2015_Nov_09_1327,G,facesParametric,29,59.7500480786,
./stim/MorphF1_02_orig.jpg,190,,,,,0,190,190,190,,,,,,,,,,,,,,,,,,,-13.388671875,-11.6015625,1,0,0,1.17187094688,,,,,2015_Nov_09_1327,G,facesParametric,29,59.7500480786,
./stim/MorphF4_09_orig.jpg,191,,,,,0,191,191,191,,,,,,,,,,,,,,,,,,,-13.388671875,-11.6015625,0,0,1,0.853295087814,,,,,2015_Nov_09_1327,G,facesParametric,29,59.7500480786,
./stim/MorphM6_03_orig.jpg,192,,,,,0,192,192,192,,,,,,,,,,,,,,,,,,,-14.53125,-11.982421875,1,0,0,4.48964691162,,,,,2015_Nov_09_1327,G,facesParametric,29,59.7500480786,
./stim/MorphF10_08_orig.jpg,193,,,,,0,193,193,193,,,,,,,,,,,,,,,,,,,-14.53125,-11.982421875,0,0,1,0.770184993744,,,,,2015_Nov_09_1327,G,facesParametric,29,59.7500480786,
./stim/MorphM8_08_orig.jpg,194,,,,,0,194,194,194,,,,,,,,,,,,,,,,,,,-14.560546875,-12.041015625,0,0,1,0.686224937439,,,,,2015_Nov_09_1327,G,facesParametric,29,59.7500480786,
./stim/MorphF10_01_orig.jpg,195,,,,,0,195,195,195,,,,,,,,,,,,,,,,,,,-14.560546875,-12.041015625,1,0,0,0.887946128845,,,,,2015_Nov_09_1327,G,facesParametric,29,59.7500480786,
./stim/MorphM8_09_orig.jpg,196,,,,,0,196,196,196,,,,,,,,,,,,,,,,,,,-14.560546875,-12.041015625,0,0,1,0.618394136429,,,,,2015_Nov_09_1327,G,facesParametric,29,59.7500480786,
./stim/MorphM7_10_orig.jpg,197,,,,,0,197,197,197,,,,,,,,,,,,,,,,,,,-14.560546875,-12.041015625,0,0,1,1.27345991135,,,,,2015_Nov_09_1327,G,facesParametric,29,59.7500480786,
./stim/MorphF4_07_orig.jpg,198,,,,,0,198,198,198,,,,,,,,,,,,,,,,,,,-14.619140625,-12.0703125,0,0,1,1.10508108139,,,,,2015_Nov_09_1327,G,facesParametric,29,59.7500480786,
./stim/MorphF5_06_orig.jpg,199,,,,,0,199,199,199,,,,,,,,,,,,,,,,,,,-14.736328125,-12.12890625,1,0,0,0.819278001785,,,,,2015_Nov_09_1327,G,facesParametric,29,59.7500480786,
./stim/MorphF6_02_orig.jpg,200,,,,,0,200,200,200,,,,,,,,,,,,,,,,,,,-14.736328125,-12.12890625,1,0,0,1.10545992851,,,,,2015_Nov_09_1327,G,facesParametric,29,59.7500480786,
./stim/MorphF7_06_orig.jpg,201,,,,,0,201,201,201,,,,,,,,,,,,,,,,,,,-14.736328125,-12.12890625,1,0,0,0.719419956207,,,,,2015_Nov_09_1327,G,facesParametric,29,59.7500480786,
./stim/MorphM5_02_orig.jpg,202,,,,,0,202,202,202,,,,,,,,,,,,,,,,,,,-14.736328125,-12.12890625,1,0,0,0.987822055817,,,,,2015_Nov_09_1327,G,facesParametric,29,59.7500480786,
./stim/MorphF6_04_orig.jpg,203,,,,,0,203,203,203,,,,,,,,,,,,,,,,,,,-14.736328125,-12.12890625,1,0,0,0.786406993866,,,,,2015_Nov_09_1327,G,facesParametric,29,59.7500480786,
./stim/MorphF8_01_orig.jpg,204,,,,,0,204,204,204,,,,,,,,,,,,,,,,,,,-14.736328125,-12.12890625,1,0,0,0.635735034943,,,,,2015_Nov_09_1327,G,facesParametric,29,59.7500480786,
./stim/MorphM1_00_orig.jpg,205,,,,,0,205,205,205,,,,,,,,,,,,,,,,,,,-14.736328125,-12.12890625,0,0,1,0.819651842117,,,,,2015_Nov_09_1327,G,facesParametric,29,59.7500480786,
./stim/MorphF2_05_orig.jpg,206,,,,,0,206,206,206,,,,,,,,,,,,,,,,,,,-14.8828125,-12.24609375,1,0,0,0.885205984116,,,,,2015_Nov_09_1327,G,facesParametric,29,59.7500480786,
./stim/MorphM10_10_orig.jpg,207,,,,,0,207,207,207,,,,,,,,,,,,,,,,,,,-14.8828125,-12.24609375,0,0,1,1.53901100159,,,,,2015_Nov_09_1327,G,facesParametric,29,59.7500480786,
./stim/MorphM9_09_orig.jpg,208,,,,,0,208,208,208,,,,,,,,,,,,,,,,,,,-15.0,-12.3046875,0,0,1,0.635832071304,,,,,2015_Nov_09_1327,G,facesParametric,29,59.7500480786,
./stim/MorphF9_05_orig.jpg,209,,,,,0,209,209,209,,,,,,,,,,,,,,,,,,,-15.029296875,-12.333984375,1,0,0,0.769315004349,,,,,2015_Nov_09_1327,G,facesParametric,29,59.7500480786,
./stim/MorphM4_01_orig.jpg,210,,,,,0,210,210,210,,,,,,,,,,,,,,,,,,,-15.029296875,-12.333984375,0,0,1,1.37273001671,,,,,2015_Nov_09_1327,G,facesParametric,29,59.7500480786,
./stim/MorphF8_02_orig.jpg,211,,,,,0,211,211,211,,,,,,,,,,,,,,,,,,,-15.087890625,-12.36328125,1,0,0,0.818442106247,,,,,2015_Nov_09_1327,G,facesParametric,29,59.7500480786,
./stim/MorphF10_00_orig.jpg,212,,,,,0,212,212,212,,,,,,,,,,,,,,,,,,,-15.087890625,-12.36328125,1,0,0,0.736033916473,,,,,2015_Nov_09_1327,G,facesParametric,29,59.7500480786,
./stim/MorphM9_04_orig.jpg,213,,,,,0,213,213,213,,,,,,,,,,,,,,,,,,,-15.087890625,-12.36328125,0,0,1,1.08869314194,,,,,2015_Nov_09_1327,G,facesParametric,29,59.7500480786,
./stim/MorphM5_07_orig.jpg,214,,,,,0,214,214,214,,,,,,,,,,,,,,,,,,,-15.263671875,-12.48046875,1,0,0,3.86935305595,,,,,2015_Nov_09_1327,G,facesParametric,29,59.7500480786,
./stim/MorphM6_00_orig.jpg,215,,,,,0,215,215,215,,,,,,,,,,,,,,,,,,,-15.263671875,-12.48046875,1,0,0,1.13751006126,,,,,2015_Nov_09_1327,G,facesParametric,29,59.7500480786,
./stim/MorphM4_05_orig.jpg,216,,,,,0,216,216,216,,,,,,,,,,,,,,,,,,,-15.263671875,-12.48046875,0,0,1,1.10361409187,,,,,2015_Nov_09_1327,G,facesParametric,29,59.7500480786,
./stim/MorphM2_01_orig.jpg,217,,,,,0,217,217,217,,,,,,,,,,,,,,,,,,,-15.263671875,-12.48046875,1,0,0,0.937473058701,,,,,2015_Nov_09_1327,G,facesParametric,29,59.7500480786,
./stim/MorphF3_08_orig.jpg,218,,,,,0,218,218,218,,,,,,,,,,,,,,,,,,,-15.263671875,-12.48046875,1,0,0,1.33777999878,,,,,2015_Nov_09_1327,G,facesParametric,29,59.7500480786,
./stim/MorphF10_09_orig.jpg,219,,,,,0,219,219,219,,,,,,,,,,,,,,,,,,,-15.263671875,-12.48046875,0,0,1,0.92054605484,,,,,2015_Nov_09_1327,G,facesParametric,29,59.7500480786,
,,,,,,,,,,,,,,,,,,,,,,,,,,,,,,,,,,return,55.6088070869,,,2015_Nov_09_1327,G,facesParametric,29,59.7500480786,
./stim/MorphM9_10_orig.jpg,0,,,,,,,,,0,0,0,0,,,,,,,,,,,,,,,12.509765625,-3.017578125,1,0,0,4.972260952,,,,,2015_Nov_09_1327,G,facesParametric,29,59.7500480786,
./stim/MorphF7_10_orig.jpg,1,,,,,,,,,0,1,1,1,,,,,,,,,,,,,,,12.509765625,-3.017578125,0,0,1,1.187967062,,,,,2015_Nov_09_1327,G,facesParametric,29,59.7500480786,
./stim/MorphF10_03_orig.jpg,2,,,,,,,,,0,2,2,2,,,,,,,,,,,,,,,12.509765625,-3.017578125,1,0,0,1.4065580368,,,,,2015_Nov_09_1327,G,facesParametric,29,59.7500480786,
./stim/MorphF9_00_orig.jpg,3,,,,,,,,,0,3,3,3,,,,,,,,,,,,,,,12.5390625,-2.98828125,1,0,0,2.19406700134,,,,,2015_Nov_09_1327,G,facesParametric,29,59.7500480786,
./stim/MorphM3_07_orig.jpg,4,,,,,,,,,0,4,4,4,,,,,,,,,,,,,,,12.5390625,-2.98828125,0,0,1,1.05438804626,,,,,2015_Nov_09_1327,G,facesParametric,29,59.7500480786,
./stim/MorphF6_08_orig.jpg,5,,,,,,,,,0,5,5,5,,,,,,,,,,,,,,,12.65625,-3.017578125,1,0,0,2.51273703575,,,,,2015_Nov_09_1327,G,facesParametric,29,59.7500480786,
./stim/MorphM6_07_orig.jpg,6,,,,,,,,,0,6,6,6,,,,,,,,,,,,,,,12.65625,-3.017578125,1,0,0,0.920680999756,,,,,2015_Nov_09_1327,G,facesParametric,29,59.7500480786,
./stim/MorphF4_04_orig.jpg,7,,,,,,,,,0,7,7,7,,,,,,,,,,,,,,,12.65625,-3.017578125,1,0,0,1.05434203148,,,,,2015_Nov_09_1327,G,facesParametric,29,59.7500480786,
./stim/MorphF8_00_orig.jpg,8,,,,,,,,,0,8,8,8,,,,,,,,,,,,,,,12.65625,-3.017578125,1,0,0,1.84224700928,,,,,2015_Nov_09_1327,G,facesParametric,29,59.7500480786,
./stim/MorphF2_02_orig.jpg,9,,,,,,,,,0,9,9,9,,,,,,,,,,,,,,,12.65625,-3.017578125,1,0,0,2.1100230217,,,,,2015_Nov_09_1327,G,facesParametric,29,59.7500480786,
./stim/MorphF9_03_orig.jpg,10,,,,,,,,,0,10,10,10,,,,,,,,,,,,,,,12.421875,-3.017578125,1,0,0,1.15538597107,,,,,2015_Nov_09_1327,G,facesParametric,29,59.7500480786,
./stim/MorphM3_05_orig.jpg,11,,,,,,,,,0,11,11,11,,,,,,,,,,,,,,,12.24609375,-3.017578125,0,0,1,1.28952717781,,,,,2015_Nov_09_1327,G,facesParametric,29,59.7500480786,
./stim/MorphM4_05_orig.jpg,12,,,,,,,,,0,12,12,12,,,,,,,,,,,,,,,12.24609375,-3.017578125,0,0,1,0.851103067398,,,,,2015_Nov_09_1327,G,facesParametric,29,59.7500480786,
./stim/MorphM7_00_orig.jpg,13,,,,,,,,,0,13,13,13,,,,,,,,,,,,,,,12.24609375,-3.017578125,0,0,1,0.769968986511,,,,,2015_Nov_09_1327,G,facesParametric,29,59.7500480786,
./stim/MorphF1_01_orig.jpg,14,,,,,,,,,0,14,14,14,,,,,,,,,,,,,,,12.24609375,-3.017578125,1,0,0,1.38966798782,,,,,2015_Nov_09_1327,G,facesParametric,29,59.7500480786,
./stim/MorphF10_07_orig.jpg,15,,,,,,,,,0,15,15,15,,,,,,,,,,,,,,,12.24609375,-3.017578125,0,0,1,1.0385761261,,,,,2015_Nov_09_1327,G,facesParametric,29,59.7500480786,
./stim/MorphF4_05_orig.jpg,16,,,,,,,,,0,16,16,16,,,,,,,,,,,,,,,12.24609375,-3.017578125,0,0,1,1.403881073,,,,,2015_Nov_09_1327,G,facesParametric,29,59.7500480786,
./stim/MorphF1_09_orig.jpg,17,,,,,,,,,0,17,17,17,,,,,,,,,,,,,,,12.24609375,-3.017578125,1,0,0,0.986711025238,,,,,2015_Nov_09_1327,G,facesParametric,29,59.7500480786,
./stim/MorphF7_04_orig.jpg,18,,,,,,,,,0,18,18,18,,,,,,,,,,,,,,,12.24609375,-3.017578125,1,0,0,0.938415050507,,,,,2015_Nov_09_1327,G,facesParametric,29,59.7500480786,
./stim/MorphF3_08_orig.jpg,19,,,,,,,,,0,19,19,19,,,,,,,,,,,,,,,12.24609375,-3.017578125,1,0,0,1.87256097794,,,,,2015_Nov_09_1327,G,facesParametric,29,59.7500480786,
./stim/MorphM9_01_orig.jpg,20,,,,,,,,,0,20,20,20,,,,,,,,,,,,,,,12.24609375,-3.017578125,0,0,1,1.97446084023,,,,,2015_Nov_09_1327,G,facesParametric,29,59.7500480786,
./stim/MorphM1_04_orig.jpg,21,,,,,,,,,0,21,21,21,,,,,,,,,,,,,,,12.099609375,-3.017578125,0,0,1,2.57963299751,,,,,2015_Nov_09_1327,G,facesParametric,29,59.7500480786,
./stim/MorphF3_06_orig.jpg,22,,,,,,,,,0,22,22,22,,,,,,,,,,,,,,,12.01171875,-3.017578125,1,0,0,1.95871400833,,,,,2015_Nov_09_1327,G,facesParametric,29,59.7500480786,
./stim/MorphF6_00_orig.jpg,23,,,,,,,,,0,23,23,23,,,,,,,,,,,,,,,12.01171875,-3.017578125,1,0,0,0.701593160629,,,,,2015_Nov_09_1327,G,facesParametric,29,59.7500480786,
./stim/MorphF4_07_orig.jpg,24,,,,,,,,,0,24,24,24,,,,,,,,,,,,,,,12.01171875,-3.017578125,1,0,0,2.17671298981,,,,,2015_Nov_09_1327,G,facesParametric,29,59.7500480786,
./stim/MorphF9_06_orig.jpg,25,,,,,,,,,0,25,25,25,,,,,,,,,,,,,,,12.01171875,-3.017578125,1,0,0,0.769083023071,,,,,2015_Nov_09_1327,G,facesParametric,29,59.7500480786,
./stim/MorphF5_05_orig.jpg,26,,,,,,,,,0,26,26,26,,,,,,,,,,,,,,,12.01171875,-3.017578125,0,0,1,1.74168801308,,,,,2015_Nov_09_1327,G,facesParametric,29,59.7500480786,
./stim/MorphF1_10_orig.jpg,27,,,,,,,,,0,27,27,27,,,,,,,,,,,,,,,12.01171875,-3.017578125,0,0,1,1.11956906319,,,,,2015_Nov_09_1327,G,facesParametric,29,59.7500480786,
./stim/MorphM8_07_orig.jpg,28,,,,,,,,,0,28,28,28,,,,,,,,,,,,,,,12.01171875,-3.017578125,0,0,1,0.635030031204,,,,,2015_Nov_09_1327,G,facesParametric,29,59.7500480786,
./stim/MorphF3_02_orig.jpg,29,,,,,,,,,0,29,29,29,,,,,,,,,,,,,,,11.982421875,-3.017578125,1,0,0,0.952285051346,,,,,2015_Nov_09_1327,G,facesParametric,29,59.7500480786,
./stim/MorphF1_04_orig.jpg,30,,,,,,,,,0,30,30,30,,,,,,,,,,,,,,,11.982421875,-3.017578125,1,0,0,1.12051415443,,,,,2015_Nov_09_1327,G,facesParametric,29,59.7500480786,
./stim/MorphF2_09_orig.jpg,31,,,,,,,,,0,31,31,31,,,,,,,,,,,,,,,11.982421875,-3.017578125,1,0,0,1.75763010979,,,,,2015_Nov_09_1327,G,facesParametric,29,59.7500480786,
./stim/MorphM10_09_orig.jpg,32,,,,,,,,,0,32,32,32,,,,,,,,,,,,,,,11.982421875,-3.017578125,0,0,1,1.12190008163,,,,,2015_Nov_09_1327,G,facesParametric,29,59.7500480786,
./stim/MorphF5_02_orig.jpg,33,,,,,,,,,0,33,33,33,,,,,,,,,,,,,,,11.982421875,-3.017578125,0,0,1,0.702405929565,,,,,2015_Nov_09_1327,G,facesParametric,29,59.7500480786,
./stim/MorphM2_05_orig.jpg,34,,,,,,,,,0,34,34,34,,,,,,,,,,,,,,,11.982421875,-3.017578125,1,0,0,1.5243229866,,,,,2015_Nov_09_1327,G,facesParametric,29,59.7500480786,
./stim/MorphF3_10_orig.jpg,35,,,,,,,,,0,35,35,35,,,,,,,,,,,,,,,11.982421875,-3.017578125,1,0,0,0.886683940887,,,,,2015_Nov_09_1327,G,facesParametric,29,59.7500480786,
./stim/MorphM6_08_orig.jpg,36,,,,,,,,,0,36,36,36,,,,,,,,,,,,,,,11.982421875,-3.017578125,1,0,0,0.669034004211,,,,,2015_Nov_09_1327,G,facesParametric,29,59.7500480786,
./stim/MorphM4_04_orig.jpg,37,,,,,,,,,0,37,37,37,,,,,,,,,,,,,,,11.982421875,-3.017578125,0,0,1,1.23919010162,,,,,2015_Nov_09_1327,G,facesParametric,29,59.7500480786,
./stim/MorphF4_03_orig.jpg,38,,,,,,,,,0,38,38,38,,,,,,,,,,,,,,,11.748046875,-3.076171875,1,0,0,0.702643871307,,,,,2015_Nov_09_1327,G,facesParametric,29,59.7500480786,
./stim/MorphF7_06_orig.jpg,39,,,,,,,,,0,39,39,39,,,,,,,,,,,,,,,11.66015625,-3.1640625,1,0,0,1.03763008118,,,,,2015_Nov_09_1327,G,facesParametric,29,59.7500480786,
./stim/MorphF5_00_orig.jpg,40,,,,,,,,,0,40,40,40,,,,,,,,,,,,,,,11.25,-3.28125,1,0,0,1.28778290749,,,,,2015_Nov_09_1327,G,facesParametric,29,59.7500480786,
./stim/MorphM5_00_orig.jpg,41,,,,,,,,,0,41,41,41,,,,,,,,,,,,,,,10.927734375,-3.28125,0,0,1,1.84208083153,,,,,2015_Nov_09_1327,G,facesParametric,29,59.7500480786,
./stim/MorphF2_08_orig.jpg,42,,,,,,,,,0,42,42,42,,,,,,,,,,,,,,,10.751953125,-3.369140625,0,0,1,0.719622135162,,,,,2015_Nov_09_1327,G,facesParametric,29,59.7500480786,
./stim/MorphM7_06_orig.jpg,43,,,,,,,,,0,43,43,43,,,,,,,,,,,,,,,10.751953125,-3.369140625,0,0,1,1.03769612312,,,,,2015_Nov_09_1327,G,facesParametric,29,59.7500480786,
./stim/MorphF5_01_orig.jpg,44,,,,,,,,,0,44,44,44,,,,,,,,,,,,,,,10.751953125,-3.369140625,1,0,0,0.752149105072,,,,,2015_Nov_09_1327,G,facesParametric,29,59.7500480786,
./stim/MorphF9_02_orig.jpg,45,,,,,,,,,0,45,45,45,,,,,,,,,,,,,,,10.751953125,-3.369140625,1,0,0,0.903126001358,,,,,2015_Nov_09_1327,G,facesParametric,29,59.7500480786,
./stim/MorphF7_03_orig.jpg,46,,,,,,,,,0,46,46,46,,,,,,,,,,,,,,,10.72265625,-3.3984375,1,0,0,1.79248309135,,,,,2015_Nov_09_1327,G,facesParametric,29,59.7500480786,
./stim/MorphF2_00_orig.jpg,47,,,,,,,,,0,47,47,47,,,,,,,,,,,,,,,10.72265625,-3.3984375,1,0,0,1.02051281929,,,,,2015_Nov_09_1327,G,facesParametric,29,59.7500480786,
./stim/MorphM10_00_orig.jpg,48,,,,,,,,,0,48,48,48,,,,,,,,,,,,,,,10.72265625,-3.3984375,1,0,0,1.3397128582,,,,,2015_Nov_09_1327,G,facesParametric,29,59.7500480786,
./stim/MorphM8_04_orig.jpg,49,,,,,,,,,0,49,49,49,,,,,,,,,,,,,,,10.72265625,-3.3984375,1,0,0,0.887101888657,,,,,2015_Nov_09_1327,G,facesParametric,29,59.7500480786,
./stim/MorphM7_09_orig.jpg,50,,,,,,,,,0,50,50,50,,,,,,,,,,,,,,,10.72265625,-3.3984375,0,0,1,0.73609995842,,,,,2015_Nov_09_1327,G,facesParametric,29,59.7500480786,
./stim/MorphF1_07_orig.jpg,51,,,,,,,,,0,51,51,51,,,,,,,,,,,,,,,10.693359375,-3.427734375,1,0,0,0.903657197952,,,,,2015_Nov_09_1327,G,facesParametric,29,59.7500480786,
./stim/MorphM3_10_orig.jpg,52,,,,,,,,,0,52,52,52,,,,,,,,,,,,,,,10.693359375,-3.427734375,0,0,1,1.00189590454,,,,,2015_Nov_09_1327,G,facesParametric,29,59.7500480786,
./stim/MorphM9_00_orig.jpg,53,,,,,,,,,0,53,53,53,,,,,,,,,,,,,,,10.6640625,-3.45703125,1,0,0,0.870633125305,,,,,2015_Nov_09_1327,G,facesParametric,29,59.7500480786,
./stim/MorphM7_04_orig.jpg,54,,,,,,,,,0,54,54,54,,,,,,,,,,,,,,,10.6640625,-3.45703125,0,0,1,0.786087989807,,,,,2015_Nov_09_1327,G,facesParametric,29,59.7500480786,
./stim/MorphM4_03_orig.jpg,55,,,,,,,,,0,55,55,55,,,,,,,,,,,,,,,10.6640625,-3.45703125,1,0,0,0.836930036545,,,,,2015_Nov_09_1327,G,facesParametric,29,59.7500480786,
./stim/MorphF2_06_orig.jpg,56,,,,,,,,,0,56,56,56,,,,,,,,,,,,,,,10.6640625,-3.45703125,0,0,1,0.719497919083,,,,,2015_Nov_09_1327,G,facesParametric,29,59.7500480786,
./stim/MorphM1_03_orig.jpg,57,,,,,,,,,0,57,57,57,,,,,,,,,,,,,,,10.576171875,-3.544921875,1,0,0,0.752874851227,,,,,2015_Nov_09_1327,G,facesParametric,29,59.7500480786,
./stim/MorphF9_09_orig.jpg,58,,,,,,,,,0,58,58,58,,,,,,,,,,,,,,,10.576171875,-3.544921875,1,0,0,1.84206700325,,,,,2015_Nov_09_1327,G,facesParametric,29,59.7500480786,
./stim/MorphM1_08_orig.jpg,59,,,,,,,,,0,59,59,59,,,,,,,,,,,,,,,10.576171875,-3.544921875,0,0,1,0.803330183029,,,,,2015_Nov_09_1327,G,facesParametric,29,59.7500480786,
./stim/MorphF7_00_orig.jpg,60,,,,,,,,,0,60,60,60,,,,,,,,,,,,,,,10.576171875,-3.57421875,1,0,0,0.769832134247,,,,,2015_Nov_09_1327,G,facesParametric,29,59.7500480786,
./stim/MorphM1_07_orig.jpg,61,,,,,,,,,0,61,61,61,,,,,,,,,,,,,,,10.546875,-3.603515625,0,0,1,1.42352294922,,,,,2015_Nov_09_1327,G,facesParametric,29,59.7500480786,
./stim/MorphF1_05_orig.jpg,62,,,,,,,,,0,62,62,62,,,,,,,,,,,,,,,10.517578125,-3.6328125,1,0,0,0.802925825119,,,,,2015_Nov_09_1327,G,facesParametric,29,59.7500480786,
./stim/MorphM5_09_orig.jpg,63,,,,,,,,,0,63,63,63,,,,,,,,,,,,,,,10.517578125,-3.6328125,0,0,1,0.737159967422,,,,,2015_Nov_09_1327,G,facesParametric,29,59.7500480786,
./stim/MorphF5_03_orig.jpg,64,,,,,,,,,0,64,64,64,,,,,,,,,,,,,,,10.517578125,-3.6328125,1,0,0,1.38736510277,,,,,2015_Nov_09_1327,G,facesParametric,29,59.7500480786,
./stim/MorphM10_03_orig.jpg,65,,,,,,,,,0,65,65,65,,,,,,,,,,,,,,,10.517578125,-3.6328125,1,0,0,1.28927397728,,,,,2015_Nov_09_1327,G,facesParametric,29,59.7500480786,
./stim/MorphF10_01_orig.jpg,66,,,,,,,,,0,66,66,66,,,,,,,,,,,,,,,10.341796875,-3.8671875,1,0,0,1.80900502205,,,,,2015_Nov_09_1327,G,facesParametric,29,59.7500480786,
./stim/MorphF1_00_orig.jpg,67,,,,,,,,,0,67,67,67,,,,,,,,,,,,,,,10.341796875,-3.8671875,1,0,0,0.602486133575,,,,,2015_Nov_09_1327,G,facesParametric,29,59.7500480786,
./stim/MorphM10_02_orig.jpg,68,,,,,,,,,0,68,68,68,,,,,,,,,,,,,,,10.341796875,-3.8671875,0,0,1,2.0434191227,,,,,2015_Nov_09_1327,G,facesParametric,29,59.7500480786,
./stim/MorphF4_02_orig.jpg,69,,,,,,,,,0,69,69,69,,,,,,,,,,,,,,,10.25390625,-3.984375,1,0,0,0.886748075485,,,,,2015_Nov_09_1327,G,facesParametric,29,59.7500480786,
./stim/MorphF6_01_orig.jpg,70,,,,,,,,,0,70,70,70,,,,,,,,,,,,,,,10.224609375,-4.1015625,1,0,0,0.702550888062,,,,,2015_Nov_09_1327,G,facesParametric,29,59.7500480786,
./stim/MorphM3_09_orig.jpg,71,,,,,,,,,0,71,71,71,,,,,,,,,,,,,,,10.1953125,-4.130859375,0,0,1,0.752138137817,,,,,2015_Nov_09_1327,G,facesParametric,29,59.7500480786,
./stim/MorphM9_06_orig.jpg,72,,,,,,,,,0,72,72,72,,,,,,,,,,,,,,,10.166015625,-4.16015625,1,0,0,1.33957290649,,,,,2015_Nov_09_1327,G,facesParametric,29,59.7500480786,
./stim/MorphF3_03_orig.jpg,73,,,,,,,,,0,73,73,73,,,,,,,,,,,,,,,10.13671875,-4.189453125,1,0,0,0.669418811798,,,,,2015_Nov_09_1327,G,facesParametric,29,59.7500480786,
./stim/MorphM7_07_orig.jpg,74,,,,,,,,,0,74,74,74,,,,,,,,,,,,,,,10.13671875,-4.189453125,0,0,1,0.750606060028,,,,,2015_Nov_09_1327,G,facesParametric,29,59.7500480786,
./stim/MorphF8_07_orig.jpg,75,,,,,,,,,0,75,75,75,,,,,,,,,,,,,,,9.78515625,-4.951171875,1,0,0,0.719334125519,,,,,2015_Nov_09_1327,G,facesParametric,29,59.7500480786,
./stim/MorphM3_08_orig.jpg,76,,,,,,,,,0,76,76,76,,,,,,,,,,,,,,,9.78515625,-4.951171875,0,0,1,0.719268083572,,,,,2015_Nov_09_1327,G,facesParametric,29,59.7500480786,
./stim/MorphF8_05_orig.jpg,77,,,,,,,,,0,77,77,77,,,,,,,,,,,,,,,9.78515625,-4.951171875,1,0,0,1.77410387993,,,,,2015_Nov_09_1327,G,facesParametric,29,59.7500480786,
./stim/MorphF7_08_orig.jpg,78,,,,,,,,,0,78,78,78,,,,,,,,,,,,,,,9.78515625,-4.951171875,0,0,1,1.54053401947,,,,,2015_Nov_09_1327,G,facesParametric,29,59.7500480786,
./stim/MorphF3_05_orig.jpg,79,,,,,,,,,0,79,79,79,,,,,,,,,,,,,,,9.78515625,-5.0390625,1,0,0,0.954273939133,,,,,2015_Nov_09_1327,G,facesParametric,29,59.7500480786,
./stim/MorphF7_07_orig.jpg,80,,,,,,,,,0,80,80,80,,,,,,,,,,,,,,,9.78515625,-5.0390625,0,0,1,1.05427503586,,,,,2015_Nov_09_1327,G,facesParametric,29,59.7500480786,
./stim/MorphF4_09_orig.jpg,81,,,,,,,,,0,81,81,81,,,,,,,,,,,,,,,9.78515625,-5.0390625,0,0,1,1.94319486618,,,,,2015_Nov_09_1327,G,facesParametric,29,59.7500480786,
./stim/MorphF9_01_orig.jpg,82,,,,,,,,,0,82,82,82,,,,,,,,,,,,,,,9.78515625,-5.0390625,1,0,0,0.601802825928,,,,,2015_Nov_09_1327,G,facesParametric,29,59.7500480786,
./stim/MorphM2_07_orig.jpg,83,,,,,,,,,0,83,83,83,,,,,,,,,,,,,,,9.78515625,-5.0390625,1,0,0,1.20550990105,,,,,2015_Nov_09_1327,G,facesParametric,29,59.7500480786,
./stim/MorphM10_06_orig.jpg,84,,,,,,,,,0,84,84,84,,,,,,,,,,,,,,,9.78515625,-5.0390625,0,0,1,0.651339054108,,,,,2015_Nov_09_1327,G,facesParametric,29,59.7500480786,
./stim/MorphM2_03_orig.jpg,85,,,,,,,,,0,85,85,85,,,,,,,,,,,,,,,9.78515625,-5.15625,0,0,1,0.753234863281,,,,,2015_Nov_09_1327,G,facesParametric,29,59.7500480786,
./stim/MorphF5_06_orig.jpg,86,,,,,,,,,0,86,86,86,,,,,,,,,,,,,,,9.7265625,-5.302734375,1,0,0,1.97485995293,,,,,2015_Nov_09_1327,G,facesParametric,29,59.7500480786,
./stim/MorphM10_10_orig.jpg,87,,,,,,,,,0,87,87,87,,,,,,,,,,,,,,,9.7265625,-5.302734375,0,0,1,0.752578020096,,,,,2015_Nov_09_1327,G,facesParametric,29,59.7500480786,
./stim/MorphM6_03_orig.jpg,88,,,,,,,,,0,88,88,88,,,,,,,,,,,,,,,9.7265625,-5.302734375,1,0,0,0.702693939209,,,,,2015_Nov_09_1327,G,facesParametric,29,59.7500480786,
./stim/MorphF7_01_orig.jpg,89,,,,,,,,,0,89,89,89,,,,,,,,,,,,,,,9.7265625,-5.302734375,1,0,0,0.734993219376,,,,,2015_Nov_09_1327,G,facesParametric,29,59.7500480786,
./stim/MorphM2_08_orig.jpg,90,,,,,,,,,0,90,90,90,,,,,,,,,,,,,,,9.7265625,-5.302734375,1,0,0,0.769730091095,,,,,2015_Nov_09_1327,G,facesParametric,29,59.7500480786,
./stim/MorphM4_10_orig.jpg,91,,,,,,,,,0,91,91,91,,,,,,,,,,,,,,,9.7265625,-5.302734375,0,0,1,0.870213031769,,,,,2015_Nov_09_1327,G,facesParametric,29,59.7500480786,
./stim/MorphM2_00_orig.jpg,92,,,,,,,,,0,92,92,92,,,,,,,,,,,,,,,9.7265625,-5.302734375,1,0,0,0.701447963715,,,,,2015_Nov_09_1327,G,facesParametric,29,59.7500480786,
./stim/MorphM6_09_orig.jpg,93,,,,,,,,,0,93,93,93,,,,,,,,,,,,,,,9.7265625,-5.33203125,1,0,0,0.7680580616,,,,,2015_Nov_09_1327,G,facesParametric,29,59.7500480786,
./stim/MorphF5_09_orig.jpg,94,,,,,,,,,0,94,94,94,,,,,,,,,,,,,,,9.7265625,-5.33203125,1,0,0,1.60768699646,,,,,2015_Nov_09_1327,G,facesParametric,29,59.7500480786,
./stim/MorphF9_08_orig.jpg,95,,,,,,,,,0,95,95,95,,,,,,,,,,,,,,,9.7265625,-5.33203125,0,0,1,2.52923202515,,,,,2015_Nov_09_1327,G,facesParametric,29,59.7500480786,
./stim/MorphM6_01_orig.jpg,96,,,,,,,,,0,96,96,96,,,,,,,,,,,,,,,9.7265625,-5.33203125,1,0,0,1.28976297379,,,,,2015_Nov_09_1327,G,facesParametric,29,59.7500480786,
./stim/MorphM4_09_orig.jpg,97,,,,,,,,,0,97,97,97,,,,,,,,,,,,,,,9.7265625,-5.33203125,0,0,1,0.918565988541,,,,,2015_Nov_09_1327,G,facesParametric,29,59.7500480786,
./stim/MorphF2_03_orig.jpg,98,,,,,,,,,0,98,98,98,,,,,,,,,,,,,,,9.7265625,-5.390625,0,0,1,1.32274103165,,,,,2015_Nov_09_1327,G,facesParametric,29,59.7500480786,
./stim/MorphM8_06_orig.jpg,99,,,,,,,,,0,99,99,99,,,,,,,,,,,,,,,9.697265625,-5.478515625,0,0,1,0.886744022369,,,,,2015_Nov_09_1327,G,facesParametric,29,59.7500480786,
./stim/MorphF1_03_orig.jpg,100,,,,,,,,,0,100,100,100,,,,,,,,,,,,,,,9.609375,-5.537109375,1,0,0,1.57478809357,,,,,2015_Nov_09_1327,G,facesParametric,29,59.7500480786,
./stim/MorphF6_05_orig.jpg,101,,,,,,,,,0,101,101,101,,,,,,,,,,,,,,,9.609375,-5.537109375,1,0,0,0.601436853409,,,,,2015_Nov_09_1327,G,facesParametric,29,59.7500480786,
./stim/MorphM8_03_orig.jpg,102,,,,,,,,,0,102,102,102,,,,,,,,,,,,,,,9.609375,-5.537109375,0,0,1,0.786442995071,,,,,2015_Nov_09_1327,G,facesParametric,29,59.7500480786,
./stim/MorphM6_00_orig.jpg,103,,,,,,,,,0,103,103,103,,,,,,,,,,,,,,,9.609375,-5.537109375,1,0,0,0.700694084167,,,,,2015_Nov_09_1327,G,facesParametric,29,59.7500480786,
./stim/MorphF5_08_orig.jpg,104,,,,,,,,,0,104,104,104,,,,,,,,,,,,,,,9.609375,-5.537109375,1,0,0,0.903693914413,,,,,2015_Nov_09_1327,G,facesParametric,29,59.7500480786,
./stim/MorphM10_05_orig.jpg,105,,,,,,,,,0,105,105,105,,,,,,,,,,,,,,,9.609375,-5.537109375,0,0,1,1.02083587646,,,,,2015_Nov_09_1327,G,facesParametric,29,59.7500480786,
./stim/MorphF10_06_orig.jpg,106,,,,,,,,,0,106,106,106,,,,,,,,,,,,,,,9.580078125,-5.595703125,0,0,1,0.952816009521,,,,,2015_Nov_09_1327,G,facesParametric,29,59.7500480786,
./stim/MorphF5_10_orig.jpg,107,,,,,,,,,0,107,107,107,,,,,,,,,,,,,,,9.580078125,-5.595703125,0,0,1,0.634030103683,,,,,2015_Nov_09_1327,G,facesParametric,29,59.7500480786,
./stim/MorphF9_04_orig.jpg,108,,,,,,,,,0,108,108,108,,,,,,,,,,,,,,,9.580078125,-5.595703125,1,0,0,1.48864507675,,,,,2015_Nov_09_1327,G,facesParametric,29,59.7500480786,
./stim/MorphM9_09_orig.jpg,109,,,,,,,,,0,109,109,109,,,,,,,,,,,,,,,9.697265625,-5.595703125,0,0,1,0.80243396759,,,,,2015_Nov_09_1327,G,facesParametric,29,59.7500480786,
./stim/MorphM4_07_orig.jpg,110,,,,,,,,,0,110,110,110,,,,,,,,,,,,,,,9.697265625,-5.595703125,0,0,1,1.05264997482,,,,,2015_Nov_09_1327,G,facesParametric,29,59.7500480786,
./stim/MorphM5_05_orig.jpg,111,,,,,,,,,0,111,111,111,,,,,,,,,,,,,,,9.697265625,-5.654296875,0,0,1,0.852439165115,,,,,2015_Nov_09_1327,G,facesParametric,29,59.7500480786,
./stim/MorphF7_09_orig.jpg,112,,,,,,,,,0,112,112,112,,,,,,,,,,,,,,,9.697265625,-5.654296875,1,0,0,0.652780056,,,,,2015_Nov_09_1327,G,facesParametric,29,59.7500480786,
./stim/MorphF6_02_orig.jpg,113,,,,,,,,,0,113,113,113,,,,,,,,,,,,,,,9.697265625,-5.654296875,1,0,0,0.633015871048,,,,,2015_Nov_09_1327,G,facesParametric,29,59.7500480786,
./stim/MorphF10_09_orig.jpg,114,,,,,,,,,0,114,114,114,,,,,,,,,,,,,,,9.697265625,-5.625,1,0,0,0.803541183472,,,,,2015_Nov_09_1327,G,facesParametric,29,59.7500480786,
./stim/MorphM5_06_orig.jpg,115,,,,,,,,,0,115,115,115,,,,,,,,,,,,,,,9.814453125,-5.5078125,1,0,0,1.47391819954,,,,,2015_Nov_09_1327,G,facesParametric,29,59.7500480786,
./stim/MorphF6_06_orig.jpg,116,,,,,,,,,0,116,116,116,,,,,,,,,,,,,,,9.814453125,-5.5078125,0,0,1,0.903393030167,,,,,2015_Nov_09_1327,G,facesParametric,29,59.7500480786,
./stim/MorphF4_00_orig.jpg,117,,,,,,,,,0,117,117,117,,,,,,,,,,,,,,,9.814453125,-5.5078125,1,0,0,1.70804595947,,,,,2015_Nov_09_1327,G,facesParametric,29,59.7500480786,
./stim/MorphM8_10_orig.jpg,118,,,,,,,,,0,118,118,118,,,,,,,,,,,,,,,9.814453125,-5.5078125,0,0,1,0.684970140457,,,,,2015_Nov_09_1327,G,facesParametric,29,59.7500480786,
./stim/MorphM1_05_orig.jpg,119,,,,,,,,,0,119,119,119,,,,,,,,,,,,,,,9.814453125,-5.5078125,0,0,1,0.6691198349,,,,,2015_Nov_09_1327,G,facesParametric,29,59.7500480786,
./stim/MorphM6_02_orig.jpg,120,,,,,,,,,0,120,120,120,,,,,,,,,,,,,,,9.814453125,-5.5078125,1,0,0,1.38713693619,,,,,2015_Nov_09_1327,G,facesParametric,29,59.7500480786,
./stim/MorphM10_08_orig.jpg,121,,,,,,,,,0,121,121,121,,,,,,,,,,,,,,,9.814453125,-5.537109375,0,0,1,0.785955190659,,,,,2015_Nov_09_1327,G,facesParametric,29,59.7500480786,
./stim/MorphF6_03_orig.jpg,122,,,,,,,,,0,122,122,122,,,,,,,,,,,,,,,9.90234375,-5.654296875,1,0,0,1.30572104454,,,,,2015_Nov_09_1327,G,facesParametric,29,59.7500480786,
./stim/MorphM8_00_orig.jpg,123,,,,,,,,,0,123,123,123,,,,,,,,,,,,,,,9.90234375,-5.654296875,0,0,1,0.90225815773,,,,,2015_Nov_09_1327,G,facesParametric,29,59.7500480786,
./stim/MorphM3_04_orig.jpg,124,,,,,,,,,0,124,124,124,,,,,,,,,,,,,,,10.078125,-5.771484375,0,0,1,1.27183794975,,,,,2015_Nov_09_1327,G,facesParametric,29,59.7500480786,
./stim/MorphF9_05_orig.jpg,125,,,,,,,,,0,125,125,125,,,,,,,,,,,,,,,10.078125,-5.771484375,1,0,0,0.970753192902,,,,,2015_Nov_09_1327,G,facesParametric,29,59.7500480786,
./stim/MorphM10_04_orig.jpg,126,,,,,,,,,0,126,126,126,,,,,,,,,,,,,,,10.078125,-5.771484375,0,0,1,1.08788394928,,,,,2015_Nov_09_1327,G,facesParametric,29,59.7500480786,
./stim/MorphM3_01_orig.jpg,127,,,,,,,,,0,127,127,127,,,,,,,,,,,,,,,10.078125,-5.771484375,1,0,0,1.47407007217,,,,,2015_Nov_09_1327,G,facesParametric,29,59.7500480786,
./stim/MorphF10_08_orig.jpg,128,,,,,,,,,0,128,128,128,,,,,,,,,,,,,,,10.078125,-5.771484375,0,0,1,0.769530057907,,,,,2015_Nov_09_1327,G,facesParametric,29,59.7500480786,
./stim/MorphM9_02_orig.jpg,129,,,,,,,,,0,129,129,129,,,,,,,,,,,,,,,10.078125,-5.771484375,1,0,0,0.952040195465,,,,,2015_Nov_09_1327,G,facesParametric,29,59.7500480786,
./stim/MorphF3_01_orig.jpg,130,,,,,,,,,0,130,130,130,,,,,,,,,,,,,,,10.078125,-5.771484375,1,0,0,1.35363888741,,,,,2015_Nov_09_1327,G,facesParametric,29,59.7500480786,
./stim/MorphM10_07_orig.jpg,131,,,,,,,,,0,131,131,131,,,,,,,,,,,,,,,10.078125,-5.771484375,0,0,1,1.10538101196,,,,,2015_Nov_09_1327,G,facesParametric,29,59.7500480786,
./stim/MorphF2_01_orig.jpg,132,,,,,,,,,0,132,132,132,,,,,,,,,,,,,,,10.078125,-5.771484375,0,0,1,1.69072604179,,,,,2015_Nov_09_1327,G,facesParametric,29,59.7500480786,
./stim/MorphF10_00_orig.jpg,133,,,,,,,,,0,133,133,133,,,,,,,,,,,,,,,10.078125,-5.771484375,1,0,0,1.60573387146,,,,,2015_Nov_09_1327,G,facesParametric,29,59.7500480786,
./stim/MorphM1_10_orig.jpg,134,,,,,,,,,0,134,134,134,,,,,,,,,,,,,,,10.078125,-5.771484375,0,0,1,0.803115129471,,,,,2015_Nov_09_1327,G,facesParametric,29,59.7500480786,
./stim/MorphM4_06_orig.jpg,135,,,,,,,,,0,135,135,135,,,,,,,,,,,,,,,10.078125,-5.771484375,1,0,0,1.99306893349,,,,,2015_Nov_09_1327,G,facesParametric,29,59.7500480786,
./stim/MorphM9_08_orig.jpg,136,,,,,,,,,0,136,136,136,,,,,,,,,,,,,,,10.078125,-5.771484375,0,0,1,1.79030895233,,,,,2015_Nov_09_1327,G,facesParametric,29,59.7500480786,
./stim/MorphF1_08_orig.jpg,137,,,,,,,,,0,137,137,137,,,,,,,,,,,,,,,10.078125,-5.771484375,1,0,0,1.07132005692,,,,,2015_Nov_09_1327,G,facesParametric,29,59.7500480786,
./stim/MorphM6_04_orig.jpg,138,,,,,,,,,0,138,138,138,,,,,,,,,,,,,,,10.078125,-5.771484375,1,0,0,2.59624099731,,,,,2015_Nov_09_1327,G,facesParametric,29,59.7500480786,
./stim/MorphF10_10_orig.jpg,139,,,,,,,,,0,139,139,139,,,,,,,,,,,,,,,10.078125,-5.771484375,0,0,1,1.15505409241,,,,,2015_Nov_09_1327,G,facesParametric,29,59.7500480786,
./stim/MorphF3_04_orig.jpg,140,,,,,,,,,0,140,140,140,,,,,,,,,,,,,,,10.078125,-5.771484375,1,0,0,1.23691797256,,,,,2015_Nov_09_1327,G,facesParametric,29,59.7500480786,
./stim/MorphM7_02_orig.jpg,141,,,,,,,,,0,141,141,141,,,,,,,,,,,,,,,10.078125,-5.771484375,1,0,0,1.30349206924,,,,,2015_Nov_09_1327,G,facesParametric,29,59.7500480786,
./stim/MorphF10_05_orig.jpg,142,,,,,,,,,0,142,142,142,,,,,,,,,,,,,,,10.078125,-5.771484375,1,0,0,1.08784389496,,,,,2015_Nov_09_1327,G,facesParametric,29,59.7500480786,
./stim/MorphF6_04_orig.jpg,143,,,,,,,,,0,143,143,143,,,,,,,,,,,,,,,10.078125,-5.771484375,1,0,0,0.920309066772,,,,,2015_Nov_09_1327,G,facesParametric,29,59.7500480786,
./stim/MorphM2_10_orig.jpg,144,,,,,,,,,0,144,144,144,,,,,,,,,,,,,,,10.078125,-5.771484375,0,0,1,1.3223400116,,,,,2015_Nov_09_1327,G,facesParametric,29,59.7500480786,
./stim/MorphM7_05_orig.jpg,145,,,,,,,,,0,145,145,145,,,,,,,,,,,,,,,10.078125,-5.771484375,0,0,1,0.635633945465,,,,,2015_Nov_09_1327,G,facesParametric,29,59.7500480786,
./stim/MorphF6_09_orig.jpg,146,,,,,,,,,0,146,146,146,,,,,,,,,,,,,,,10.078125,-5.771484375,1,0,0,0.935750961304,,,,,2015_Nov_09_1327,G,facesParametric,29,59.7500480786,
./stim/MorphF9_07_orig.jpg,147,,,,,,,,,0,147,147,147,,,,,,,,,,,,,,,10.078125,-5.771484375,0,0,1,0.702651977539,,,,,2015_Nov_09_1327,G,facesParametric,29,59.7500480786,
./stim/MorphM8_02_orig.jpg,148,,,,,,,,,0,148,148,148,,,,,,,,,,,,,,,10.078125,-5.771484375,0,0,1,0.568207979202,,,,,2015_Nov_09_1327,G,facesParametric,29,59.7500480786,
./stim/MorphM9_03_orig.jpg,149,,,,,,,,,0,149,149,149,,,,,,,,,,,,,,,10.078125,-5.771484375,1,0,0,1.13826608658,,,,,2015_Nov_09_1327,G,facesParametric,29,59.7500480786,
./stim/MorphM1_06_orig.jpg,150,,,,,,,,,0,150,150,150,,,,,,,,,,,,,,,10.078125,-5.771484375,0,0,1,0.81881403923,,,,,2015_Nov_09_1327,G,facesParametric,29,59.7500480786,
./stim/MorphM9_04_orig.jpg,151,,,,,,,,,0,151,151,151,,,,,,,,,,,,,,,10.078125,-5.771484375,1,0,0,1.57396292686,,,,,2015_Nov_09_1327,G,facesParametric,29,59.7500480786,
./stim/MorphF8_02_orig.jpg,152,,,,,,,,,0,152,152,152,,,,,,,,,,,,,,,10.078125,-5.771484375,1,0,0,0.700417041779,,,,,2015_Nov_09_1327,G,facesParametric,29,59.7500480786,
./stim/MorphM8_09_orig.jpg,153,,,,,,,,,0,153,153,153,,,,,,,,,,,,,,,10.078125,-5.771484375,0,0,1,0.717794895172,,,,,2015_Nov_09_1327,G,facesParametric,29,59.7500480786,
./stim/MorphF7_05_orig.jpg,154,,,,,,,,,0,154,154,154,,,,,,,,,,,,,,,10.078125,-5.771484375,1,0,0,0.752774000168,,,,,2015_Nov_09_1327,G,facesParametric,29,59.7500480786,
./stim/MorphM1_00_orig.jpg,155,,,,,,,,,0,155,155,155,,,,,,,,,,,,,,,10.078125,-5.771484375,1,0,0,1.10464406013,,,,,2015_Nov_09_1327,G,facesParametric,29,59.7500480786,
./stim/MorphM5_10_orig.jpg,156,,,,,,,,,0,156,156,156,,,,,,,,,,,,,,,10.078125,-5.771484375,0,0,1,1.23917293549,,,,,2015_Nov_09_1327,G,facesParametric,29,59.7500480786,
./stim/MorphF1_02_orig.jpg,157,,,,,,,,,0,157,157,157,,,,,,,,,,,,,,,10.078125,-5.771484375,1,0,0,0.887054920197,,,,,2015_Nov_09_1327,G,facesParametric,29,59.7500480786,
./stim/MorphM2_04_orig.jpg,158,,,,,,,,,0,158,158,158,,,,,,,,,,,,,,,10.078125,-5.771484375,1,0,0,0.82004404068,,,,,2015_Nov_09_1327,G,facesParametric,29,59.7500480786,
./stim/MorphM1_01_orig.jpg,159,,,,,,,,,0,159,159,159,,,,,,,,,,,,,,,10.048828125,-5.80078125,0,0,1,1.17166495323,,,,,2015_Nov_09_1327,G,facesParametric,29,59.7500480786,
./stim/MorphF8_08_orig.jpg,160,,,,,,,,,0,160,160,160,,,,,,,,,,,,,,,10.01953125,-5.771484375,1,0,0,0.95291018486,,,,,2015_Nov_09_1327,G,facesParametric,29,59.7500480786,
./stim/MorphF5_04_orig.jpg,161,,,,,,,,,0,161,161,161,,,,,,,,,,,,,,,10.01953125,-5.771484375,1,0,0,0.869552850723,,,,,2015_Nov_09_1327,G,facesParametric,29,59.7500480786,
./stim/MorphF8_10_orig.jpg,162,,,,,,,,,0,162,162,162,,,,,,,,,,,,,,,10.01953125,-5.771484375,1,0,0,0.652419090271,,,,,2015_Nov_09_1327,G,facesParametric,29,59.7500480786,
./stim/MorphM4_01_orig.jpg,163,,,,,,,,,0,163,163,163,,,,,,,,,,,,,,,10.01953125,-5.771484375,0,0,1,1.50672411919,,,,,2015_Nov_09_1327,G,facesParametric,29,59.7500480786,
./stim/MorphM9_05_orig.jpg,164,,,,,,,,,0,164,164,164,,,,,,,,,,,,,,,10.01953125,-5.771484375,1,0,0,1.8425860405,,,,,2015_Nov_09_1327,G,facesParametric,29,59.7500480786,
./stim/MorphF6_10_orig.jpg,165,,,,,,,,,0,165,165,165,,,,,,,,,,,,,,,10.01953125,-5.771484375,1,0,0,0.767528772354,,,,,2015_Nov_09_1327,G,facesParametric,29,59.7500480786,
./stim/MorphM7_01_orig.jpg,166,,,,,,,,,0,166,166,166,,,,,,,,,,,,,,,10.01953125,-5.771484375,0,0,1,0.651711940765,,,,,2015_Nov_09_1327,G,facesParametric,29,59.7500480786,
./stim/MorphF3_07_orig.jpg,167,,,,,,,,,0,167,167,167,,,,,,,,,,,,,,,10.01953125,-5.771484375,1,0,0,0.970513820648,,,,,2015_Nov_09_1327,G,facesParametric,29,59.7500480786,
./stim/MorphM3_03_orig.jpg,168,,,,,,,,,0,168,168,168,,,,,,,,,,,,,,,10.01953125,-5.771484375,1,0,0,1.82531309128,,,,,2015_Nov_09_1327,G,facesParametric,29,59.7500480786,
./stim/MorphM5_03_orig.jpg,169,,,,,,,,,0,169,169,169,,,,,,,,,,,,,,,10.01953125,-5.771484375,0,0,1,1.20370697975,,,,,2015_Nov_09_1327,G,facesParametric,29,59.7500480786,
./stim/MorphF5_07_orig.jpg,170,,,,,,,,,0,170,170,170,,,,,,,,,,,,,,,10.01953125,-5.771484375,1,0,0,0.920973062515,,,,,2015_Nov_09_1327,G,facesParametric,29,59.7500480786,
./stim/MorphM5_07_orig.jpg,171,,,,,,,,,0,171,171,171,,,,,,,,,,,,,,,10.01953125,-5.771484375,0,0,1,2.29284214973,,,,,2015_Nov_09_1327,G,facesParametric,29,59.7500480786,
./stim/MorphF2_05_orig.jpg,172,,,,,,,,,0,172,172,172,,,,,,,,,,,,,,,10.01953125,-5.771484375,1,0,0,0.7005879879,,,,,2015_Nov_09_1327,G,facesParametric,29,59.7500480786,
./stim/MorphM7_03_orig.jpg,173,,,,,,,,,0,173,173,173,,,,,,,,,,,,,,,10.01953125,-5.771484375,0,0,1,1.50728797913,,,,,2015_Nov_09_1327,G,facesParametric,29,59.7500480786,
./stim/MorphM6_10_orig.jpg,174,,,,,,,,,0,174,174,174,,,,,,,,,,,,,,,10.078125,-5.712890625,1,0,0,1.4561829567,,,,,2015_Nov_09_1327,G,facesParametric,29,59.7500480786,
./stim/MorphM1_09_orig.jpg,175,,,,,,,,,0,175,175,175,,,,,,,,,,,,,,,10.078125,-5.712890625,0,0,1,0.970976114273,,,,,2015_Nov_09_1327,G,facesParametric,29,59.7500480786,
./stim/MorphF1_06_orig.jpg,176,,,,,,,,,0,176,176,176,,,,,,,,,,,,,,,10.078125,-5.712890625,1,0,0,0.652287960052,,,,,2015_Nov_09_1327,G,facesParametric,29,59.7500480786,
./stim/MorphM5_04_orig.jpg,177,,,,,,,,,0,177,177,177,,,,,,,,,,,,,,,10.078125,-5.712890625,0,0,1,0.70244884491,,,,,2015_Nov_09_1327,G,facesParametric,29,59.7500480786,
./stim/MorphF8_04_orig.jpg,178,,,,,,,,,0,178,178,178,,,,,,,,,,,,,,,10.078125,-5.7421875,1,0,0,0.567693948746,,,,,2015_Nov_09_1327,G,facesParametric,29,59.7500480786,
./stim/MorphM8_05_orig.jpg,179,,,,,,,,,0,179,179,179,,,,,,,,,,,,,,,10.078125,-5.7421875,0,0,1,0.83574795723,,,,,2015_Nov_09_1327,G,facesParametric,29,59.7500480786,
./stim/MorphM7_08_orig.jpg,180,,,,,,,,,0,180,180,180,,,,,,,,,,,,,,,10.078125,-5.7421875,0,0,1,0.884742975235,,,,,2015_Nov_09_1327,G,facesParametric,29,59.7500480786,
./stim/MorphF4_10_orig.jpg,181,,,,,,,,,0,181,181,181,,,,,,,,,,,,,,,10.078125,-5.7421875,0,0,1,1.22055792809,,,,,2015_Nov_09_1327,G,facesParametric,29,59.7500480786,
./stim/MorphM2_06_orig.jpg,182,,,,,,,,,0,182,182,182,,,,,,,,,,,,,,,10.048828125,-5.771484375,0,0,1,0.717760801315,,,,,2015_Nov_09_1327,G,facesParametric,29,59.7500480786,
./stim/MorphF8_09_orig.jpg,183,,,,,,,,,0,183,183,183,,,,,,,,,,,,,,,10.048828125,-5.771484375,1,0,0,0.970763921738,,,,,2015_Nov_09_1327,G,facesParametric,29,59.7500480786,
./stim/MorphM5_08_orig.jpg,184,,,,,,,,,0,184,184,184,,,,,,,,,,,,,,,10.048828125,-5.771484375,0,0,1,0.616604089737,,,,,2015_Nov_09_1327,G,facesParametric,29,59.7500480786,
./stim/MorphF9_10_orig.jpg,185,,,,,,,,,0,185,185,185,,,,,,,,,,,,,,,10.048828125,-5.771484375,1,0,0,1.89276409149,,,,,2015_Nov_09_1327,G,facesParametric,29,59.7500480786,
./stim/MorphM10_01_orig.jpg,186,,,,,,,,,0,186,186,186,,,,,,,,,,,,,,,10.048828125,-5.771484375,0,0,1,0.736253976822,,,,,2015_Nov_09_1327,G,facesParametric,29,59.7500480786,
./stim/MorphF7_02_orig.jpg,187,,,,,,,,,0,187,187,187,,,,,,,,,,,,,,,10.048828125,-5.771484375,1,0,0,0.717417001724,,,,,2015_Nov_09_1327,G,facesParametric,29,59.7500480786,
./stim/MorphF2_10_orig.jpg,188,,,,,,,,,0,188,188,188,,,,,,,,,,,,,,,10.048828125,-5.771484375,1,0,0,0.519072055817,,,,,2015_Nov_09_1327,G,facesParametric,29,59.7500480786,
./stim/MorphF3_09_orig.jpg,189,,,,,,,,,0,189,189,189,,,,,,,,,,,,,,,10.048828125,-5.771484375,1,0,0,0.733383893967,,,,,2015_Nov_09_1327,G,facesParametric,29,59.7500480786,
./stim/MorphM1_02_orig.jpg,190,,,,,,,,,0,190,190,190,,,,,,,,,,,,,,,10.048828125,-5.771484375,1,0,0,0.937362909317,,,,,2015_Nov_09_1327,G,facesParametric,29,59.7500480786,
./stim/MorphF10_04_orig.jpg,191,,,,,,,,,0,191,191,191,,,,,,,,,,,,,,,10.048828125,-5.771484375,1,0,0,0.667459964752,,,,,2015_Nov_09_1327,G,facesParametric,29,59.7500480786,
./stim/MorphM3_02_orig.jpg,192,,,,,,,,,0,192,192,192,,,,,,,,,,,,,,,10.048828125,-5.771484375,1,0,0,0.669165849686,,,,,2015_Nov_09_1327,G,facesParametric,29,59.7500480786,
./stim/MorphF4_08_orig.jpg,193,,,,,,,,,0,193,193,193,,,,,,,,,,,,,,,10.048828125,-5.771484375,0,0,1,0.920074224472,,,,,2015_Nov_09_1327,G,facesParametric,29,59.7500480786,
./stim/MorphM6_06_orig.jpg,194,,,,,,,,,0,194,194,194,,,,,,,,,,,,,,,10.048828125,-5.771484375,1,0,0,0.920197963715,,,,,2015_Nov_09_1327,G,facesParametric,29,59.7500480786,
./stim/MorphM5_02_orig.jpg,195,,,,,,,,,0,195,195,195,,,,,,,,,,,,,,,10.048828125,-5.771484375,0,0,1,0.618833065033,,,,,2015_Nov_09_1327,G,facesParametric,29,59.7500480786,
./stim/MorphM9_07_orig.jpg,196,,,,,,,,,0,196,196,196,,,,,,,,,,,,,,,10.048828125,-5.771484375,0,0,1,1.22164201736,,,,,2015_Nov_09_1327,G,facesParametric,29,59.7500480786,
./stim/MorphM3_00_orig.jpg,197,,,,,,,,,0,197,197,197,,,,,,,,,,,,,,,10.048828125,-5.771484375,0,0,1,0.901746988297,,,,,2015_Nov_09_1327,G,facesParametric,29,59.7500480786,
./stim/MorphF10_02_orig.jpg,198,,,,,,,,,0,198,198,198,,,,,,,,,,,,,,,10.048828125,-5.771484375,1,0,0,0.970752954483,,,,,2015_Nov_09_1327,G,facesParametric,29,59.7500480786,
./stim/MorphM3_06_orig.jpg,199,,,,,,,,,0,199,199,199,,,,,,,,,,,,,,,10.048828125,-5.771484375,1,0,0,0.719589948654,,,,,2015_Nov_09_1327,G,facesParametric,29,59.7500480786,
./stim/MorphF8_01_orig.jpg,200,,,,,,,,,0,200,200,200,,,,,,,,,,,,,,,10.048828125,-5.771484375,1,0,0,0.634921073914,,,,,2015_Nov_09_1327,G,facesParametric,29,59.7500480786,
./stim/MorphM4_00_orig.jpg,201,,,,,,,,,0,201,201,201,,,,,,,,,,,,,,,10.048828125,-5.771484375,0,0,1,0.770155906677,,,,,2015_Nov_09_1327,G,facesParametric,29,59.7500480786,
./stim/MorphF2_04_orig.jpg,202,,,,,,,,,0,202,202,202,,,,,,,,,,,,,,,10.078125,-5.80078125,1,0,0,1.38956594467,,,,,2015_Nov_09_1327,G,facesParametric,29,59.7500480786,
./stim/MorphF8_06_orig.jpg,203,,,,,,,,,0,203,203,203,,,,,,,,,,,,,,,10.078125,-5.80078125,1,0,0,0.87016582489,,,,,2015_Nov_09_1327,G,facesParametric,29,59.7500480786,
./stim/MorphM7_10_orig.jpg,204,,,,,,,,,0,204,204,204,,,,,,,,,,,,,,,10.078125,-5.80078125,0,0,1,0.91845703125,,,,,2015_Nov_09_1327,G,facesParametric,29,59.7500480786,
./stim/MorphM8_01_orig.jpg,205,,,,,,,,,0,205,205,205,,,,,,,,,,,,,,,10.078125,-5.80078125,0,0,1,2.02627086639,,,,,2015_Nov_09_1327,G,facesParametric,29,59.7500480786,
./stim/MorphM6_05_orig.jpg,206,,,,,,,,,0,206,206,206,,,,,,,,,,,,,,,10.078125,-5.80078125,1,0,0,2.16077804565,,,,,2015_Nov_09_1327,G,facesParametric,29,59.7500480786,
./stim/MorphM4_02_orig.jpg,207,,,,,,,,,0,207,207,207,,,,,,,,,,,,,,,10.078125,-5.80078125,0,0,1,1.07052898407,,,,,2015_Nov_09_1327,G,facesParametric,29,59.7500480786,
./stim/MorphM8_08_orig.jpg,208,,,,,,,,,0,208,208,208,,,,,,,,,,,,,,,10.078125,-5.80078125,0,0,1,1.00445699692,,,,,2015_Nov_09_1327,G,facesParametric,29,59.7500480786,
./stim/MorphF2_07_orig.jpg,209,,,,,,,,,0,209,209,209,,,,,,,,,,,,,,,10.078125,-5.830078125,0,0,1,0.635205030441,,,,,2015_Nov_09_1327,G,facesParametric,29,59.7500480786,
./stim/MorphM5_01_orig.jpg,210,,,,,,,,,0,210,210,210,,,,,,,,,,,,,,,10.078125,-5.830078125,0,0,1,0.719454050064,,,,,2015_Nov_09_1327,G,facesParametric,29,59.7500480786,
./stim/MorphM2_09_orig.jpg,211,,,,,,,,,0,211,211,211,,,,,,,,,,,,,,,9.990234375,-6.03515625,0,0,1,0.650851964951,,,,,2015_Nov_09_1327,G,facesParametric,29,59.7500480786,
./stim/MorphF6_07_orig.jpg,212,,,,,,,,,0,212,212,212,,,,,,,,,,,,,,,9.9609375,-6.064453125,1,0,0,1.23891806602,,,,,2015_Nov_09_1327,G,facesParametric,29,59.7500480786,
./stim/MorphM4_08_orig.jpg,213,,,,,,,,,0,213,213,213,,,,,,,,,,,,,,,9.9609375,-6.064453125,0,0,1,1.15582895279,,,,,2015_Nov_09_1327,G,facesParametric,29,59.7500480786,
./stim/MorphF8_03_orig.jpg,214,,,,,,,,,0,214,214,214,,,,,,,,,,,,,,,9.873046875,-6.2109375,0,0,1,0.685331821442,,,,,2015_Nov_09_1327,G,facesParametric,29,59.7500480786,
./stim/MorphM2_01_orig.jpg,215,,,,,,,,,0,215,215,215,,,,,,,,,,,,,,,9.873046875,-6.2109375,1,0,0,0.702763080597,,,,,2015_Nov_09_1327,G,facesParametric,29,59.7500480786,
./stim/MorphF4_06_orig.jpg,216,,,,,,,,,0,216,216,216,,,,,,,,,,,,,,,9.873046875,-6.2109375,1,0,0,0.468431949615,,,,,2015_Nov_09_1327,G,facesParametric,29,59.7500480786,
./stim/MorphF3_00_orig.jpg,217,,,,,,,,,0,217,217,217,,,,,,,,,,,,,,,9.873046875,-6.2109375,1,0,0,0.651967048645,,,,,2015_Nov_09_1327,G,facesParametric,29,59.7500480786,
./stim/MorphM2_02_orig.jpg,218,,,,,,,,,0,218,218,218,,,,,,,,,,,,,,,9.873046875,-6.2109375,1,0,0,0.718868017197,,,,,2015_Nov_09_1327,G,facesParametric,29,59.7500480786,
./stim/MorphF4_01_orig.jpg,219,,,,,,,,,0,219,219,219,,,,,,,,,,,,,,,9.873046875,-6.2109375,1,0,0,0.651859045029,,,,,2015_Nov_09_1327,G,facesParametric,29,59.7500480786,
,,,,,,,,,,,,,,,,,,,,,,,,,,,,,,,,,,,,return,128.417917967,2015_Nov_09_1327,G,facesParametric,29,59.7500480786,
