img,num,basicLoop.thisRepN,basicLoop.thisTrialN,basicLoop.thisN,basicLoop.thisIndex,trials.thisRepN,trials.thisTrialN,trials.thisN,trials.thisIndex,trials2.thisRepN,trials2.thisTrialN,trials2.thisN,trials2.thisIndex,key_resp_2.keys,key_resp_2.rt,basicRating1.response,basicRating1.rt,basicRating2.response,basicRating2.rt,basicRating3.response,basicRating3.rt,basicRating4.response,basicRating4.rt,key_resp_3.keys,key_resp_3.rt,key_resp_4.keys,key_resp_4.rt,mouseResp.x,mouseResp.y,mouseResp.leftButton,mouseResp.midButton,mouseResp.rightButton,mouseResp.time,key_resp_5.keys,key_resp_5.rt,key_resp_7.keys,key_resp_7.rt,date,group,expName,participant,frameRate,
,,,,,,,,,,,,,,return,114.633785009,,,,,,,,,,,,,,,,,,,,,,,2015_Sep_07_1209,G,facesParametric,2,59.7096448146,
./basicStim/34M_AN_O.jpg,,0,0,0,70,,,,,,,,,,,None,None,ANG,10.889,None,None,None,None,,,,,,,,,,,,,,,2015_Sep_07_1209,G,facesParametric,2,59.7096448146,
./basicStim/21M_NE_C.jpg,,0,1,1,48,,,,,,,,,,,None,None,None,None,None,None,NTR,4.021,,,,,,,,,,,,,,,2015_Sep_07_1209,G,facesParametric,2,59.7096448146,
./basicStim/09F_SP_O.jpg,,0,2,2,40,,,,,,,,,,,None,None,None,None,SUP,2.794,None,None,,,,,,,,,,,,,,,2015_Sep_07_1209,G,facesParametric,2,59.7096448146,
./basicStim/07F_NE_C.jpg,,0,3,3,34,,,,,,,,,,,None,None,None,None,None,None,NTR,12.171,,,,,,,,,,,,,,,2015_Sep_07_1209,G,facesParametric,2,59.7096448146,
./basicStim/34M_HA_O.jpg,,0,4,4,73,,,,,,,,,,,HAP,5.519,None,None,None,None,None,None,,,,,,,,,,,,,,,2015_Sep_07_1209,G,facesParametric,2,59.7096448146,
./basicStim/06F_NE_C.jpg,,0,5,5,27,,,,,,,,,,,None,None,FEA,1.81,None,None,None,None,,,,,,,,,,,,,,,2015_Sep_07_1209,G,facesParametric,2,59.7096448146,
./basicStim/02F_FE_O.jpg,,0,6,6,9,,,,,,,,,,,None,None,None,None,SUP,3.876,None,None,,,,,,,,,,,,,,,2015_Sep_07_1209,G,facesParametric,2,59.7096448146,
./basicStim/23M_NE_C.jpg,,0,7,7,55,,,,,,,,,,,None,None,None,None,None,None,NTR,2.47,,,,,,,,,,,,,,,2015_Sep_07_1209,G,facesParametric,2,59.7096448146,
./basicStim/23M_AN_O.jpg,,0,8,8,49,,,,,,,,,,,None,None,ANG,1.613,None,None,None,None,,,,,,,,,,,,,,,2015_Sep_07_1209,G,facesParametric,2,59.7096448146,
./basicStim/36M_NE_C.jpg,,0,9,9,83,,,,,,,,,,,None,None,None,None,None,None,NTR,2.735,,,,,,,,,,,,,,,2015_Sep_07_1209,G,facesParametric,2,59.7096448146,
./basicStim/06F_SP_O.jpg,,0,10,10,26,,,,,,,,,,,None,None,None,None,SUP,3.09,None,None,,,,,,,,,,,,,,,2015_Sep_07_1209,G,facesParametric,2,59.7096448146,
./basicStim/21M_SA_C.jpg,,0,11,11,46,,,,,,,,,,,SAD,1.97,None,None,None,None,None,None,,,,,,,,,,,,,,,2015_Sep_07_1209,G,facesParametric,2,59.7096448146,
./basicStim/01F_NE_C.jpg,,0,12,12,6,,,,,,,,,,,None,None,None,None,SUP,4.66,None,None,,,,,,,,,,,,,,,2015_Sep_07_1209,G,facesParametric,2,59.7096448146,
./basicStim/09F_FE_O.jpg,,0,13,13,37,,,,,,,,,,,None,None,FEA,7.985,None,None,None,None,,,,,,,,,,,,,,,2015_Sep_07_1209,G,facesParametric,2,59.7096448146,
./basicStim/07F_FE_O.jpg,,0,14,14,30,,,,,,,,,,,None,None,FEA,6.708,None,None,None,None,,,,,,,,,,,,,,,2015_Sep_07_1209,G,facesParametric,2,59.7096448146,
./basicStim/21M_FE_O.jpg,,0,15,15,44,,,,,,,,,,,None,None,None,None,SUP,2.721,None,None,,,,,,,,,,,,,,,2015_Sep_07_1209,G,facesParametric,2,59.7096448146,
./basicStim/07F_AN_O.jpg,,0,16,16,28,,,,,,,,,,,None,None,ANG,1.681,None,None,None,None,,,,,,,,,,,,,,,2015_Sep_07_1209,G,facesParametric,2,59.7096448146,
./basicStim/06F_DI_O.jpg,,0,17,17,22,,,,,,,,,,,None,None,None,None,DIS,3.859,None,None,,,,,,,,,,,,,,,2015_Sep_07_1209,G,facesParametric,2,59.7096448146,
./basicStim/01F_SA_C.jpg,,0,18,18,4,,,,,,,,,,,SAD,1.549,None,None,None,None,None,None,,,,,,,,,,,,,,,2015_Sep_07_1209,G,facesParametric,2,59.7096448146,
./basicStim/06F_SA_C.jpg,,0,19,19,25,,,,,,,,,,,None,None,ANG,5.655,None,None,None,None,,,,,,,,,,,,,,,2015_Sep_07_1209,G,facesParametric,2,59.7096448146,
./basicStim/24M_FE_O.jpg,,0,20,20,58,,,,,,,,,,,None,None,FEA,3.895,None,None,None,None,,,,,,,,,,,,,,,2015_Sep_07_1209,G,facesParametric,2,59.7096448146,
./basicStim/23M_SA_C.jpg,,0,21,21,53,,,,,,,,,,,SAD,2.301,None,None,None,None,None,None,,,,,,,,,,,,,,,2015_Sep_07_1209,G,facesParametric,2,59.7096448146,
./basicStim/01F_AN_O.jpg,,0,22,22,0,,,,,,,,,,,None,None,ANG,2.775,None,None,None,None,,,,,,,,,,,,,,,2015_Sep_07_1209,G,facesParametric,2,59.7096448146,
./basicStim/28M_NE_C.jpg,,0,23,23,69,,,,,,,,,,,None,None,None,None,SUP,4.074,None,None,,,,,,,,,,,,,,,2015_Sep_07_1209,G,facesParametric,2,59.7096448146,
./basicStim/01F_FE_O.jpg,,0,24,24,2,,,,,,,,,,,None,None,FEA,3.727,None,None,None,None,,,,,,,,,,,,,,,2015_Sep_07_1209,G,facesParametric,2,59.7096448146,
./basicStim/09F_DI_O.jpg,,0,25,25,36,,,,,,,,,,,None,None,None,None,DIS,1.761,None,None,,,,,,,,,,,,,,,2015_Sep_07_1209,G,facesParametric,2,59.7096448146,
./basicStim/07F_SA_C.jpg,,0,26,26,32,,,,,,,,,,,SAD,2.221,None,None,None,None,None,None,,,,,,,,,,,,,,,2015_Sep_07_1209,G,facesParametric,2,59.7096448146,
./basicStim/01F_DI_O.jpg,,0,27,27,1,,,,,,,,,,,None,None,None,None,DIS,3.051,None,None,,,,,,,,,,,,,,,2015_Sep_07_1209,G,facesParametric,2,59.7096448146,
./basicStim/03F_SA_C.jpg,,0,28,28,18,,,,,,,,,,,SAD,3.816,None,None,None,None,None,None,,,,,,,,,,,,,,,2015_Sep_07_1209,G,facesParametric,2,59.7096448146,
./basicStim/36M_DI_O.jpg,,0,29,29,78,,,,,,,,,,,None,None,ANG,8.882,None,None,None,None,,,,,,,,,,,,,,,2015_Sep_07_1209,G,facesParametric,2,59.7096448146,
./basicStim/24M_HA_O.jpg,,0,30,30,59,,,,,,,,,,,HAP,2.302,None,None,None,None,None,None,,,,,,,,,,,,,,,2015_Sep_07_1209,G,facesParametric,2,59.7096448146,
./basicStim/24M_AN_O.jpg,,0,31,31,56,,,,,,,,,,,None,None,ANG,2.557,None,None,None,None,,,,,,,,,,,,,,,2015_Sep_07_1209,G,facesParametric,2,59.7096448146,
./basicStim/21M_SP_O.jpg,,0,32,32,47,,,,,,,,,,,None,None,None,None,SUP,3.387,None,None,,,,,,,,,,,,,,,2015_Sep_07_1209,G,facesParametric,2,59.7096448146,
./basicStim/34M_FE_O.jpg,,0,33,33,72,,,,,,,,,,,None,None,FEA,2.484,None,None,None,None,,,,,,,,,,,,,,,2015_Sep_07_1209,G,facesParametric,2,59.7096448146,
./basicStim/02F_NE_C.jpg,,0,34,34,13,,,,,,,,,,,None,None,None,None,None,None,NTR,1.764,,,,,,,,,,,,,,,2015_Sep_07_1209,G,facesParametric,2,59.7096448146,
./basicStim/03F_HA_O.jpg,,0,35,35,17,,,,,,,,,,,HAP,1.429,None,None,None,None,None,None,,,,,,,,,,,,,,,2015_Sep_07_1209,G,facesParametric,2,59.7096448146,
./basicStim/09F_SA_C.jpg,,0,36,36,39,,,,,,,,,,,SAD,3.81,None,None,None,None,None,None,,,,,,,,,,,,,,,2015_Sep_07_1209,G,facesParametric,2,59.7096448146,
./basicStim/28M_DI_O.jpg,,0,37,37,64,,,,,,,,,,,None,None,None,None,DIS,1.716,None,None,,,,,,,,,,,,,,,2015_Sep_07_1209,G,facesParametric,2,59.7096448146,
./basicStim/09F_HA_O.jpg,,0,38,38,38,,,,,,,,,,,HAP,1.064,None,None,None,None,None,None,,,,,,,,,,,,,,,2015_Sep_07_1209,G,facesParametric,2,59.7096448146,
./basicStim/03F_AN_O.jpg,,0,39,39,14,,,,,,,,,,,None,None,ANG,3.29,None,None,None,None,,,,,,,,,,,,,,,2015_Sep_07_1209,G,facesParametric,2,59.7096448146,
./basicStim/06F_HA_O.jpg,,0,40,40,24,,,,,,,,,,,SAD,7.785,None,None,None,None,None,None,,,,,,,,,,,,,,,2015_Sep_07_1209,G,facesParametric,2,59.7096448146,
./basicStim/28M_HA_O.jpg,,0,41,41,66,,,,,,,,,,,HAP,2.169,None,None,None,None,None,None,,,,,,,,,,,,,,,2015_Sep_07_1209,G,facesParametric,2,59.7096448146,
./basicStim/28M_SA_C.jpg,,0,42,42,67,,,,,,,,,,,None,None,FEA,4.26,None,None,None,None,,,,,,,,,,,,,,,2015_Sep_07_1209,G,facesParametric,2,59.7096448146,
./basicStim/03F_DI_O.jpg,,0,43,43,15,,,,,,,,,,,None,None,None,None,DIS,3.908,None,None,,,,,,,,,,,,,,,2015_Sep_07_1209,G,facesParametric,2,59.7096448146,
./basicStim/24M_SA_C.jpg,,0,44,44,60,,,,,,,,,,,SAD,3.223,None,None,None,None,None,None,,,,,,,,,,,,,,,2015_Sep_07_1209,G,facesParametric,2,59.7096448146,
./basicStim/36M_SP_O.jpg,,0,45,45,82,,,,,,,,,,,None,None,None,None,SUP,1.727,None,None,,,,,,,,,,,,,,,2015_Sep_07_1209,G,facesParametric,2,59.7096448146,
./basicStim/03F_FE_O.jpg,,0,46,46,16,,,,,,,,,,,None,None,FEA,3.808,None,None,None,None,,,,,,,,,,,,,,,2015_Sep_07_1209,G,facesParametric,2,59.7096448146,
./basicStim/06F_FE_O.jpg,,0,47,47,23,,,,,,,,,,,None,None,FEA,0.813,None,None,None,None,,,,,,,,,,,,,,,2015_Sep_07_1209,G,facesParametric,2,59.7096448146,
./basicStim/36M_AN_O.jpg,,0,48,48,77,,,,,,,,,,,None,None,ANG,1.236,None,None,None,None,,,,,,,,,,,,,,,2015_Sep_07_1209,G,facesParametric,2,59.7096448146,
./basicStim/07F_SP_O.jpg,,0,49,49,33,,,,,,,,,,,None,None,None,None,SUP,2.033,None,None,,,,,,,,,,,,,,,2015_Sep_07_1209,G,facesParametric,2,59.7096448146,
./basicStim/03F_SP_O.jpg,,0,50,50,19,,,,,,,,,,,HAP,1.413,None,None,None,None,None,None,,,,,,,,,,,,,,,2015_Sep_07_1209,G,facesParametric,2,59.7096448146,
./basicStim/09F_AN_O.jpg,,0,51,51,35,,,,,,,,,,,None,None,ANG,2.89,None,None,None,None,,,,,,,,,,,,,,,2015_Sep_07_1209,G,facesParametric,2,59.7096448146,
./basicStim/23M_HA_O.jpg,,0,52,52,52,,,,,,,,,,,HAP,1.214,None,None,None,None,None,None,,,,,,,,,,,,,,,2015_Sep_07_1209,G,facesParametric,2,59.7096448146,
./basicStim/06F_AN_O.jpg,,0,53,53,21,,,,,,,,,,,None,None,ANG,1.728,None,None,None,None,,,,,,,,,,,,,,,2015_Sep_07_1209,G,facesParametric,2,59.7096448146,
./basicStim/02F_AN_O.jpg,,0,54,54,7,,,,,,,,,,,None,None,ANG,2.235,None,None,None,None,,,,,,,,,,,,,,,2015_Sep_07_1209,G,facesParametric,2,59.7096448146,
./basicStim/36M_FE_O.jpg,,0,55,55,79,,,,,,,,,,,None,None,FEA,2.602,None,None,None,None,,,,,,,,,,,,,,,2015_Sep_07_1209,G,facesParametric,2,59.7096448146,
./basicStim/34M_SP_O.jpg,,0,56,56,75,,,,,,,,,,,None,None,None,None,SUP,1.899,None,None,,,,,,,,,,,,,,,2015_Sep_07_1209,G,facesParametric,2,59.7096448146,
./basicStim/24M_NE_C.jpg,,0,57,57,62,,,,,,,,,,,None,None,None,None,None,None,NTR,3.946,,,,,,,,,,,,,,,2015_Sep_07_1209,G,facesParametric,2,59.7096448146,
./basicStim/23M_SP_O.jpg,,0,58,58,54,,,,,,,,,,,None,None,None,None,SUP,1.698,None,None,,,,,,,,,,,,,,,2015_Sep_07_1209,G,facesParametric,2,59.7096448146,
./basicStim/28M_AN_O.jpg,,0,59,59,63,,,,,,,,,,,None,None,ANG,4.415,None,None,None,None,,,,,,,,,,,,,,,2015_Sep_07_1209,G,facesParametric,2,59.7096448146,
./basicStim/34M_DI_O.jpg,,0,60,60,71,,,,,,,,,,,None,None,ANG,1.754,None,None,None,None,,,,,,,,,,,,,,,2015_Sep_07_1209,G,facesParametric,2,59.7096448146,
./basicStim/28M_FE_O.jpg,,0,61,61,65,,,,,,,,,,,None,None,FEA,2.718,None,None,None,None,,,,,,,,,,,,,,,2015_Sep_07_1209,G,facesParametric,2,59.7096448146,
./basicStim/28M_SP_O.jpg,,0,62,62,68,,,,,,,,,,,None,None,None,None,SUP,0.788,None,None,,,,,,,,,,,,,,,2015_Sep_07_1209,G,facesParametric,2,59.7096448146,
./basicStim/21M_DI_O.jpg,,0,63,63,43,,,,,,,,,,,None,None,None,None,DIS,1.118,None,None,,,,,,,,,,,,,,,2015_Sep_07_1209,G,facesParametric,2,59.7096448146,
./basicStim/21M_AN_O.jpg,,0,64,64,42,,,,,,,,,,,None,None,ANG,0.775,None,None,None,None,,,,,,,,,,,,,,,2015_Sep_07_1209,G,facesParametric,2,59.7096448146,
./basicStim/21M_HA_O.jpg,,0,65,65,45,,,,,,,,,,,HAP,1.277,None,None,None,None,None,None,,,,,,,,,,,,,,,2015_Sep_07_1209,G,facesParametric,2,59.7096448146,
./basicStim/24M_DI_O.jpg,,0,66,66,57,,,,,,,,,,,SAD,4.55,None,None,None,None,None,None,,,,,,,,,,,,,,,2015_Sep_07_1209,G,facesParametric,2,59.7096448146,
./basicStim/02F_SA_C.jpg,,0,67,67,11,,,,,,,,,,,SAD,1.735,None,None,None,None,None,None,,,,,,,,,,,,,,,2015_Sep_07_1209,G,facesParametric,2,59.7096448146,
./basicStim/03F_NE_C.jpg,,0,68,68,20,,,,,,,,,,,None,None,None,None,None,None,NTR,2.099,,,,,,,,,,,,,,,2015_Sep_07_1209,G,facesParametric,2,59.7096448146,
./basicStim/07F_HA_O.jpg,,0,69,69,31,,,,,,,,,,,HAP,2.065,None,None,None,None,None,None,,,,,,,,,,,,,,,2015_Sep_07_1209,G,facesParametric,2,59.7096448146,
./basicStim/34M_SA_C.jpg,,0,70,70,74,,,,,,,,,,,SAD,2.388,None,None,None,None,None,None,,,,,,,,,,,,,,,2015_Sep_07_1209,G,facesParametric,2,59.7096448146,
./basicStim/01F_SP_O.jpg,,0,71,71,5,,,,,,,,,,,None,None,None,None,SUP,1.778,None,None,,,,,,,,,,,,,,,2015_Sep_07_1209,G,facesParametric,2,59.7096448146,
./basicStim/36M_HA_O.jpg,,0,72,72,80,,,,,,,,,,,HAP,1.028,None,None,None,None,None,None,,,,,,,,,,,,,,,2015_Sep_07_1209,G,facesParametric,2,59.7096448146,
./basicStim/02F_SP_O.jpg,,0,73,73,12,,,,,,,,,,,None,None,None,None,SUP,0.889,None,None,,,,,,,,,,,,,,,2015_Sep_07_1209,G,facesParametric,2,59.7096448146,
./basicStim/07F_DI_O.jpg,,0,74,74,29,,,,,,,,,,,None,None,None,None,DIS,1.514,None,None,,,,,,,,,,,,,,,2015_Sep_07_1209,G,facesParametric,2,59.7096448146,
./basicStim/36M_SA_C.jpg,,0,75,75,81,,,,,,,,,,,SAD,2.254,None,None,None,None,None,None,,,,,,,,,,,,,,,2015_Sep_07_1209,G,facesParametric,2,59.7096448146,
./basicStim/01F_HA_O.jpg,,0,76,76,3,,,,,,,,,,,None,None,None,None,None,None,NTR,2.099,,,,,,,,,,,,,,,2015_Sep_07_1209,G,facesParametric,2,59.7096448146,
./basicStim/02F_HA_O.jpg,,0,77,77,10,,,,,,,,,,,None,None,None,None,None,None,NTR,0.854,,,,,,,,,,,,,,,2015_Sep_07_1209,G,facesParametric,2,59.7096448146,
./basicStim/23M_FE_O.jpg,,0,78,78,51,,,,,,,,,,,None,None,None,None,SUP,2.59,None,None,,,,,,,,,,,,,,,2015_Sep_07_1209,G,facesParametric,2,59.7096448146,
./basicStim/09F_NE_C.jpg,,0,79,79,41,,,,,,,,,,,None,None,None,None,None,None,NTR,2.295,,,,,,,,,,,,,,,2015_Sep_07_1209,G,facesParametric,2,59.7096448146,
./basicStim/24M_SP_O.jpg,,0,80,80,61,,,,,,,,,,,None,None,None,None,SUP,3.992,None,None,,,,,,,,,,,,,,,2015_Sep_07_1209,G,facesParametric,2,59.7096448146,
./basicStim/02F_DI_O.jpg,,0,81,81,8,,,,,,,,,,,None,None,None,None,DIS,2.301,None,None,,,,,,,,,,,,,,,2015_Sep_07_1209,G,facesParametric,2,59.7096448146,
./basicStim/23M_DI_O.jpg,,0,82,82,50,,,,,,,,,,,SAD,1.968,None,None,None,None,None,None,,,,,,,,,,,,,,,2015_Sep_07_1209,G,facesParametric,2,59.7096448146,
./basicStim/34M_NE_C.jpg,,0,83,83,76,,,,,,,,,,,None,None,None,None,None,None,NTR,1.796,,,,,,,,,,,,,,,2015_Sep_07_1209,G,facesParametric,2,59.7096448146,
,,,,,,,,,,,,,,,,,,,,,,,,return,3.78830599785,,,,,,,,,,,,,2015_Sep_07_1209,G,facesParametric,2,59.7096448146,
,,,,,,,,,,,,,,return,31.5912611485,,,,,,,,,,,,,,,,,,,,,,,2015_Sep_07_1209,G,facesParametric,2,59.7096448146,
,,,,,,,,,,,,,,,,,,,,,,,,return,42.7875759602,,,,,,,,,,,,,2015_Sep_07_1209,G,facesParametric,2,59.7096448146,
,,,,,,,,,,,,,,,,,,,,,,,,,,return,15.0330960751,,,,,,,,,,,2015_Sep_07_1209,G,facesParametric,2,59.7096448146,
./stim/MorphM6_10_orig.jpg,0,,,,,0,0,0,0,,,,,,,,,,,,,,,,,,,2.87109375,-13.154296875,1,0,0,2.53510212898,,,,,2015_Sep_07_1209,G,facesParametric,2,59.7096448146,
./stim/MorphF9_04_orig.jpg,1,,,,,0,1,1,1,,,,,,,,,,,,,,,,,,,2.8125,-13.154296875,0,0,1,1.27225089073,,,,,2015_Sep_07_1209,G,facesParametric,2,59.7096448146,
./stim/MorphM3_03_orig.jpg,2,,,,,0,2,2,2,,,,,,,,,,,,,,,,,,,3.076171875,-13.154296875,0,0,1,1.01905488968,,,,,2015_Sep_07_1209,G,facesParametric,2,59.7096448146,
./stim/MorphM1_00_orig.jpg,3,,,,,0,3,3,3,,,,,,,,,,,,,,,,,,,4.3359375,-12.216796875,0,0,1,1.03773212433,,,,,2015_Sep_07_1209,G,facesParametric,2,59.7096448146,
./stim/MorphM6_09_orig.jpg,4,,,,,0,4,4,4,,,,,,,,,,,,,,,,,,,4.599609375,-12.275390625,1,0,0,2.02592897415,,,,,2015_Sep_07_1209,G,facesParametric,2,59.7096448146,
./stim/MorphM10_02_orig.jpg,5,,,,,0,5,5,5,,,,,,,,,,,,,,,,,,,4.599609375,-12.275390625,0,0,1,0.953905105591,,,,,2015_Sep_07_1209,G,facesParametric,2,59.7096448146,
./stim/MorphM3_06_orig.jpg,6,,,,,0,6,6,6,,,,,,,,,,,,,,,,,,,4.599609375,-12.275390625,0,0,1,2.79767608643,,,,,2015_Sep_07_1209,G,facesParametric,2,59.7096448146,
./stim/MorphM7_08_orig.jpg,7,,,,,0,7,7,7,,,,,,,,,,,,,,,,,,,4.5703125,-12.24609375,1,0,0,0.835247039795,,,,,2015_Sep_07_1209,G,facesParametric,2,59.7096448146,
./stim/MorphM6_04_orig.jpg,8,,,,,0,8,8,8,,,,,,,,,,,,,,,,,,,4.5703125,-12.24609375,0,0,1,0.953730821609,,,,,2015_Sep_07_1209,G,facesParametric,2,59.7096448146,
./stim/MorphM2_05_orig.jpg,9,,,,,0,9,9,9,,,,,,,,,,,,,,,,,,,4.5703125,-12.216796875,0,0,1,1.96001791954,,,,,2015_Sep_07_1209,G,facesParametric,2,59.7096448146,
./stim/MorphM3_01_orig.jpg,10,,,,,0,10,10,10,,,,,,,,,,,,,,,,,,,4.5703125,-12.158203125,0,0,1,2.07684206963,,,,,2015_Sep_07_1209,G,facesParametric,2,59.7096448146,
./stim/MorphF1_03_orig.jpg,11,,,,,0,11,11,11,,,,,,,,,,,,,,,,,,,4.599609375,-12.1875,0,0,1,1.00201678276,,,,,2015_Sep_07_1209,G,facesParametric,2,59.7096448146,
./stim/MorphF8_09_orig.jpg,12,,,,,0,12,12,12,,,,,,,,,,,,,,,,,,,4.599609375,-12.1875,1,0,0,0.920491933823,,,,,2015_Sep_07_1209,G,facesParametric,2,59.7096448146,
./stim/MorphF3_01_orig.jpg,13,,,,,0,13,13,13,,,,,,,,,,,,,,,,,,,4.599609375,-12.1875,0,0,1,1.22096896172,,,,,2015_Sep_07_1209,G,facesParametric,2,59.7096448146,
./stim/MorphF7_03_orig.jpg,14,,,,,0,14,14,14,,,,,,,,,,,,,,,,,,,4.599609375,-12.1875,1,0,0,2.42876696587,,,,,2015_Sep_07_1209,G,facesParametric,2,59.7096448146,
./stim/MorphM1_05_orig.jpg,15,,,,,0,15,15,15,,,,,,,,,,,,,,,,,,,4.62890625,-12.1875,0,0,1,2.46219587326,,,,,2015_Sep_07_1209,G,facesParametric,2,59.7096448146,
./stim/MorphM5_08_orig.jpg,16,,,,,0,16,16,16,,,,,,,,,,,,,,,,,,,4.599609375,-12.216796875,1,0,0,4.40667510033,,,,,2015_Sep_07_1209,G,facesParametric,2,59.7096448146,
./stim/MorphF7_01_orig.jpg,17,,,,,0,17,17,17,,,,,,,,,,,,,,,,,,,4.599609375,-12.216796875,0,0,1,1.97417092323,,,,,2015_Sep_07_1209,G,facesParametric,2,59.7096448146,
./stim/MorphF1_10_orig.jpg,18,,,,,0,18,18,18,,,,,,,,,,,,,,,,,,,4.599609375,-12.216796875,0,0,1,3.4847741127,,,,,2015_Sep_07_1209,G,facesParametric,2,59.7096448146,
./stim/MorphF9_06_orig.jpg,19,,,,,0,19,19,19,,,,,,,,,,,,,,,,,,,4.599609375,-12.216796875,1,0,0,1.40411186218,,,,,2015_Sep_07_1209,G,facesParametric,2,59.7096448146,
./stim/MorphM4_00_orig.jpg,20,,,,,0,20,20,20,,,,,,,,,,,,,,,,,,,4.5703125,-12.1875,0,0,1,0.902004957199,,,,,2015_Sep_07_1209,G,facesParametric,2,59.7096448146,
./stim/MorphM10_08_orig.jpg,21,,,,,0,21,21,21,,,,,,,,,,,,,,,,,,,4.5703125,-12.1875,1,0,0,1.23899197578,,,,,2015_Sep_07_1209,G,facesParametric,2,59.7096448146,
./stim/MorphF8_07_orig.jpg,22,,,,,0,22,22,22,,,,,,,,,,,,,,,,,,,4.5703125,-12.1875,0,0,1,4.57406806946,,,,,2015_Sep_07_1209,G,facesParametric,2,59.7096448146,
./stim/MorphF6_02_orig.jpg,23,,,,,0,23,23,23,,,,,,,,,,,,,,,,,,,4.541015625,-12.158203125,0,0,1,1.12200593948,,,,,2015_Sep_07_1209,G,facesParametric,2,59.7096448146,
./stim/MorphM2_08_orig.jpg,24,,,,,0,24,24,24,,,,,,,,,,,,,,,,,,,4.5703125,-12.12890625,1,0,0,0.684379816055,,,,,2015_Sep_07_1209,G,facesParametric,2,59.7096448146,
./stim/MorphF9_05_orig.jpg,25,,,,,0,25,25,25,,,,,,,,,,,,,,,,,,,4.5703125,-12.12890625,1,0,0,0.685907840729,,,,,2015_Sep_07_1209,G,facesParametric,2,59.7096448146,
./stim/MorphF1_08_orig.jpg,26,,,,,0,26,26,26,,,,,,,,,,,,,,,,,,,4.5703125,-12.12890625,1,0,0,0.769824981689,,,,,2015_Sep_07_1209,G,facesParametric,2,59.7096448146,
./stim/MorphF6_09_orig.jpg,27,,,,,0,27,27,27,,,,,,,,,,,,,,,,,,,4.5703125,-12.12890625,1,0,0,0.754040002823,,,,,2015_Sep_07_1209,G,facesParametric,2,59.7096448146,
./stim/MorphF2_09_orig.jpg,28,,,,,0,28,28,28,,,,,,,,,,,,,,,,,,,4.5703125,-12.12890625,1,0,0,3.88544392586,,,,,2015_Sep_07_1209,G,facesParametric,2,59.7096448146,
./stim/MorphF1_04_orig.jpg,29,,,,,0,29,29,29,,,,,,,,,,,,,,,,,,,4.541015625,-12.099609375,0,0,1,5.69414114952,,,,,2015_Sep_07_1209,G,facesParametric,2,59.7096448146,
./stim/MorphM4_06_orig.jpg,30,,,,,0,30,30,30,,,,,,,,,,,,,,,,,,,4.482421875,-12.1875,1,0,0,0.786468029022,,,,,2015_Sep_07_1209,G,facesParametric,2,59.7096448146,
./stim/MorphM5_04_orig.jpg,31,,,,,0,31,31,31,,,,,,,,,,,,,,,,,,,4.51171875,-12.275390625,1,0,0,11.5799639225,,,,,2015_Sep_07_1209,G,facesParametric,2,59.7096448146,
./stim/MorphF10_02_orig.jpg,32,,,,,0,32,32,32,,,,,,,,,,,,,,,,,,,4.51171875,-12.3046875,1,0,0,2.16051197052,,,,,2015_Sep_07_1209,G,facesParametric,2,59.7096448146,
./stim/MorphF6_05_orig.jpg,33,,,,,0,33,33,33,,,,,,,,,,,,,,,,,,,4.541015625,-12.392578125,0,0,1,2.69561100006,,,,,2015_Sep_07_1209,G,facesParametric,2,59.7096448146,
./stim/MorphF8_01_orig.jpg,34,,,,,0,34,34,34,,,,,,,,,,,,,,,,,,,4.599609375,-12.36328125,0,0,1,2.26094293594,,,,,2015_Sep_07_1209,G,facesParametric,2,59.7096448146,
./stim/MorphM2_06_orig.jpg,35,,,,,0,35,35,35,,,,,,,,,,,,,,,,,,,4.658203125,-12.392578125,1,0,0,9.63554096222,,,,,2015_Sep_07_1209,G,facesParametric,2,59.7096448146,
./stim/MorphM9_02_orig.jpg,36,,,,,0,36,36,36,,,,,,,,,,,,,,,,,,,4.658203125,-12.392578125,0,0,1,2.24422502518,,,,,2015_Sep_07_1209,G,facesParametric,2,59.7096448146,
./stim/MorphM5_03_orig.jpg,37,,,,,0,37,37,37,,,,,,,,,,,,,,,,,,,4.74609375,-13.154296875,1,0,0,8.34429001808,,,,,2015_Sep_07_1209,G,facesParametric,2,59.7096448146,
./stim/MorphM4_01_orig.jpg,38,,,,,0,38,38,38,,,,,,,,,,,,,,,,,,,4.716796875,-12.421875,0,0,1,0.971221923828,,,,,2015_Sep_07_1209,G,facesParametric,2,59.7096448146,
./stim/MorphM6_05_orig.jpg,39,,,,,0,39,39,39,,,,,,,,,,,,,,,,,,,4.6875,-12.451171875,0,0,1,1.32236599922,,,,,2015_Sep_07_1209,G,facesParametric,2,59.7096448146,
./stim/MorphF4_02_orig.jpg,40,,,,,0,40,40,40,,,,,,,,,,,,,,,,,,,4.62890625,-12.5390625,0,0,1,1.23886799812,,,,,2015_Sep_07_1209,G,facesParametric,2,59.7096448146,
./stim/MorphM9_03_orig.jpg,41,,,,,0,41,41,41,,,,,,,,,,,,,,,,,,,4.599609375,-12.568359375,0,0,1,0.937314987183,,,,,2015_Sep_07_1209,G,facesParametric,2,59.7096448146,
./stim/MorphF4_06_orig.jpg,42,,,,,0,42,42,42,,,,,,,,,,,,,,,,,,,4.62890625,-12.5390625,1,0,0,7.05444812775,,,,,2015_Sep_07_1209,G,facesParametric,2,59.7096448146,
./stim/MorphF5_00_orig.jpg,43,,,,,0,43,43,43,,,,,,,,,,,,,,,,,,,4.62890625,-12.5390625,0,0,1,3.45114398003,,,,,2015_Sep_07_1209,G,facesParametric,2,59.7096448146,
./stim/MorphM7_04_orig.jpg,44,,,,,0,44,44,44,,,,,,,,,,,,,,,,,,,4.658203125,-12.509765625,1,0,0,2.46269822121,,,,,2015_Sep_07_1209,G,facesParametric,2,59.7096448146,
./stim/MorphF1_07_orig.jpg,45,,,,,0,45,45,45,,,,,,,,,,,,,,,,,,,4.6875,-12.5390625,1,0,0,2.04298400879,,,,,2015_Sep_07_1209,G,facesParametric,2,59.7096448146,
./stim/MorphF7_02_orig.jpg,46,,,,,0,46,46,46,,,,,,,,,,,,,,,,,,,4.6875,-12.5390625,1,0,0,2.44601607323,,,,,2015_Sep_07_1209,G,facesParametric,2,59.7096448146,
./stim/MorphF3_08_orig.jpg,47,,,,,0,47,47,47,,,,,,,,,,,,,,,,,,,4.6875,-12.685546875,1,0,0,13.7749640942,,,,,2015_Sep_07_1209,G,facesParametric,2,59.7096448146,
./stim/MorphM4_03_orig.jpg,48,,,,,0,48,48,48,,,,,,,,,,,,,,,,,,,4.658203125,-12.71484375,0,0,1,10.373347044,,,,,2015_Sep_07_1209,G,facesParametric,2,59.7096448146,
./stim/MorphM7_05_orig.jpg,49,,,,,0,49,49,49,,,,,,,,,,,,,,,,,,,4.658203125,-12.685546875,1,0,0,1.67423200607,,,,,2015_Sep_07_1209,G,facesParametric,2,59.7096448146,
./stim/MorphM4_08_orig.jpg,50,,,,,0,50,50,50,,,,,,,,,,,,,,,,,,,4.62890625,-12.71484375,1,0,0,0.870605945587,,,,,2015_Sep_07_1209,G,facesParametric,2,59.7096448146,
./stim/MorphM2_03_orig.jpg,51,,,,,0,51,51,51,,,,,,,,,,,,,,,,,,,4.62890625,-12.71484375,0,0,1,3.7339990139,,,,,2015_Sep_07_1209,G,facesParametric,2,59.7096448146,
./stim/MorphF3_10_orig.jpg,52,,,,,0,52,52,52,,,,,,,,,,,,,,,,,,,4.62890625,-12.71484375,1,0,0,10.0358769894,,,,,2015_Sep_07_1209,G,facesParametric,2,59.7096448146,
./stim/MorphF6_08_orig.jpg,53,,,,,0,53,53,53,,,,,,,,,,,,,,,,,,,4.62890625,-12.71484375,1,0,0,3.249573946,,,,,2015_Sep_07_1209,G,facesParametric,2,59.7096448146,
./stim/MorphM3_10_orig.jpg,54,,,,,0,54,54,54,,,,,,,,,,,,,,,,,,,6.123046875,-10.869140625,1,0,0,3.28294610977,,,,,2015_Sep_07_1209,G,facesParametric,2,59.7096448146,
./stim/MorphM10_03_orig.jpg,55,,,,,0,55,55,55,,,,,,,,,,,,,,,,,,,3.017578125,-11.982421875,1,0,0,2.026501894,,,,,2015_Sep_07_1209,G,facesParametric,2,59.7096448146,
./stim/MorphF2_03_orig.jpg,56,,,,,0,56,56,56,,,,,,,,,,,,,,,,,,,2.98828125,-12.01171875,0,0,1,1.6071460247,,,,,2015_Sep_07_1209,G,facesParametric,2,59.7096448146,
./stim/MorphM7_10_orig.jpg,57,,,,,0,57,57,57,,,,,,,,,,,,,,,,,,,3.134765625,-11.923828125,1,0,0,1.11969709396,,,,,2015_Sep_07_1209,G,facesParametric,2,59.7096448146,
./stim/MorphF8_00_orig.jpg,58,,,,,0,58,58,58,,,,,,,,,,,,,,,,,,,3.251953125,-11.923828125,1,0,0,4.50607895851,,,,,2015_Sep_07_1209,G,facesParametric,2,59.7096448146,
./stim/MorphF7_07_orig.jpg,59,,,,,0,59,59,59,,,,,,,,,,,,,,,,,,,3.28125,-11.89453125,1,0,0,1.02037405968,,,,,2015_Sep_07_1209,G,facesParametric,2,59.7096448146,
./stim/MorphM8_09_orig.jpg,60,,,,,0,60,60,60,,,,,,,,,,,,,,,,,,,3.3984375,-11.806640625,1,0,0,1.70867705345,,,,,2015_Sep_07_1209,G,facesParametric,2,59.7096448146,
./stim/MorphF5_08_orig.jpg,61,,,,,0,61,61,61,,,,,,,,,,,,,,,,,,,3.3984375,-11.806640625,1,0,0,1.50589203835,,,,,2015_Sep_07_1209,G,facesParametric,2,59.7096448146,
./stim/MorphM8_00_orig.jpg,62,,,,,0,62,62,62,,,,,,,,,,,,,,,,,,,3.3984375,-11.71875,1,0,0,10.1878480911,,,,,2015_Sep_07_1209,G,facesParametric,2,59.7096448146,
./stim/MorphF4_04_orig.jpg,63,,,,,0,63,63,63,,,,,,,,,,,,,,,,,,,3.369140625,-11.66015625,0,0,1,1.69097709656,,,,,2015_Sep_07_1209,G,facesParametric,2,59.7096448146,
./stim/MorphM8_05_orig.jpg,64,,,,,0,64,64,64,,,,,,,,,,,,,,,,,,,3.3984375,-11.630859375,1,0,0,1.07133603096,,,,,2015_Sep_07_1209,G,facesParametric,2,59.7096448146,
./stim/MorphM1_09_orig.jpg,65,,,,,0,65,65,65,,,,,,,,,,,,,,,,,,,3.3984375,-11.630859375,0,0,1,1.32272791862,,,,,2015_Sep_07_1209,G,facesParametric,2,59.7096448146,
./stim/MorphF8_04_orig.jpg,66,,,,,0,66,66,66,,,,,,,,,,,,,,,,,,,3.3984375,-11.6015625,1,0,0,1.43994379044,,,,,2015_Sep_07_1209,G,facesParametric,2,59.7096448146,
./stim/MorphM10_07_orig.jpg,67,,,,,0,67,67,67,,,,,,,,,,,,,,,,,,,3.427734375,-11.572265625,1,0,0,0.851310968399,,,,,2015_Sep_07_1209,G,facesParametric,2,59.7096448146,
./stim/MorphM5_05_orig.jpg,68,,,,,0,68,68,68,,,,,,,,,,,,,,,,,,,3.45703125,-11.54296875,1,0,0,5.46203804016,,,,,2015_Sep_07_1209,G,facesParametric,2,59.7096448146,
./stim/MorphM3_02_orig.jpg,69,,,,,0,69,69,69,,,,,,,,,,,,,,,,,,,3.45703125,-11.54296875,0,0,1,1.40663123131,,,,,2015_Sep_07_1209,G,facesParametric,2,59.7096448146,
./stim/MorphF2_08_orig.jpg,70,,,,,0,70,70,70,,,,,,,,,,,,,,,,,,,3.486328125,-11.572265625,1,0,0,3.65253996849,,,,,2015_Sep_07_1209,G,facesParametric,2,59.7096448146,
./stim/MorphM5_00_orig.jpg,71,,,,,0,71,71,71,,,,,,,,,,,,,,,,,,,3.486328125,-11.630859375,1,0,0,6.54991292953,,,,,2015_Sep_07_1209,G,facesParametric,2,59.7096448146,
./stim/MorphF6_07_orig.jpg,72,,,,,0,72,72,72,,,,,,,,,,,,,,,,,,,3.486328125,-11.630859375,1,0,0,0.953440904617,,,,,2015_Sep_07_1209,G,facesParametric,2,59.7096448146,
./stim/MorphM7_07_orig.jpg,73,,,,,0,73,73,73,,,,,,,,,,,,,,,,,,,3.515625,-11.6015625,1,0,0,0.936142921448,,,,,2015_Sep_07_1209,G,facesParametric,2,59.7096448146,
./stim/MorphM4_05_orig.jpg,74,,,,,0,74,74,74,,,,,,,,,,,,,,,,,,,3.515625,-11.6015625,1,0,0,1.03768205643,,,,,2015_Sep_07_1209,G,facesParametric,2,59.7096448146,
./stim/MorphF1_02_orig.jpg,75,,,,,0,75,75,75,,,,,,,,,,,,,,,,,,,3.515625,-11.6015625,0,0,1,1.55723786354,,,,,2015_Sep_07_1209,G,facesParametric,2,59.7096448146,
./stim/MorphM1_03_orig.jpg,76,,,,,0,76,76,76,,,,,,,,,,,,,,,,,,,3.515625,-11.6015625,0,0,1,1.05443096161,,,,,2015_Sep_07_1209,G,facesParametric,2,59.7096448146,
./stim/MorphM6_01_orig.jpg,77,,,,,0,77,77,77,,,,,,,,,,,,,,,,,,,3.486328125,-11.630859375,0,0,1,1.03769302368,,,,,2015_Sep_07_1209,G,facesParametric,2,59.7096448146,
./stim/MorphF5_05_orig.jpg,78,,,,,0,78,78,78,,,,,,,,,,,,,,,,,,,3.486328125,-11.630859375,1,0,0,1.65736484528,,,,,2015_Sep_07_1209,G,facesParametric,2,59.7096448146,
./stim/MorphF4_10_orig.jpg,79,,,,,0,79,79,79,,,,,,,,,,,,,,,,,,,3.515625,-11.630859375,1,0,0,1.57425403595,,,,,2015_Sep_07_1209,G,facesParametric,2,59.7096448146,
./stim/MorphF9_03_orig.jpg,80,,,,,0,80,80,80,,,,,,,,,,,,,,,,,,,3.076171875,-12.94921875,0,0,1,12.25,,,,,2015_Sep_07_1209,G,facesParametric,2,59.7096448146,
./stim/MorphM8_04_orig.jpg,81,,,,,0,81,81,81,,,,,,,,,,,,,,,,,,,3.193359375,-13.154296875,1,0,0,11.0097341537,,,,,2015_Sep_07_1209,G,facesParametric,2,59.7096448146,
./stim/MorphF2_04_orig.jpg,82,,,,,0,82,82,82,,,,,,,,,,,,,,,,,,,3.193359375,-13.154296875,0,0,1,0.870496988297,,,,,2015_Sep_07_1209,G,facesParametric,2,59.7096448146,
./stim/MorphM10_01_orig.jpg,83,,,,,0,83,83,83,,,,,,,,,,,,,,,,,,,3.1640625,-13.154296875,0,0,1,0.968398094177,,,,,2015_Sep_07_1209,G,facesParametric,2,59.7096448146,
./stim/MorphF6_10_orig.jpg,84,,,,,0,84,84,84,,,,,,,,,,,,,,,,,,,3.1640625,-13.154296875,1,0,0,0.768289089203,,,,,2015_Sep_07_1209,G,facesParametric,2,59.7096448146,
./stim/MorphF10_00_orig.jpg,85,,,,,0,85,85,85,,,,,,,,,,,,,,,,,,,3.310546875,-13.125,1,0,0,2.62855792046,,,,,2015_Sep_07_1209,G,facesParametric,2,59.7096448146,
./stim/MorphM10_04_orig.jpg,86,,,,,0,86,86,86,,,,,,,,,,,,,,,,,,,3.310546875,-13.095703125,0,0,1,7.03766202927,,,,,2015_Sep_07_1209,G,facesParametric,2,59.7096448146,
./stim/MorphM4_07_orig.jpg,87,,,,,0,87,87,87,,,,,,,,,,,,,,,,,,,3.28125,-13.095703125,1,0,0,0.903589963913,,,,,2015_Sep_07_1209,G,facesParametric,2,59.7096448146,
./stim/MorphF10_07_orig.jpg,88,,,,,0,88,88,88,,,,,,,,,,,,,,,,,,,3.33984375,-13.154296875,1,0,0,1.5071618557,,,,,2015_Sep_07_1209,G,facesParametric,2,59.7096448146,
./stim/MorphF8_02_orig.jpg,89,,,,,0,89,89,89,,,,,,,,,,,,,,,,,,,3.33984375,-13.154296875,0,0,1,3.31790590286,,,,,2015_Sep_07_1209,G,facesParametric,2,59.7096448146,
./stim/MorphM10_06_orig.jpg,90,,,,,0,90,90,90,,,,,,,,,,,,,,,,,,,3.33984375,-13.154296875,1,0,0,0.751923084259,,,,,2015_Sep_07_1209,G,facesParametric,2,59.7096448146,
./stim/MorphF6_06_orig.jpg,91,,,,,0,91,91,91,,,,,,,,,,,,,,,,,,,3.369140625,-13.154296875,1,0,0,1.28768396378,,,,,2015_Sep_07_1209,G,facesParametric,2,59.7096448146,
./stim/MorphF2_07_orig.jpg,92,,,,,0,92,92,92,,,,,,,,,,,,,,,,,,,3.369140625,-13.154296875,1,0,0,1.45725512505,,,,,2015_Sep_07_1209,G,facesParametric,2,59.7096448146,
./stim/MorphF3_04_orig.jpg,93,,,,,0,93,93,93,,,,,,,,,,,,,,,,,,,3.369140625,-13.154296875,0,0,1,1.68937897682,,,,,2015_Sep_07_1209,G,facesParametric,2,59.7096448146,
./stim/MorphM10_10_orig.jpg,94,,,,,0,94,94,94,,,,,,,,,,,,,,,,,,,3.3984375,-13.154296875,1,0,0,0.803457021713,,,,,2015_Sep_07_1209,G,facesParametric,2,59.7096448146,
./stim/MorphF3_06_orig.jpg,95,,,,,0,95,95,95,,,,,,,,,,,,,,,,,,,3.3984375,-13.154296875,1,0,0,2.96528196335,,,,,2015_Sep_07_1209,G,facesParametric,2,59.7096448146,
./stim/MorphM8_06_orig.jpg,96,,,,,0,96,96,96,,,,,,,,,,,,,,,,,,,3.427734375,-13.125,0,0,1,4.08720588684,,,,,2015_Sep_07_1209,G,facesParametric,2,59.7096448146,
./stim/MorphM4_02_orig.jpg,97,,,,,0,97,97,97,,,,,,,,,,,,,,,,,,,3.45703125,-13.095703125,1,0,0,0.702668905258,,,,,2015_Sep_07_1209,G,facesParametric,2,59.7096448146,
./stim/MorphF9_08_orig.jpg,98,,,,,0,98,98,98,,,,,,,,,,,,,,,,,,,0.703125,-12.94921875,1,0,0,4.84147000313,,,,,2015_Sep_07_1209,G,facesParametric,2,59.7096448146,
./stim/MorphF3_07_orig.jpg,99,,,,,0,99,99,99,,,,,,,,,,,,,,,,,,,0.76171875,-13.0078125,0,0,1,2.22756505013,,,,,2015_Sep_07_1209,G,facesParametric,2,59.7096448146,
./stim/MorphM10_09_orig.jpg,100,,,,,0,100,100,100,,,,,,,,,,,,,,,,,,,0.76171875,-13.0078125,1,0,0,1.08823108673,,,,,2015_Sep_07_1209,G,facesParametric,2,59.7096448146,
./stim/MorphM4_04_orig.jpg,101,,,,,0,101,101,101,,,,,,,,,,,,,,,,,,,0.76171875,-13.0078125,1,0,0,1.87533712387,,,,,2015_Sep_07_1209,G,facesParametric,2,59.7096448146,
./stim/MorphM6_07_orig.jpg,102,,,,,0,102,102,102,,,,,,,,,,,,,,,,,,,-0.146484375,-12.978515625,0,0,1,6.78402900696,,,,,2015_Sep_07_1209,G,facesParametric,2,59.7096448146,
./stim/MorphF4_01_orig.jpg,103,,,,,0,103,103,103,,,,,,,,,,,,,,,,,,,0.849609375,-11.953125,0,0,1,1.02011799812,,,,,2015_Sep_07_1209,G,facesParametric,2,59.7096448146,
./stim/MorphF10_06_orig.jpg,104,,,,,0,104,104,104,,,,,,,,,,,,,,,,,,,2.373046875,-11.71875,1,0,0,4.80923509598,,,,,2015_Sep_07_1209,G,facesParametric,2,59.7096448146,
./stim/MorphM3_00_orig.jpg,105,,,,,0,105,105,105,,,,,,,,,,,,,,,,,,,2.40234375,-11.748046875,0,0,1,5.47901988029,,,,,2015_Sep_07_1209,G,facesParametric,2,59.7096448146,
./stim/MorphF7_08_orig.jpg,106,,,,,0,106,106,106,,,,,,,,,,,,,,,,,,,5.595703125,-12.626953125,1,0,0,1.74152398109,,,,,2015_Sep_07_1209,G,facesParametric,2,59.7096448146,
./stim/MorphF1_06_orig.jpg,107,,,,,0,107,107,107,,,,,,,,,,,,,,,,,,,5.56640625,-12.7734375,0,0,1,4.47280693054,,,,,2015_Sep_07_1209,G,facesParametric,2,59.7096448146,
./stim/MorphM7_02_orig.jpg,108,,,,,0,108,108,108,,,,,,,,,,,,,,,,,,,5.5078125,-12.744140625,1,0,0,0.870540857315,,,,,2015_Sep_07_1209,G,facesParametric,2,59.7096448146,
./stim/MorphM5_02_orig.jpg,109,,,,,0,109,109,109,,,,,,,,,,,,,,,,,,,5.537109375,-12.7734375,0,0,1,2.37859797478,,,,,2015_Sep_07_1209,G,facesParametric,2,59.7096448146,
./stim/MorphM6_08_orig.jpg,110,,,,,0,110,110,110,,,,,,,,,,,,,,,,,,,5.537109375,-12.7734375,1,0,0,1.15510988235,,,,,2015_Sep_07_1209,G,facesParametric,2,59.7096448146,
./stim/MorphF6_01_orig.jpg,111,,,,,0,111,111,111,,,,,,,,,,,,,,,,,,,5.537109375,-12.7734375,1,0,0,0.938212156296,,,,,2015_Sep_07_1209,G,facesParametric,2,59.7096448146,
./stim/MorphM3_08_orig.jpg,112,,,,,0,112,112,112,,,,,,,,,,,,,,,,,,,5.537109375,-12.7734375,1,0,0,3.56766796112,,,,,2015_Sep_07_1209,G,facesParametric,2,59.7096448146,
./stim/MorphF2_06_orig.jpg,113,,,,,0,113,113,113,,,,,,,,,,,,,,,,,,,5.537109375,-12.7734375,1,0,0,1.79173898697,,,,,2015_Sep_07_1209,G,facesParametric,2,59.7096448146,
./stim/MorphM9_05_orig.jpg,114,,,,,0,114,114,114,,,,,,,,,,,,,,,,,,,5.5078125,-12.802734375,0,0,1,1.18720293045,,,,,2015_Sep_07_1209,G,facesParametric,2,59.7096448146,
./stim/MorphM7_06_orig.jpg,115,,,,,0,115,115,115,,,,,,,,,,,,,,,,,,,5.5078125,-12.861328125,1,0,0,0.837136030197,,,,,2015_Sep_07_1209,G,facesParametric,2,59.7096448146,
./stim/MorphF7_00_orig.jpg,116,,,,,0,116,116,116,,,,,,,,,,,,,,,,,,,5.5078125,-12.861328125,1,0,0,2.42670917511,,,,,2015_Sep_07_1209,G,facesParametric,2,59.7096448146,
./stim/MorphM7_00_orig.jpg,117,,,,,0,117,117,117,,,,,,,,,,,,,,,,,,,5.537109375,-12.83203125,0,0,1,2.22748494148,,,,,2015_Sep_07_1209,G,facesParametric,2,59.7096448146,
./stim/MorphM6_02_orig.jpg,118,,,,,0,118,118,118,,,,,,,,,,,,,,,,,,,5.56640625,-12.83203125,0,0,1,1.4732568264,,,,,2015_Sep_07_1209,G,facesParametric,2,59.7096448146,
./stim/MorphF7_04_orig.jpg,119,,,,,0,119,119,119,,,,,,,,,,,,,,,,,,,5.44921875,-12.94921875,0,0,1,7.59124779701,,,,,2015_Sep_07_1209,G,facesParametric,2,59.7096448146,
./stim/MorphF4_00_orig.jpg,120,,,,,0,120,120,120,,,,,,,,,,,,,,,,,,,5.478515625,-13.037109375,0,0,1,0.819701910019,,,,,2015_Sep_07_1209,G,facesParametric,2,59.7096448146,
./stim/MorphF9_07_orig.jpg,121,,,,,0,121,121,121,,,,,,,,,,,,,,,,,,,5.5078125,-13.095703125,1,0,0,2.62934494019,,,,,2015_Sep_07_1209,G,facesParametric,2,59.7096448146,
./stim/MorphF4_05_orig.jpg,122,,,,,0,122,122,122,,,,,,,,,,,,,,,,,,,5.537109375,-13.125,0,0,1,5.09395098686,,,,,2015_Sep_07_1209,G,facesParametric,2,59.7096448146,
./stim/MorphF5_10_orig.jpg,123,,,,,0,123,123,123,,,,,,,,,,,,,,,,,,,6.15234375,-13.095703125,1,0,0,0.819313049316,,,,,2015_Sep_07_1209,G,facesParametric,2,59.7096448146,
./stim/MorphM9_06_orig.jpg,124,,,,,0,124,124,124,,,,,,,,,,,,,,,,,,,6.240234375,-13.06640625,1,0,0,1.54069304466,,,,,2015_Sep_07_1209,G,facesParametric,2,59.7096448146,
./stim/MorphF1_00_orig.jpg,125,,,,,0,125,125,125,,,,,,,,,,,,,,,,,,,6.240234375,-13.06640625,0,0,1,2.63044786453,,,,,2015_Sep_07_1209,G,facesParametric,2,59.7096448146,
./stim/MorphF5_07_orig.jpg,126,,,,,0,126,126,126,,,,,,,,,,,,,,,,,,,6.298828125,-13.06640625,1,0,0,0.936053037643,,,,,2015_Sep_07_1209,G,facesParametric,2,59.7096448146,
./stim/MorphM6_06_orig.jpg,127,,,,,0,127,127,127,,,,,,,,,,,,,,,,,,,6.298828125,-13.06640625,1,0,0,2.42900705338,,,,,2015_Sep_07_1209,G,facesParametric,2,59.7096448146,
./stim/MorphF2_00_orig.jpg,128,,,,,0,128,128,128,,,,,,,,,,,,,,,,,,,6.328125,-13.095703125,0,0,1,2.77882504463,,,,,2015_Sep_07_1209,G,facesParametric,2,59.7096448146,
./stim/MorphM6_03_orig.jpg,129,,,,,0,129,129,129,,,,,,,,,,,,,,,,,,,6.298828125,-13.095703125,0,0,1,1.82540798187,,,,,2015_Sep_07_1209,G,facesParametric,2,59.7096448146,
./stim/MorphM3_04_orig.jpg,130,,,,,0,130,130,130,,,,,,,,,,,,,,,,,,,6.181640625,-13.154296875,0,0,1,3.7702600956,,,,,2015_Sep_07_1209,G,facesParametric,2,59.7096448146,
./stim/MorphM8_01_orig.jpg,131,,,,,0,131,131,131,,,,,,,,,,,,,,,,,,,6.181640625,-13.154296875,0,0,1,2.89604496956,,,,,2015_Sep_07_1209,G,facesParametric,2,59.7096448146,
./stim/MorphM1_06_orig.jpg,132,,,,,0,132,132,132,,,,,,,,,,,,,,,,,,,6.181640625,-13.154296875,0,0,1,1.69026684761,,,,,2015_Sep_07_1209,G,facesParametric,2,59.7096448146,
./stim/MorphM2_09_orig.jpg,133,,,,,0,133,133,133,,,,,,,,,,,,,,,,,,,6.2109375,-13.154296875,1,0,0,0.936572790146,,,,,2015_Sep_07_1209,G,facesParametric,2,59.7096448146,
./stim/MorphF2_01_orig.jpg,134,,,,,0,134,134,134,,,,,,,,,,,,,,,,,,,6.2109375,-13.154296875,0,0,1,0.970515012741,,,,,2015_Sep_07_1209,G,facesParametric,2,59.7096448146,
./stim/MorphM5_01_orig.jpg,135,,,,,0,135,135,135,,,,,,,,,,,,,,,,,,,6.240234375,-13.154296875,0,0,1,2.05893611908,,,,,2015_Sep_07_1209,G,facesParametric,2,59.7096448146,
./stim/MorphF8_03_orig.jpg,136,,,,,0,136,136,136,,,,,,,,,,,,,,,,,,,6.181640625,-12.568359375,0,0,1,9.65019011497,,,,,2015_Sep_07_1209,G,facesParametric,2,59.7096448146,
./stim/MorphF10_03_orig.jpg,137,,,,,0,137,137,137,,,,,,,,,,,,,,,,,,,6.2109375,-12.5390625,1,0,0,3.55168199539,,,,,2015_Sep_07_1209,G,facesParametric,2,59.7096448146,
./stim/MorphM7_09_orig.jpg,138,,,,,0,138,138,138,,,,,,,,,,,,,,,,,,,6.38671875,-12.744140625,1,0,0,0.853621006012,,,,,2015_Sep_07_1209,G,facesParametric,2,59.7096448146,
./stim/MorphM9_00_orig.jpg,139,,,,,0,139,139,139,,,,,,,,,,,,,,,,,,,6.38671875,-12.744140625,0,0,1,1.03841805458,,,,,2015_Sep_07_1209,G,facesParametric,2,59.7096448146,
./stim/MorphM3_05_orig.jpg,140,,,,,0,140,140,140,,,,,,,,,,,,,,,,,,,6.416015625,-12.802734375,1,0,0,13.1882190704,,,,,2015_Sep_07_1209,G,facesParametric,2,59.7096448146,
./stim/MorphM1_07_orig.jpg,141,,,,,0,141,141,141,,,,,,,,,,,,,,,,,,,5.80078125,-12.099609375,0,0,1,8.21051096916,,,,,2015_Sep_07_1209,G,facesParametric,2,59.7096448146,
./stim/MorphM9_07_orig.jpg,142,,,,,0,142,142,142,,,,,,,,,,,,,,,,,,,5.771484375,-12.0703125,1,0,0,1.37236094475,,,,,2015_Sep_07_1209,G,facesParametric,2,59.7096448146,
./stim/MorphF3_03_orig.jpg,143,,,,,0,143,143,143,,,,,,,,,,,,,,,,,,,5.7421875,-12.041015625,0,0,1,1.99314713478,,,,,2015_Sep_07_1209,G,facesParametric,2,59.7096448146,
./stim/MorphF4_07_orig.jpg,144,,,,,0,144,144,144,,,,,,,,,,,,,,,,,,,5.7421875,-12.0703125,1,0,0,2.41022396088,,,,,2015_Sep_07_1209,G,facesParametric,2,59.7096448146,
./stim/MorphM2_10_orig.jpg,145,,,,,0,145,145,145,,,,,,,,,,,,,,,,,,,5.7421875,-12.0703125,1,0,0,0.752945184708,,,,,2015_Sep_07_1209,G,facesParametric,2,59.7096448146,
./stim/MorphF7_06_orig.jpg,146,,,,,0,146,146,146,,,,,,,,,,,,,,,,,,,5.7421875,-12.0703125,1,0,0,0.953928947449,,,,,2015_Sep_07_1209,G,facesParametric,2,59.7096448146,
./stim/MorphM8_02_orig.jpg,147,,,,,0,147,147,147,,,,,,,,,,,,,,,,,,,5.771484375,-12.099609375,1,0,0,3.33423805237,,,,,2015_Sep_07_1209,G,facesParametric,2,59.7096448146,
./stim/MorphF3_05_orig.jpg,148,,,,,0,148,148,148,,,,,,,,,,,,,,,,,,,5.712890625,-12.0703125,1,0,0,4.13771796227,,,,,2015_Sep_07_1209,G,facesParametric,2,59.7096448146,
./stim/MorphF6_04_orig.jpg,149,,,,,0,149,149,149,,,,,,,,,,,,,,,,,,,5.712890625,-12.0703125,0,0,1,3.83685493469,,,,,2015_Sep_07_1209,G,facesParametric,2,59.7096448146,
./stim/MorphM4_10_orig.jpg,150,,,,,0,150,150,150,,,,,,,,,,,,,,,,,,,5.712890625,-12.0703125,1,0,0,0.767878055573,,,,,2015_Sep_07_1209,G,facesParametric,2,59.7096448146,
./stim/MorphF10_08_orig.jpg,151,,,,,0,151,151,151,,,,,,,,,,,,,,,,,,,5.7421875,-12.099609375,1,0,0,1.08813691139,,,,,2015_Sep_07_1209,G,facesParametric,2,59.7096448146,
./stim/MorphF5_02_orig.jpg,152,,,,,0,152,152,152,,,,,,,,,,,,,,,,,,,5.712890625,-12.12890625,0,0,1,3.7515501976,,,,,2015_Sep_07_1209,G,facesParametric,2,59.7096448146,
./stim/MorphF1_05_orig.jpg,153,,,,,0,153,153,153,,,,,,,,,,,,,,,,,,,5.712890625,-12.12890625,0,0,1,2.31154704094,,,,,2015_Sep_07_1209,G,facesParametric,2,59.7096448146,
./stim/MorphF9_09_orig.jpg,154,,,,,0,154,154,154,,,,,,,,,,,,,,,,,,,5.712890625,-12.158203125,1,0,0,1.00427818298,,,,,2015_Sep_07_1209,G,facesParametric,2,59.7096448146,
./stim/MorphF5_03_orig.jpg,155,,,,,0,155,155,155,,,,,,,,,,,,,,,,,,,5.7421875,-12.1875,1,0,0,4.00423598289,,,,,2015_Sep_07_1209,G,facesParametric,2,59.7096448146,
./stim/MorphF4_03_orig.jpg,156,,,,,0,156,156,156,,,,,,,,,,,,,,,,,,,5.361328125,-13.154296875,0,0,1,12.7194700241,,,,,2015_Sep_07_1209,G,facesParametric,2,59.7096448146,
./stim/MorphF5_01_orig.jpg,157,,,,,0,157,157,157,,,,,,,,,,,,,,,,,,,5.478515625,-13.154296875,1,0,0,2.93136000633,,,,,2015_Sep_07_1209,G,facesParametric,2,59.7096448146,
./stim/MorphM1_01_orig.jpg,158,,,,,0,158,158,158,,,,,,,,,,,,,,,,,,,5.478515625,-13.154296875,0,0,1,1.12056803703,,,,,2015_Sep_07_1209,G,facesParametric,2,59.7096448146,
./stim/MorphF9_02_orig.jpg,159,,,,,0,159,159,159,,,,,,,,,,,,,,,,,,,5.2734375,-13.154296875,0,0,1,2.6632399559,,,,,2015_Sep_07_1209,G,facesParametric,2,59.7096448146,
./stim/MorphF2_02_orig.jpg,160,,,,,0,160,160,160,,,,,,,,,,,,,,,,,,,5.15625,-13.154296875,0,0,1,0.869926929474,,,,,2015_Sep_07_1209,G,facesParametric,2,59.7096448146,
./stim/MorphM8_10_orig.jpg,161,,,,,0,161,161,161,,,,,,,,,,,,,,,,,,,5.126953125,-13.154296875,1,0,0,0.870466947556,,,,,2015_Sep_07_1209,G,facesParametric,2,59.7096448146,
./stim/MorphM1_10_orig.jpg,162,,,,,0,162,162,162,,,,,,,,,,,,,,,,,,,5.15625,-13.154296875,1,0,1,6.26686906815,,,,,2015_Sep_07_1209,G,facesParametric,2,59.7096448146,
./stim/MorphF10_04_orig.jpg,163,,,,,0,163,163,163,,,,,,,,,,,,,,,,,,,5.068359375,-12.7734375,0,0,1,9.85290813446,,,,,2015_Sep_07_1209,G,facesParametric,2,59.7096448146,
./stim/MorphF3_00_orig.jpg,164,,,,,0,164,164,164,,,,,,,,,,,,,,,,,,,5.0390625,-12.83203125,1,0,0,5.74720692635,,,,,2015_Sep_07_1209,G,facesParametric,2,59.7096448146,
./stim/MorphM2_07_orig.jpg,165,,,,,0,165,165,165,,,,,,,,,,,,,,,,,,,5.009765625,-12.83203125,1,0,0,0.853636026382,,,,,2015_Sep_07_1209,G,facesParametric,2,59.7096448146,
./stim/MorphF7_05_orig.jpg,166,,,,,0,166,166,166,,,,,,,,,,,,,,,,,,,4.98046875,-12.861328125,1,0,0,1.62413406372,,,,,2015_Sep_07_1209,G,facesParametric,2,59.7096448146,
./stim/MorphF6_03_orig.jpg,167,,,,,0,167,167,167,,,,,,,,,,,,,,,,,,,4.951171875,-12.890625,0,0,1,5.91478800774,,,,,2015_Sep_07_1209,G,facesParametric,2,59.7096448146,
./stim/MorphF3_02_orig.jpg,168,,,,,0,168,168,168,,,,,,,,,,,,,,,,,,,4.98046875,-13.06640625,1,0,0,2.64732313156,,,,,2015_Sep_07_1209,G,facesParametric,2,59.7096448146,
./stim/MorphF1_01_orig.jpg,169,,,,,0,169,169,169,,,,,,,,,,,,,,,,,,,4.98046875,-13.06640625,1,0,0,2.21066093445,,,,,2015_Sep_07_1209,G,facesParametric,2,59.7096448146,
./stim/MorphM1_04_orig.jpg,170,,,,,0,170,170,170,,,,,,,,,,,,,,,,,,,4.98046875,-13.06640625,0,0,1,1.32302308083,,,,,2015_Sep_07_1209,G,facesParametric,2,59.7096448146,
./stim/MorphF4_09_orig.jpg,171,,,,,0,171,171,171,,,,,,,,,,,,,,,,,,,4.951171875,-13.154296875,1,0,0,0.920603990555,,,,,2015_Sep_07_1209,G,facesParametric,2,59.7096448146,
./stim/MorphM6_00_orig.jpg,172,,,,,0,172,172,172,,,,,,,,,,,,,,,,,,,4.921875,-13.125,0,0,1,1.28913784027,,,,,2015_Sep_07_1209,G,facesParametric,2,59.7096448146,
./stim/MorphM5_09_orig.jpg,173,,,,,0,173,173,173,,,,,,,,,,,,,,,,,,,5.09765625,-12.978515625,1,0,0,1.05452895164,,,,,2015_Sep_07_1209,G,facesParametric,2,59.7096448146,
./stim/MorphF5_06_orig.jpg,174,,,,,0,174,174,174,,,,,,,,,,,,,,,,,,,4.8046875,-12.099609375,1,0,0,0.819952011108,,,,,2015_Sep_07_1209,G,facesParametric,2,59.7096448146,
./stim/MorphF9_01_orig.jpg,175,,,,,0,175,175,175,,,,,,,,,,,,,,,,,,,4.833984375,-12.626953125,0,0,1,2.14163899422,,,,,2015_Sep_07_1209,G,facesParametric,2,59.7096448146,
./stim/MorphM5_07_orig.jpg,176,,,,,0,176,176,176,,,,,,,,,,,,,,,,,,,4.86328125,-13.154296875,1,0,0,1.18871498108,,,,,2015_Sep_07_1209,G,facesParametric,2,59.7096448146,
./stim/MorphM2_01_orig.jpg,177,,,,,0,177,177,177,,,,,,,,,,,,,,,,,,,4.86328125,-13.154296875,0,0,1,0.954133033752,,,,,2015_Sep_07_1209,G,facesParametric,2,59.7096448146,
./stim/MorphM7_03_orig.jpg,178,,,,,0,178,178,178,,,,,,,,,,,,,,,,,,,4.86328125,-13.154296875,1,0,0,0.769905090332,,,,,2015_Sep_07_1209,G,facesParametric,2,59.7096448146,
./stim/MorphM9_09_orig.jpg,179,,,,,0,179,179,179,,,,,,,,,,,,,,,,,,,4.892578125,-13.154296875,1,0,0,1.37267684937,,,,,2015_Sep_07_1209,G,facesParametric,2,59.7096448146,
./stim/MorphF9_10_orig.jpg,180,,,,,0,180,180,180,,,,,,,,,,,,,,,,,,,4.921875,-13.154296875,1,0,0,0.835471868515,,,,,2015_Sep_07_1209,G,facesParametric,2,59.7096448146,
./stim/MorphF8_10_orig.jpg,181,,,,,0,181,181,181,,,,,,,,,,,,,,,,,,,4.921875,-13.154296875,1,0,0,0.837718963623,,,,,2015_Sep_07_1209,G,facesParametric,2,59.7096448146,
./stim/MorphF10_10_orig.jpg,182,,,,,0,182,182,182,,,,,,,,,,,,,,,,,,,4.921875,-13.154296875,1,0,0,1.40662002563,,,,,2015_Sep_07_1209,G,facesParametric,2,59.7096448146,
./stim/MorphM3_09_orig.jpg,183,,,,,0,183,183,183,,,,,,,,,,,,,,,,,,,4.921875,-13.154296875,1,0,0,2.66275310516,,,,,2015_Sep_07_1209,G,facesParametric,2,59.7096448146,
./stim/MorphF10_05_orig.jpg,184,,,,,0,184,184,184,,,,,,,,,,,,,,,,,,,4.921875,-13.154296875,1,0,0,2.27612280846,,,,,2015_Sep_07_1209,G,facesParametric,2,59.7096448146,
./stim/MorphF6_00_orig.jpg,185,,,,,0,185,185,185,,,,,,,,,,,,,,,,,,,4.892578125,-13.154296875,0,0,1,0.919914960861,,,,,2015_Sep_07_1209,G,facesParametric,2,59.7096448146,
./stim/MorphF8_08_orig.jpg,186,,,,,0,186,186,186,,,,,,,,,,,,,,,,,,,4.86328125,-13.154296875,1,0,0,0.752745866776,,,,,2015_Sep_07_1209,G,facesParametric,2,59.7096448146,
./stim/MorphF7_10_orig.jpg,187,,,,,0,187,187,187,,,,,,,,,,,,,,,,,,,4.86328125,-13.154296875,1,0,0,2.26017785072,,,,,2015_Sep_07_1209,G,facesParametric,2,59.7096448146,
./stim/MorphM9_10_orig.jpg,188,,,,,0,188,188,188,,,,,,,,,,,,,,,,,,,4.86328125,-13.154296875,1,0,0,0.752989053726,,,,,2015_Sep_07_1209,G,facesParametric,2,59.7096448146,
./stim/MorphM10_05_orig.jpg,189,,,,,0,189,189,189,,,,,,,,,,,,,,,,,,,4.86328125,-13.154296875,1,0,0,0.836585044861,,,,,2015_Sep_07_1209,G,facesParametric,2,59.7096448146,
./stim/MorphM8_03_orig.jpg,190,,,,,0,190,190,190,,,,,,,,,,,,,,,,,,,4.86328125,-13.154296875,1,0,0,1.7088778019,,,,,2015_Sep_07_1209,G,facesParametric,2,59.7096448146,
./stim/MorphF2_10_orig.jpg,191,,,,,0,191,191,191,,,,,,,,,,,,,,,,,,,4.86328125,-13.154296875,1,0,0,1.13774108887,,,,,2015_Sep_07_1209,G,facesParametric,2,59.7096448146,
./stim/MorphM1_02_orig.jpg,192,,,,,0,192,192,192,,,,,,,,,,,,,,,,,,,4.3359375,-5.91796875,0,0,1,25.0541479588,,,,,2015_Sep_07_1209,G,facesParametric,2,59.7096448146,
./stim/MorphM4_09_orig.jpg,193,,,,,0,193,193,193,,,,,,,,,,,,,,,,,,,4.3359375,-5.9765625,1,0,0,1.77418589592,,,,,2015_Sep_07_1209,G,facesParametric,2,59.7096448146,
./stim/MorphM8_07_orig.jpg,194,,,,,0,194,194,194,,,,,,,,,,,,,,,,,,,3.75,-6.650390625,1,0,0,3.53350496292,,,,,2015_Sep_07_1209,G,facesParametric,2,59.7096448146,
./stim/MorphM1_08_orig.jpg,195,,,,,0,195,195,195,,,,,,,,,,,,,,,,,,,3.75,-6.6796875,0,0,1,0.985771894455,,,,,2015_Sep_07_1209,G,facesParametric,2,59.7096448146,
./stim/MorphF4_08_orig.jpg,196,,,,,0,196,196,196,,,,,,,,,,,,,,,,,,,3.75,-6.6796875,1,0,0,3.48498797417,,,,,2015_Sep_07_1209,G,facesParametric,2,59.7096448146,
./stim/MorphM9_04_orig.jpg,197,,,,,0,197,197,197,,,,,,,,,,,,,,,,,,,3.662109375,-6.97265625,0,0,1,4.70775580406,,,,,2015_Sep_07_1209,G,facesParametric,2,59.7096448146,
./stim/MorphF1_09_orig.jpg,198,,,,,0,198,198,198,,,,,,,,,,,,,,,,,,,3.662109375,-6.97265625,1,0,0,1.7082901001,,,,,2015_Sep_07_1209,G,facesParametric,2,59.7096448146,
./stim/MorphM9_08_orig.jpg,199,,,,,0,199,199,199,,,,,,,,,,,,,,,,,,,3.662109375,-6.97265625,1,0,0,0.769296884537,,,,,2015_Sep_07_1209,G,facesParametric,2,59.7096448146,
./stim/MorphF10_01_orig.jpg,200,,,,,0,200,200,200,,,,,,,,,,,,,,,,,,,-0.205078125,-7.587890625,0,0,1,8.07729291916,,,,,2015_Sep_07_1209,G,facesParametric,2,59.7096448146,
./stim/MorphM10_00_orig.jpg,201,,,,,0,201,201,201,,,,,,,,,,,,,,,,,,,0.17578125,-6.50390625,0,0,1,10.2389509678,,,,,2015_Sep_07_1209,G,facesParametric,2,59.7096448146,
./stim/MorphM2_00_orig.jpg,202,,,,,0,202,202,202,,,,,,,,,,,,,,,,,,,0.17578125,-6.50390625,0,0,1,3.97128510475,,,,,2015_Sep_07_1209,G,facesParametric,2,59.7096448146,
./stim/MorphM9_01_orig.jpg,203,,,,,0,203,203,203,,,,,,,,,,,,,,,,,,,0.17578125,-6.50390625,0,0,1,4.20231819153,,,,,2015_Sep_07_1209,G,facesParametric,2,59.7096448146,
./stim/MorphF7_09_orig.jpg,204,,,,,0,204,204,204,,,,,,,,,,,,,,,,,,,0.087890625,-6.650390625,1,0,0,1.89219594002,,,,,2015_Sep_07_1209,G,facesParametric,2,59.7096448146,
./stim/MorphF9_00_orig.jpg,205,,,,,0,205,205,205,,,,,,,,,,,,,,,,,,,-9.111328125,-5.80078125,0,0,1,22.9249520302,,,,,2015_Sep_07_1209,G,facesParametric,2,59.7096448146,
./stim/MorphM2_02_orig.jpg,206,,,,,0,206,206,206,,,,,,,,,,,,,,,,,,,-9.169921875,-5.830078125,0,0,1,7.20509600639,,,,,2015_Sep_07_1209,G,facesParametric,2,59.7096448146,
./stim/MorphF8_05_orig.jpg,207,,,,,0,207,207,207,,,,,,,,,,,,,,,,,,,-9.140625,-5.80078125,1,0,0,0.954066038132,,,,,2015_Sep_07_1209,G,facesParametric,2,59.7096448146,
./stim/MorphF3_09_orig.jpg,208,,,,,0,208,208,208,,,,,,,,,,,,,,,,,,,-10.25390625,-6.328125,1,0,0,78.5685520172,,,,,2015_Sep_07_1209,G,facesParametric,2,59.7096448146,
./stim/MorphM5_10_orig.jpg,209,,,,,0,209,209,209,,,,,,,,,,,,,,,,,,,-10.224609375,-6.09375,1,0,0,7.38962817192,,,,,2015_Sep_07_1209,G,facesParametric,2,59.7096448146,
./stim/MorphM8_08_orig.jpg,210,,,,,0,210,210,210,,,,,,,,,,,,,,,,,,,-10.1953125,-6.064453125,1,0,0,1.85907292366,,,,,2015_Sep_07_1209,G,facesParametric,2,59.7096448146,
./stim/MorphM3_07_orig.jpg,211,,,,,0,211,211,211,,,,,,,,,,,,,,,,,,,-10.1953125,-6.064453125,0,0,1,2.26111602783,,,,,2015_Sep_07_1209,G,facesParametric,2,59.7096448146,
./stim/MorphM5_06_orig.jpg,212,,,,,0,212,212,212,,,,,,,,,,,,,,,,,,,-10.1953125,-6.064453125,1,0,0,3.09756779671,,,,,2015_Sep_07_1209,G,facesParametric,2,59.7096448146,
./stim/MorphF5_09_orig.jpg,213,,,,,0,213,213,213,,,,,,,,,,,,,,,,,,,-10.166015625,-6.064453125,1,0,0,0.85327911377,,,,,2015_Sep_07_1209,G,facesParametric,2,59.7096448146,
./stim/MorphF8_06_orig.jpg,214,,,,,0,214,214,214,,,,,,,,,,,,,,,,,,,-10.166015625,-6.03515625,1,0,0,0.852478981018,,,,,2015_Sep_07_1209,G,facesParametric,2,59.7096448146,
./stim/MorphF5_04_orig.jpg,215,,,,,0,215,215,215,,,,,,,,,,,,,,,,,,,-10.166015625,-6.03515625,1,0,0,2.16122198105,,,,,2015_Sep_07_1209,G,facesParametric,2,59.7096448146,
./stim/MorphM2_04_orig.jpg,216,,,,,0,216,216,216,,,,,,,,,,,,,,,,,,,-10.166015625,-6.03515625,0,0,1,1.3205640316,,,,,2015_Sep_07_1209,G,facesParametric,2,59.7096448146,
./stim/MorphF2_05_orig.jpg,217,,,,,0,217,217,217,,,,,,,,,,,,,,,,,,,-10.166015625,-6.03515625,1,0,0,1.33743906021,,,,,2015_Sep_07_1209,G,facesParametric,2,59.7096448146,
./stim/MorphM7_01_orig.jpg,218,,,,,0,218,218,218,,,,,,,,,,,,,,,,,,,-10.166015625,-6.03515625,1,0,0,0.686403989792,,,,,2015_Sep_07_1209,G,facesParametric,2,59.7096448146,
./stim/MorphF10_09_orig.jpg,219,,,,,0,219,219,219,,,,,,,,,,,,,,,,,,,-10.166015625,-6.03515625,1,0,0,0.921004056931,,,,,2015_Sep_07_1209,G,facesParametric,2,59.7096448146,
,,,,,,,,,,,,,,,,,,,,,,,,,,,,,,,,,,return,503.261708975,,,2015_Sep_07_1209,G,facesParametric,2,59.7096448146,
./stim/MorphM6_10_orig.jpg,0,,,,,,,,,0,0,0,0,,,,,,,,,,,,,,,6.328125,-13.154296875,0,0,1,6.97908902168,,,,,2015_Sep_07_1209,G,facesParametric,2,59.7096448146,
./stim/MorphF9_04_orig.jpg,1,,,,,,,,,0,1,1,1,,,,,,,,,,,,,,,-23.4375,-13.154296875,0,0,1,6.03224205971,,,,,2015_Sep_07_1209,G,facesParametric,2,59.7096448146,
./stim/MorphM3_03_orig.jpg,2,,,,,,,,,0,2,2,2,,,,,,,,,,,,,,,-23.4375,-13.154296875,0,0,1,1.62438297272,,,,,2015_Sep_07_1209,G,facesParametric,2,59.7096448146,
./stim/MorphM1_00_orig.jpg,3,,,,,,,,,0,3,3,3,,,,,,,,,,,,,,,-23.4375,-13.154296875,0,0,1,2.89605307579,,,,,2015_Sep_07_1209,G,facesParametric,2,59.7096448146,
./stim/MorphM6_09_orig.jpg,4,,,,,,,,,0,4,4,4,,,,,,,,,,,,,,,-23.4375,-13.154296875,1,0,0,0.835532903671,,,,,2015_Sep_07_1209,G,facesParametric,2,59.7096448146,
./stim/MorphM10_02_orig.jpg,5,,,,,,,,,0,5,5,5,,,,,,,,,,,,,,,-23.4375,-13.154296875,1,0,0,1.05449700356,,,,,2015_Sep_07_1209,G,facesParametric,2,59.7096448146,
./stim/MorphM3_06_orig.jpg,6,,,,,,,,,0,6,6,6,,,,,,,,,,,,,,,-23.4375,-13.125,1,0,0,4.27217197418,,,,,2015_Sep_07_1209,G,facesParametric,2,59.7096448146,
./stim/MorphM7_08_orig.jpg,7,,,,,,,,,0,7,7,7,,,,,,,,,,,,,,,-23.4375,-13.125,1,0,0,0.551907062531,,,,,2015_Sep_07_1209,G,facesParametric,2,59.7096448146,
./stim/MorphM6_04_orig.jpg,8,,,,,,,,,0,8,8,8,,,,,,,,,,,,,,,-23.37890625,-13.06640625,0,0,1,1.02047801018,,,,,2015_Sep_07_1209,G,facesParametric,2,59.7096448146,
./stim/MorphM2_05_orig.jpg,9,,,,,,,,,0,9,9,9,,,,,,,,,,,,,,,-23.37890625,-13.06640625,1,0,0,1.08812999725,,,,,2015_Sep_07_1209,G,facesParametric,2,59.7096448146,
./stim/MorphM3_01_orig.jpg,10,,,,,,,,,0,10,10,10,,,,,,,,,,,,,,,-23.3203125,-12.94921875,1,0,0,1.7069029808,,,,,2015_Sep_07_1209,G,facesParametric,2,59.7096448146,
./stim/MorphF1_03_orig.jpg,11,,,,,,,,,0,11,11,11,,,,,,,,,,,,,,,-23.3203125,-12.94921875,1,0,0,3.16632604599,,,,,2015_Sep_07_1209,G,facesParametric,2,59.7096448146,
./stim/MorphF8_09_orig.jpg,12,,,,,,,,,0,12,12,12,,,,,,,,,,,,,,,-23.3203125,-12.94921875,1,0,0,0.870417833328,,,,,2015_Sep_07_1209,G,facesParametric,2,59.7096448146,
./stim/MorphF3_01_orig.jpg,13,,,,,,,,,0,13,13,13,,,,,,,,,,,,,,,-23.4375,-12.978515625,0,0,1,6.08255600929,,,,,2015_Sep_07_1209,G,facesParametric,2,59.7096448146,
./stim/MorphF7_03_orig.jpg,14,,,,,,,,,0,14,14,14,,,,,,,,,,,,,,,-23.3203125,-12.978515625,1,0,0,1.38949298859,,,,,2015_Sep_07_1209,G,facesParametric,2,59.7096448146,
./stim/MorphM1_05_orig.jpg,15,,,,,,,,,0,15,15,15,,,,,,,,,,,,,,,-23.291015625,-12.94921875,1,0,0,2.44539904594,,,,,2015_Sep_07_1209,G,facesParametric,2,59.7096448146,
./stim/MorphM5_08_orig.jpg,16,,,,,,,,,0,16,16,16,,,,,,,,,,,,,,,-23.203125,-12.861328125,1,0,0,4.74186706543,,,,,2015_Sep_07_1209,G,facesParametric,2,59.7096448146,
./stim/MorphF7_01_orig.jpg,17,,,,,,,,,0,17,17,17,,,,,,,,,,,,,,,-22.91015625,-12.1875,1,0,0,4.65824818611,,,,,2015_Sep_07_1209,G,facesParametric,2,59.7096448146,
./stim/MorphF1_10_orig.jpg,18,,,,,,,,,0,18,18,18,,,,,,,,,,,,,,,-23.4375,-12.861328125,1,0,0,10.2218608856,,,,,2015_Sep_07_1209,G,facesParametric,2,59.7096448146,
./stim/MorphF9_06_orig.jpg,19,,,,,,,,,0,19,19,19,,,,,,,,,,,,,,,-23.4375,-12.890625,0,0,1,6.85132598877,,,,,2015_Sep_07_1209,G,facesParametric,2,59.7096448146,
./stim/MorphM4_00_orig.jpg,20,,,,,,,,,0,20,20,20,,,,,,,,,,,,,,,-23.37890625,-12.861328125,1,0,0,5.19394087791,,,,,2015_Sep_07_1209,G,facesParametric,2,59.7096448146,
./stim/MorphM10_08_orig.jpg,21,,,,,,,,,0,21,21,21,,,,,,,,,,,,,,,-23.349609375,-12.83203125,1,0,0,1.18895983696,,,,,2015_Sep_07_1209,G,facesParametric,2,59.7096448146,
./stim/MorphF8_07_orig.jpg,22,,,,,,,,,0,22,22,22,,,,,,,,,,,,,,,-23.349609375,-12.83203125,1,0,0,1.58914089203,,,,,2015_Sep_07_1209,G,facesParametric,2,59.7096448146,
./stim/MorphF6_02_orig.jpg,23,,,,,,,,,0,23,23,23,,,,,,,,,,,,,,,-23.349609375,-12.802734375,1,0,0,4.77291703224,,,,,2015_Sep_07_1209,G,facesParametric,2,59.7096448146,
./stim/MorphM2_08_orig.jpg,24,,,,,,,,,0,24,24,24,,,,,,,,,,,,,,,-23.408203125,-12.802734375,1,0,0,0.7199010849,,,,,2015_Sep_07_1209,G,facesParametric,2,59.7096448146,
./stim/MorphF9_05_orig.jpg,25,,,,,,,,,0,25,25,25,,,,,,,,,,,,,,,-23.4375,-12.802734375,1,0,0,2.69655799866,,,,,2015_Sep_07_1209,G,facesParametric,2,59.7096448146,
./stim/MorphF1_08_orig.jpg,26,,,,,,,,,0,26,26,26,,,,,,,,,,,,,,,-23.4375,-12.802734375,1,0,0,0.919736862183,,,,,2015_Sep_07_1209,G,facesParametric,2,59.7096448146,
./stim/MorphF6_09_orig.jpg,27,,,,,,,,,0,27,27,27,,,,,,,,,,,,,,,-23.4375,-12.802734375,1,0,0,0.685940980911,,,,,2015_Sep_07_1209,G,facesParametric,2,59.7096448146,
./stim/MorphF2_09_orig.jpg,28,,,,,,,,,0,28,28,28,,,,,,,,,,,,,,,-23.4375,-12.802734375,1,0,0,0.719379901886,,,,,2015_Sep_07_1209,G,facesParametric,2,59.7096448146,
./stim/MorphF1_04_orig.jpg,29,,,,,,,,,0,29,29,29,,,,,,,,,,,,,,,-23.4375,-12.83203125,0,0,1,1.74204611778,,,,,2015_Sep_07_1209,G,facesParametric,2,59.7096448146,
./stim/MorphM4_06_orig.jpg,30,,,,,,,,,0,30,30,30,,,,,,,,,,,,,,,-23.4375,-12.83203125,1,0,0,1.65777206421,,,,,2015_Sep_07_1209,G,facesParametric,2,59.7096448146,
./stim/MorphM5_04_orig.jpg,31,,,,,,,,,0,31,31,31,,,,,,,,,,,,,,,-23.4375,-12.83203125,1,0,0,2.00870203972,,,,,2015_Sep_07_1209,G,facesParametric,2,59.7096448146,
./stim/MorphF10_02_orig.jpg,32,,,,,,,,,0,32,32,32,,,,,,,,,,,,,,,-23.4375,-12.83203125,1,0,0,5.11092710495,,,,,2015_Sep_07_1209,G,facesParametric,2,59.7096448146,
./stim/MorphF6_05_orig.jpg,33,,,,,,,,,0,33,33,33,,,,,,,,,,,,,,,-23.4375,-12.83203125,1,0,0,1.30609703064,,,,,2015_Sep_07_1209,G,facesParametric,2,59.7096448146,
./stim/MorphF8_01_orig.jpg,34,,,,,,,,,0,34,34,34,,,,,,,,,,,,,,,-23.4375,-12.83203125,0,0,1,2.66363811493,,,,,2015_Sep_07_1209,G,facesParametric,2,59.7096448146,
./stim/MorphM2_06_orig.jpg,35,,,,,,,,,0,35,35,35,,,,,,,,,,,,,,,-23.4375,-12.83203125,1,0,0,1.70826220512,,,,,2015_Sep_07_1209,G,facesParametric,2,59.7096448146,
./stim/MorphM9_02_orig.jpg,36,,,,,,,,,0,36,36,36,,,,,,,,,,,,,,,-23.4375,-12.83203125,0,0,1,0.951723098755,,,,,2015_Sep_07_1209,G,facesParametric,2,59.7096448146,
./stim/MorphM5_03_orig.jpg,37,,,,,,,,,0,37,37,37,,,,,,,,,,,,,,,-23.4375,-12.83203125,0,0,1,1.65783405304,,,,,2015_Sep_07_1209,G,facesParametric,2,59.7096448146,
./stim/MorphM4_01_orig.jpg,38,,,,,,,,,0,38,38,38,,,,,,,,,,,,,,,-23.4375,-12.83203125,0,0,1,1.18882703781,,,,,2015_Sep_07_1209,G,facesParametric,2,59.7096448146,
./stim/MorphM6_05_orig.jpg,39,,,,,,,,,0,39,39,39,,,,,,,,,,,,,,,-19.21875,-7.060546875,1,0,0,18.5516059399,,,,,2015_Sep_07_1209,G,facesParametric,2,59.7096448146,
./stim/MorphF4_02_orig.jpg,40,,,,,,,,,0,40,40,40,,,,,,,,,,,,,,,-19.39453125,-7.060546875,1,0,0,4.45691919327,,,,,2015_Sep_07_1209,G,facesParametric,2,59.7096448146,
./stim/MorphM9_03_orig.jpg,41,,,,,,,,,0,41,41,41,,,,,,,,,,,,,,,-19.482421875,-7.060546875,1,0,0,8.64554810524,,,,,2015_Sep_07_1209,G,facesParametric,2,59.7096448146,
./stim/MorphF4_06_orig.jpg,42,,,,,,,,,0,42,42,42,,,,,,,,,,,,,,,-19.482421875,-7.060546875,1,0,0,2.44533491135,,,,,2015_Sep_07_1209,G,facesParametric,2,59.7096448146,
./stim/MorphF5_00_orig.jpg,43,,,,,,,,,0,43,43,43,,,,,,,,,,,,,,,-20.21484375,-6.62109375,0,0,1,3.66901803017,,,,,2015_Sep_07_1209,G,facesParametric,2,59.7096448146,
./stim/MorphM7_04_orig.jpg,44,,,,,,,,,0,44,44,44,,,,,,,,,,,,,,,-20.419921875,-6.884765625,1,0,0,1.2056620121,,,,,2015_Sep_07_1209,G,facesParametric,2,59.7096448146,
./stim/MorphF1_07_orig.jpg,45,,,,,,,,,0,45,45,45,,,,,,,,,,,,,,,-20.419921875,-6.884765625,1,0,0,1.20362496376,,,,,2015_Sep_07_1209,G,facesParametric,2,59.7096448146,
./stim/MorphF7_02_orig.jpg,46,,,,,,,,,0,46,46,46,,,,,,,,,,,,,,,-20.419921875,-6.884765625,1,0,0,0.920714855194,,,,,2015_Sep_07_1209,G,facesParametric,2,59.7096448146,
./stim/MorphF3_08_orig.jpg,47,,,,,,,,,0,47,47,47,,,,,,,,,,,,,,,-20.419921875,-6.884765625,1,0,0,3.93556594849,,,,,2015_Sep_07_1209,G,facesParametric,2,59.7096448146,
./stim/MorphM4_03_orig.jpg,48,,,,,,,,,0,48,48,48,,,,,,,,,,,,,,,-20.419921875,-6.884765625,0,0,1,2.93104314804,,,,,2015_Sep_07_1209,G,facesParametric,2,59.7096448146,
./stim/MorphM7_05_orig.jpg,49,,,,,,,,,0,49,49,49,,,,,,,,,,,,,,,-20.419921875,-6.884765625,1,0,0,0.870213985443,,,,,2015_Sep_07_1209,G,facesParametric,2,59.7096448146,
./stim/MorphM4_08_orig.jpg,50,,,,,,,,,0,50,50,50,,,,,,,,,,,,,,,-20.419921875,-6.884765625,1,0,0,0.870485067368,,,,,2015_Sep_07_1209,G,facesParametric,2,59.7096448146,
./stim/MorphM2_03_orig.jpg,51,,,,,,,,,0,51,51,51,,,,,,,,,,,,,,,-19.130859375,13.18359375,0,0,1,8.02630186081,,,,,2015_Sep_07_1209,G,facesParametric,2,59.7096448146,
./stim/MorphF3_10_orig.jpg,52,,,,,,,,,0,52,52,52,,,,,,,,,,,,,,,-19.130859375,13.18359375,1,0,0,0.719974994659,,,,,2015_Sep_07_1209,G,facesParametric,2,59.7096448146,
./stim/MorphF6_08_orig.jpg,53,,,,,,,,,0,53,53,53,,,,,,,,,,,,,,,-19.130859375,13.18359375,1,0,0,0.785891056061,,,,,2015_Sep_07_1209,G,facesParametric,2,59.7096448146,
./stim/MorphM3_10_orig.jpg,54,,,,,,,,,0,54,54,54,,,,,,,,,,,,,,,-19.130859375,13.18359375,1,0,0,1.34003400803,,,,,2015_Sep_07_1209,G,facesParametric,2,59.7096448146,
./stim/MorphM10_03_orig.jpg,55,,,,,,,,,0,55,55,55,,,,,,,,,,,,,,,-19.130859375,13.18359375,1,0,0,1.52233600616,,,,,2015_Sep_07_1209,G,facesParametric,2,59.7096448146,
./stim/MorphF2_03_orig.jpg,56,,,,,,,,,0,56,56,56,,,,,,,,,,,,,,,-19.130859375,13.18359375,0,0,1,1.10504412651,,,,,2015_Sep_07_1209,G,facesParametric,2,59.7096448146,
./stim/MorphM7_10_orig.jpg,57,,,,,,,,,0,57,57,57,,,,,,,,,,,,,,,-19.130859375,13.18359375,1,0,0,0.602193117142,,,,,2015_Sep_07_1209,G,facesParametric,2,59.7096448146,
./stim/MorphF8_00_orig.jpg,58,,,,,,,,,0,58,58,58,,,,,,,,,,,,,,,-19.16015625,13.18359375,0,0,1,1.85860085487,,,,,2015_Sep_07_1209,G,facesParametric,2,59.7096448146,
./stim/MorphF7_07_orig.jpg,59,,,,,,,,,0,59,59,59,,,,,,,,,,,,,,,-19.16015625,13.18359375,1,0,0,1.39089393616,,,,,2015_Sep_07_1209,G,facesParametric,2,59.7096448146,
./stim/MorphM8_09_orig.jpg,60,,,,,,,,,0,60,60,60,,,,,,,,,,,,,,,-19.16015625,13.18359375,1,0,0,0.768814086914,,,,,2015_Sep_07_1209,G,facesParametric,2,59.7096448146,
./stim/MorphF5_08_orig.jpg,61,,,,,,,,,0,61,61,61,,,,,,,,,,,,,,,-19.16015625,13.18359375,1,0,0,0.669217824936,,,,,2015_Sep_07_1209,G,facesParametric,2,59.7096448146,
./stim/MorphM8_00_orig.jpg,62,,,,,,,,,0,62,62,62,,,,,,,,,,,,,,,-19.16015625,13.18359375,0,0,1,2.01005291939,,,,,2015_Sep_07_1209,G,facesParametric,2,59.7096448146,
./stim/MorphF4_04_orig.jpg,63,,,,,,,,,0,63,63,63,,,,,,,,,,,,,,,-19.16015625,13.18359375,0,0,1,0.803260087967,,,,,2015_Sep_07_1209,G,facesParametric,2,59.7096448146,
./stim/MorphM8_05_orig.jpg,64,,,,,,,,,0,64,64,64,,,,,,,,,,,,,,,-19.16015625,13.18359375,1,0,0,1.23877215385,,,,,2015_Sep_07_1209,G,facesParametric,2,59.7096448146,
./stim/MorphM1_09_orig.jpg,65,,,,,,,,,0,65,65,65,,,,,,,,,,,,,,,-19.16015625,13.18359375,1,0,0,1.57436490059,,,,,2015_Sep_07_1209,G,facesParametric,2,59.7096448146,
./stim/MorphF8_04_orig.jpg,66,,,,,,,,,0,66,66,66,,,,,,,,,,,,,,,-19.16015625,13.18359375,1,0,0,1.289260149,,,,,2015_Sep_07_1209,G,facesParametric,2,59.7096448146,
./stim/MorphM10_07_orig.jpg,67,,,,,,,,,0,67,67,67,,,,,,,,,,,,,,,-19.16015625,13.18359375,1,0,0,0.568566083908,,,,,2015_Sep_07_1209,G,facesParametric,2,59.7096448146,
./stim/MorphM5_05_orig.jpg,68,,,,,,,,,0,68,68,68,,,,,,,,,,,,,,,-19.189453125,13.154296875,1,0,0,4.99290704727,,,,,2015_Sep_07_1209,G,facesParametric,2,59.7096448146,
./stim/MorphM3_02_orig.jpg,69,,,,,,,,,0,69,69,69,,,,,,,,,,,,,,,-19.189453125,13.154296875,1,0,0,2.56293487549,,,,,2015_Sep_07_1209,G,facesParametric,2,59.7096448146,
./stim/MorphF2_08_orig.jpg,70,,,,,,,,,0,70,70,70,,,,,,,,,,,,,,,-19.189453125,13.154296875,1,0,0,2.39549589157,,,,,2015_Sep_07_1209,G,facesParametric,2,59.7096448146,
./stim/MorphM5_00_orig.jpg,71,,,,,,,,,0,71,71,71,,,,,,,,,,,,,,,-19.189453125,13.154296875,0,0,1,1.82544994354,,,,,2015_Sep_07_1209,G,facesParametric,2,59.7096448146,
./stim/MorphF6_07_orig.jpg,72,,,,,,,,,0,72,72,72,,,,,,,,,,,,,,,-19.189453125,13.154296875,1,0,0,0.988221883774,,,,,2015_Sep_07_1209,G,facesParametric,2,59.7096448146,
./stim/MorphM7_07_orig.jpg,73,,,,,,,,,0,73,73,73,,,,,,,,,,,,,,,-19.189453125,13.154296875,1,0,0,0.702038049698,,,,,2015_Sep_07_1209,G,facesParametric,2,59.7096448146,
./stim/MorphM4_05_orig.jpg,74,,,,,,,,,0,74,74,74,,,,,,,,,,,,,,,-19.189453125,13.154296875,1,0,0,1.95946598053,,,,,2015_Sep_07_1209,G,facesParametric,2,59.7096448146,
./stim/MorphF1_02_orig.jpg,75,,,,,,,,,0,75,75,75,,,,,,,,,,,,,,,-19.189453125,13.154296875,0,0,1,1.87586593628,,,,,2015_Sep_07_1209,G,facesParametric,2,59.7096448146,
./stim/MorphM1_03_orig.jpg,76,,,,,,,,,0,76,76,76,,,,,,,,,,,,,,,-19.189453125,13.154296875,0,0,1,1.0371940136,,,,,2015_Sep_07_1209,G,facesParametric,2,59.7096448146,
./stim/MorphM6_01_orig.jpg,77,,,,,,,,,0,77,77,77,,,,,,,,,,,,,,,-19.189453125,13.154296875,0,0,1,1.07169699669,,,,,2015_Sep_07_1209,G,facesParametric,2,59.7096448146,
./stim/MorphF5_05_orig.jpg,78,,,,,,,,,0,78,78,78,,,,,,,,,,,,,,,-19.189453125,13.154296875,1,0,0,3.71862697601,,,,,2015_Sep_07_1209,G,facesParametric,2,59.7096448146,
./stim/MorphF4_10_orig.jpg,79,,,,,,,,,0,79,79,79,,,,,,,,,,,,,,,-19.189453125,13.154296875,1,0,0,1.33776307106,,,,,2015_Sep_07_1209,G,facesParametric,2,59.7096448146,
./stim/MorphF9_03_orig.jpg,80,,,,,,,,,0,80,80,80,,,,,,,,,,,,,,,-18.75,12.36328125,1,0,0,13.0544350147,,,,,2015_Sep_07_1209,G,facesParametric,2,59.7096448146,
./stim/MorphM8_04_orig.jpg,81,,,,,,,,,0,81,81,81,,,,,,,,,,,,,,,-19.716796875,10.166015625,1,0,0,2.54415202141,,,,,2015_Sep_07_1209,G,facesParametric,2,59.7096448146,
./stim/MorphF2_04_orig.jpg,82,,,,,,,,,0,82,82,82,,,,,,,,,,,,,,,-19.716796875,10.166015625,0,0,1,1.0544719696,,,,,2015_Sep_07_1209,G,facesParametric,2,59.7096448146,
./stim/MorphM10_01_orig.jpg,83,,,,,,,,,0,83,83,83,,,,,,,,,,,,,,,-19.716796875,10.13671875,0,0,1,0.88563990593,,,,,2015_Sep_07_1209,G,facesParametric,2,59.7096448146,
./stim/MorphF6_10_orig.jpg,84,,,,,,,,,0,84,84,84,,,,,,,,,,,,,,,-19.716796875,10.107421875,1,0,0,0.684289932251,,,,,2015_Sep_07_1209,G,facesParametric,2,59.7096448146,
./stim/MorphF10_00_orig.jpg,85,,,,,,,,,0,85,85,85,,,,,,,,,,,,,,,-19.86328125,10.01953125,1,0,0,7.10556507111,,,,,2015_Sep_07_1209,G,facesParametric,2,59.7096448146,
./stim/MorphM10_04_orig.jpg,86,,,,,,,,,0,86,86,86,,,,,,,,,,,,,,,-19.86328125,9.990234375,1,0,0,9.06503415108,,,,,2015_Sep_07_1209,G,facesParametric,2,59.7096448146,
./stim/MorphM4_07_orig.jpg,87,,,,,,,,,0,87,87,87,,,,,,,,,,,,,,,-19.86328125,9.990234375,1,0,0,1.85793304443,,,,,2015_Sep_07_1209,G,facesParametric,2,59.7096448146,
./stim/MorphF10_07_orig.jpg,88,,,,,,,,,0,88,88,88,,,,,,,,,,,,,,,-19.86328125,9.990234375,1,0,0,1.73976302147,,,,,2015_Sep_07_1209,G,facesParametric,2,59.7096448146,
./stim/MorphF8_02_orig.jpg,89,,,,,,,,,0,89,89,89,,,,,,,,,,,,,,,-19.86328125,9.990234375,0,0,1,2.79769611359,,,,,2015_Sep_07_1209,G,facesParametric,2,59.7096448146,
./stim/MorphM10_06_orig.jpg,90,,,,,,,,,0,90,90,90,,,,,,,,,,,,,,,-19.21875,9.90234375,1,0,0,10.8586101532,,,,,2015_Sep_07_1209,G,facesParametric,2,59.7096448146,
./stim/MorphF6_06_orig.jpg,91,,,,,,,,,0,91,91,91,,,,,,,,,,,,,,,-19.306640625,9.7265625,1,0,0,2.1942820549,,,,,2015_Sep_07_1209,G,facesParametric,2,59.7096448146,
./stim/MorphF2_07_orig.jpg,92,,,,,,,,,0,92,92,92,,,,,,,,,,,,,,,-19.306640625,9.7265625,1,0,0,0.887022972107,,,,,2015_Sep_07_1209,G,facesParametric,2,59.7096448146,
./stim/MorphF3_04_orig.jpg,93,,,,,,,,,0,93,93,93,,,,,,,,,,,,,,,-19.306640625,9.7265625,0,0,1,1.32249403,,,,,2015_Sep_07_1209,G,facesParametric,2,59.7096448146,
./stim/MorphM10_10_orig.jpg,94,,,,,,,,,0,94,94,94,,,,,,,,,,,,,,,-21.2109375,7.646484375,1,0,0,0.702868938446,,,,,2015_Sep_07_1209,G,facesParametric,2,59.7096448146,
./stim/MorphF3_06_orig.jpg,95,,,,,,,,,0,95,95,95,,,,,,,,,,,,,,,-21.2109375,7.646484375,0,0,1,2.96557784081,,,,,2015_Sep_07_1209,G,facesParametric,2,59.7096448146,
./stim/MorphM8_06_orig.jpg,96,,,,,,,,,0,96,96,96,,,,,,,,,,,,,,,-21.298828125,7.55859375,1,0,0,1.82481384277,,,,,2015_Sep_07_1209,G,facesParametric,2,59.7096448146,
./stim/MorphM4_02_orig.jpg,97,,,,,,,,,0,97,97,97,,,,,,,,,,,,,,,-21.328125,7.529296875,0,0,1,0.903804063797,,,,,2015_Sep_07_1209,G,facesParametric,2,59.7096448146,
./stim/MorphF9_08_orig.jpg,98,,,,,,,,,0,98,98,98,,,,,,,,,,,,,,,-21.328125,7.529296875,1,0,0,0.953900098801,,,,,2015_Sep_07_1209,G,facesParametric,2,59.7096448146,
./stim/MorphF3_07_orig.jpg,99,,,,,,,,,0,99,99,99,,,,,,,,,,,,,,,-21.328125,7.529296875,1,0,0,1.43909978867,,,,,2015_Sep_07_1209,G,facesParametric,2,59.7096448146,
./stim/MorphM10_09_orig.jpg,100,,,,,,,,,0,100,100,100,,,,,,,,,,,,,,,-21.328125,7.529296875,1,0,0,5.94877886772,,,,,2015_Sep_07_1209,G,facesParametric,2,59.7096448146,
./stim/MorphM4_04_orig.jpg,101,,,,,,,,,0,101,101,101,,,,,,,,,,,,,,,-21.328125,7.529296875,0,0,1,1.47342300415,,,,,2015_Sep_07_1209,G,facesParametric,2,59.7096448146,
./stim/MorphM6_07_orig.jpg,102,,,,,,,,,0,102,102,102,,,,,,,,,,,,,,,-21.328125,7.529296875,1,0,0,1.50745797157,,,,,2015_Sep_07_1209,G,facesParametric,2,59.7096448146,
./stim/MorphF4_01_orig.jpg,103,,,,,,,,,0,103,103,103,,,,,,,,,,,,,,,-21.328125,7.529296875,0,0,1,1.89247703552,,,,,2015_Sep_07_1209,G,facesParametric,2,59.7096448146,
./stim/MorphF10_06_orig.jpg,104,,,,,,,,,0,104,104,104,,,,,,,,,,,,,,,-2.255859375,-13.0078125,0,0,1,8.52764987946,,,,,2015_Sep_07_1209,G,facesParametric,2,59.7096448146,
./stim/MorphM3_00_orig.jpg,105,,,,,,,,,0,105,105,105,,,,,,,,,,,,,,,-3.603515625,-13.154296875,0,0,1,1.40677213669,,,,,2015_Sep_07_1209,G,facesParametric,2,59.7096448146,
./stim/MorphF7_08_orig.jpg,106,,,,,,,,,0,106,106,106,,,,,,,,,,,,,,,-3.603515625,-13.154296875,1,0,0,5.79705190659,,,,,2015_Sep_07_1209,G,facesParametric,2,59.7096448146,
./stim/MorphF1_06_orig.jpg,107,,,,,,,,,0,107,107,107,,,,,,,,,,,,,,,-3.486328125,-13.037109375,1,0,0,1.37355709076,,,,,2015_Sep_07_1209,G,facesParametric,2,59.7096448146,
./stim/MorphM7_02_orig.jpg,108,,,,,,,,,0,108,108,108,,,,,,,,,,,,,,,-3.544921875,-13.06640625,0,0,1,0.935815095901,,,,,2015_Sep_07_1209,G,facesParametric,2,59.7096448146,
./stim/MorphM5_02_orig.jpg,109,,,,,,,,,0,109,109,109,,,,,,,,,,,,,,,-3.69140625,-13.154296875,1,0,0,1.75866699219,,,,,2015_Sep_07_1209,G,facesParametric,2,59.7096448146,
./stim/MorphM6_08_orig.jpg,110,,,,,,,,,0,110,110,110,,,,,,,,,,,,,,,-3.69140625,-13.154296875,1,0,0,0.853493213654,,,,,2015_Sep_07_1209,G,facesParametric,2,59.7096448146,
./stim/MorphF6_01_orig.jpg,111,,,,,,,,,0,111,111,111,,,,,,,,,,,,,,,-3.69140625,-13.154296875,0,0,1,3.38447904587,,,,,2015_Sep_07_1209,G,facesParametric,2,59.7096448146,
./stim/MorphM3_08_orig.jpg,112,,,,,,,,,0,112,112,112,,,,,,,,,,,,,,,-3.92578125,-13.154296875,1,0,0,2.46206903458,,,,,2015_Sep_07_1209,G,facesParametric,2,59.7096448146,
./stim/MorphF2_06_orig.jpg,113,,,,,,,,,0,113,113,113,,,,,,,,,,,,,,,-3.92578125,-13.154296875,1,0,0,2.51274204254,,,,,2015_Sep_07_1209,G,facesParametric,2,59.7096448146,
./stim/MorphM9_05_orig.jpg,114,,,,,,,,,0,114,114,114,,,,,,,,,,,,,,,-4.013671875,-13.154296875,0,0,1,10.4056749344,,,,,2015_Sep_07_1209,G,facesParametric,2,59.7096448146,
./stim/MorphM7_06_orig.jpg,115,,,,,,,,,0,115,115,115,,,,,,,,,,,,,,,-4.013671875,-13.154296875,1,0,0,0.768505096436,,,,,2015_Sep_07_1209,G,facesParametric,2,59.7096448146,
./stim/MorphF7_00_orig.jpg,116,,,,,,,,,0,116,116,116,,,,,,,,,,,,,,,-4.130859375,-13.154296875,0,0,1,2.1612598896,,,,,2015_Sep_07_1209,G,facesParametric,2,59.7096448146,
./stim/MorphM7_00_orig.jpg,117,,,,,,,,,0,117,117,117,,,,,,,,,,,,,,,-4.130859375,-13.154296875,0,0,1,0.985328912735,,,,,2015_Sep_07_1209,G,facesParametric,2,59.7096448146,
./stim/MorphM6_02_orig.jpg,118,,,,,,,,,0,118,118,118,,,,,,,,,,,,,,,-4.21875,-13.154296875,0,0,1,0.870615005493,,,,,2015_Sep_07_1209,G,facesParametric,2,59.7096448146,
./stim/MorphF7_04_orig.jpg,119,,,,,,,,,0,119,119,119,,,,,,,,,,,,,,,-4.21875,-13.154296875,0,0,1,1.87568807602,,,,,2015_Sep_07_1209,G,facesParametric,2,59.7096448146,
./stim/MorphF4_00_orig.jpg,120,,,,,,,,,0,120,120,120,,,,,,,,,,,,,,,-4.3359375,-13.154296875,0,0,1,0.635750770569,,,,,2015_Sep_07_1209,G,facesParametric,2,59.7096448146,
./stim/MorphF9_07_orig.jpg,121,,,,,,,,,0,121,121,121,,,,,,,,,,,,,,,-4.833984375,-13.154296875,1,0,0,1.60750699043,,,,,2015_Sep_07_1209,G,facesParametric,2,59.7096448146,
./stim/MorphF4_05_orig.jpg,122,,,,,,,,,0,122,122,122,,,,,,,,,,,,,,,-4.833984375,-13.154296875,1,0,0,3.14871501923,,,,,2015_Sep_07_1209,G,facesParametric,2,59.7096448146,
./stim/MorphF5_10_orig.jpg,123,,,,,,,,,0,123,123,123,,,,,,,,,,,,,,,-4.833984375,-13.154296875,1,0,0,0.853239059448,,,,,2015_Sep_07_1209,G,facesParametric,2,59.7096448146,
./stim/MorphM9_06_orig.jpg,124,,,,,,,,,0,124,124,124,,,,,,,,,,,,,,,-4.833984375,-13.154296875,1,0,0,1.84252691269,,,,,2015_Sep_07_1209,G,facesParametric,2,59.7096448146,
./stim/MorphF1_00_orig.jpg,125,,,,,,,,,0,125,125,125,,,,,,,,,,,,,,,-6.15234375,-13.06640625,1,0,0,7.03754901886,,,,,2015_Sep_07_1209,G,facesParametric,2,59.7096448146,
./stim/MorphF5_07_orig.jpg,126,,,,,,,,,0,126,126,126,,,,,,,,,,,,,,,-6.15234375,-13.06640625,1,0,0,0.751735925674,,,,,2015_Sep_07_1209,G,facesParametric,2,59.7096448146,
./stim/MorphM6_06_orig.jpg,127,,,,,,,,,0,127,127,127,,,,,,,,,,,,,,,-6.15234375,-13.154296875,1,0,0,1.40658402443,,,,,2015_Sep_07_1209,G,facesParametric,2,59.7096448146,
./stim/MorphF2_00_orig.jpg,128,,,,,,,,,0,128,128,128,,,,,,,,,,,,,,,-6.181640625,-13.154296875,0,0,1,1.00446987152,,,,,2015_Sep_07_1209,G,facesParametric,2,59.7096448146,
./stim/MorphM6_03_orig.jpg,129,,,,,,,,,0,129,129,129,,,,,,,,,,,,,,,-7.998046875,-13.154296875,1,0,0,2.09276485443,,,,,2015_Sep_07_1209,G,facesParametric,2,59.7096448146,
./stim/MorphM3_04_orig.jpg,130,,,,,,,,,0,130,130,130,,,,,,,,,,,,,,,-8.02734375,-13.154296875,0,0,1,2.11038708687,,,,,2015_Sep_07_1209,G,facesParametric,2,59.7096448146,
./stim/MorphM8_01_orig.jpg,131,,,,,,,,,0,131,131,131,,,,,,,,,,,,,,,-8.02734375,-13.154296875,0,0,1,1.00428700447,,,,,2015_Sep_07_1209,G,facesParametric,2,59.7096448146,
./stim/MorphM1_06_orig.jpg,132,,,,,,,,,0,132,132,132,,,,,,,,,,,,,,,-8.0859375,-13.154296875,1,0,0,1.70725607872,,,,,2015_Sep_07_1209,G,facesParametric,2,59.7096448146,
./stim/MorphM2_09_orig.jpg,133,,,,,,,,,0,133,133,133,,,,,,,,,,,,,,,-8.0859375,-13.154296875,1,0,0,0.921061992645,,,,,2015_Sep_07_1209,G,facesParametric,2,59.7096448146,
./stim/MorphF2_01_orig.jpg,134,,,,,,,,,0,134,134,134,,,,,,,,,,,,,,,-8.0859375,-13.154296875,1,0,0,0.803039073944,,,,,2015_Sep_07_1209,G,facesParametric,2,59.7096448146,
./stim/MorphM5_01_orig.jpg,135,,,,,,,,,0,135,135,135,,,,,,,,,,,,,,,-8.0859375,-13.154296875,1,0,0,1.95844388008,,,,,2015_Sep_07_1209,G,facesParametric,2,59.7096448146,
./stim/MorphF8_03_orig.jpg,136,,,,,,,,,0,136,136,136,,,,,,,,,,,,,,,-8.0859375,-13.154296875,1,0,0,1.77283501625,,,,,2015_Sep_07_1209,G,facesParametric,2,59.7096448146,
./stim/MorphF10_03_orig.jpg,137,,,,,,,,,0,137,137,137,,,,,,,,,,,,,,,-8.0859375,-13.154296875,0,0,1,1.47417902946,,,,,2015_Sep_07_1209,G,facesParametric,2,59.7096448146,
./stim/MorphM7_09_orig.jpg,138,,,,,,,,,0,138,138,138,,,,,,,,,,,,,,,-8.232421875,-13.154296875,1,0,0,0.701117038727,,,,,2015_Sep_07_1209,G,facesParametric,2,59.7096448146,
./stim/MorphM9_00_orig.jpg,139,,,,,,,,,0,139,139,139,,,,,,,,,,,,,,,-8.232421875,-13.154296875,0,0,1,0.902554988861,,,,,2015_Sep_07_1209,G,facesParametric,2,59.7096448146,
./stim/MorphM3_05_orig.jpg,140,,,,,,,,,0,140,140,140,,,,,,,,,,,,,,,-8.232421875,-13.154296875,1,0,0,3.63409519196,,,,,2015_Sep_07_1209,G,facesParametric,2,59.7096448146,
./stim/MorphM1_07_orig.jpg,141,,,,,,,,,0,141,141,141,,,,,,,,,,,,,,,-8.232421875,-13.154296875,1,0,0,2.31130814552,,,,,2015_Sep_07_1209,G,facesParametric,2,59.7096448146,
./stim/MorphM9_07_orig.jpg,142,,,,,,,,,0,142,142,142,,,,,,,,,,,,,,,-11.42578125,-13.154296875,1,0,0,8.49586200714,,,,,2015_Sep_07_1209,G,facesParametric,2,59.7096448146,
./stim/MorphF3_03_orig.jpg,143,,,,,,,,,0,143,143,143,,,,,,,,,,,,,,,-11.42578125,-13.154296875,0,0,1,2.29407405853,,,,,2015_Sep_07_1209,G,facesParametric,2,59.7096448146,
./stim/MorphF4_07_orig.jpg,144,,,,,,,,,0,144,144,144,,,,,,,,,,,,,,,-11.455078125,-13.154296875,1,0,0,1.52281308174,,,,,2015_Sep_07_1209,G,facesParametric,2,59.7096448146,
./stim/MorphM2_10_orig.jpg,145,,,,,,,,,0,145,145,145,,,,,,,,,,,,,,,-11.455078125,-13.154296875,1,0,0,0.618633985519,,,,,2015_Sep_07_1209,G,facesParametric,2,59.7096448146,
./stim/MorphF7_06_orig.jpg,146,,,,,,,,,0,146,146,146,,,,,,,,,,,,,,,-11.455078125,-13.154296875,1,0,0,0.686807155609,,,,,2015_Sep_07_1209,G,facesParametric,2,59.7096448146,
./stim/MorphM8_02_orig.jpg,147,,,,,,,,,0,147,147,147,,,,,,,,,,,,,,,-11.455078125,-13.154296875,1,0,0,0.868632078171,,,,,2015_Sep_07_1209,G,facesParametric,2,59.7096448146,
./stim/MorphF3_05_orig.jpg,148,,,,,,,,,0,148,148,148,,,,,,,,,,,,,,,-11.54296875,-13.154296875,0,0,1,10.9062960148,,,,,2015_Sep_07_1209,G,facesParametric,2,59.7096448146,
./stim/MorphF6_04_orig.jpg,149,,,,,,,,,0,149,149,149,,,,,,,,,,,,,,,-11.6015625,-13.154296875,0,0,1,0.819688796997,,,,,2015_Sep_07_1209,G,facesParametric,2,59.7096448146,
./stim/MorphM4_10_orig.jpg,150,,,,,,,,,0,150,150,150,,,,,,,,,,,,,,,-11.6015625,-13.154296875,1,0,0,0.92063999176,,,,,2015_Sep_07_1209,G,facesParametric,2,59.7096448146,
./stim/MorphF10_08_orig.jpg,151,,,,,,,,,0,151,151,151,,,,,,,,,,,,,,,-11.6015625,-13.154296875,1,0,0,1.13809299469,,,,,2015_Sep_07_1209,G,facesParametric,2,59.7096448146,
./stim/MorphF5_02_orig.jpg,152,,,,,,,,,0,152,152,152,,,,,,,,,,,,,,,-11.6015625,-13.154296875,1,0,0,4.90974211693,,,,,2015_Sep_07_1209,G,facesParametric,2,59.7096448146,
./stim/MorphF1_05_orig.jpg,153,,,,,,,,,0,153,153,153,,,,,,,,,,,,,,,-11.6015625,-13.154296875,1,0,0,5.02586007118,,,,,2015_Sep_07_1209,G,facesParametric,2,59.7096448146,
./stim/MorphF9_09_orig.jpg,154,,,,,,,,,0,154,154,154,,,,,,,,,,,,,,,-11.630859375,-13.154296875,1,0,0,3.73565077782,,,,,2015_Sep_07_1209,G,facesParametric,2,59.7096448146,
./stim/MorphF5_03_orig.jpg,155,,,,,,,,,0,155,155,155,,,,,,,,,,,,,,,-12.5390625,-13.06640625,1,0,0,4.97607517242,,,,,2015_Sep_07_1209,G,facesParametric,2,59.7096448146,
./stim/MorphF4_03_orig.jpg,156,,,,,,,,,0,156,156,156,,,,,,,,,,,,,,,-12.5390625,-13.06640625,1,0,0,1.15303206444,,,,,2015_Sep_07_1209,G,facesParametric,2,59.7096448146,
./stim/MorphF5_01_orig.jpg,157,,,,,,,,,0,157,157,157,,,,,,,,,,,,,,,-12.5390625,-13.06640625,1,0,0,0.65264415741,,,,,2015_Sep_07_1209,G,facesParametric,2,59.7096448146,
./stim/MorphM1_01_orig.jpg,158,,,,,,,,,0,158,158,158,,,,,,,,,,,,,,,-12.5390625,-13.06640625,0,0,1,1.30338907242,,,,,2015_Sep_07_1209,G,facesParametric,2,59.7096448146,
./stim/MorphF9_02_orig.jpg,159,,,,,,,,,0,159,159,159,,,,,,,,,,,,,,,-12.94921875,-13.154296875,0,0,1,0.937011957169,,,,,2015_Sep_07_1209,G,facesParametric,2,59.7096448146,
./stim/MorphF2_02_orig.jpg,160,,,,,,,,,0,160,160,160,,,,,,,,,,,,,,,-12.919921875,-13.154296875,0,0,1,0.702461004257,,,,,2015_Sep_07_1209,G,facesParametric,2,59.7096448146,
./stim/MorphM8_10_orig.jpg,161,,,,,,,,,0,161,161,161,,,,,,,,,,,,,,,-12.919921875,-13.154296875,1,0,0,0.920789003372,,,,,2015_Sep_07_1209,G,facesParametric,2,59.7096448146,
./stim/MorphM1_10_orig.jpg,162,,,,,,,,,0,162,162,162,,,,,,,,,,,,,,,-12.919921875,-13.154296875,1,0,0,2.57738399506,,,,,2015_Sep_07_1209,G,facesParametric,2,59.7096448146,
./stim/MorphF10_04_orig.jpg,163,,,,,,,,,0,163,163,163,,,,,,,,,,,,,,,-12.919921875,-13.154296875,0,0,1,6.40121817589,,,,,2015_Sep_07_1209,G,facesParametric,2,59.7096448146,
./stim/MorphF3_00_orig.jpg,164,,,,,,,,,0,164,164,164,,,,,,,,,,,,,,,-12.919921875,-13.154296875,0,0,1,0.852828979492,,,,,2015_Sep_07_1209,G,facesParametric,2,59.7096448146,
./stim/MorphM2_07_orig.jpg,165,,,,,,,,,0,165,165,165,,,,,,,,,,,,,,,-12.919921875,-13.154296875,1,0,0,1.42398405075,,,,,2015_Sep_07_1209,G,facesParametric,2,59.7096448146,
./stim/MorphF7_05_orig.jpg,166,,,,,,,,,0,166,166,166,,,,,,,,,,,,,,,-12.919921875,-13.154296875,1,0,0,1.13792490959,,,,,2015_Sep_07_1209,G,facesParametric,2,59.7096448146,
./stim/MorphF6_03_orig.jpg,167,,,,,,,,,0,167,167,167,,,,,,,,,,,,,,,-12.919921875,-13.154296875,0,0,1,1.15512800217,,,,,2015_Sep_07_1209,G,facesParametric,2,59.7096448146,
./stim/MorphF3_02_orig.jpg,168,,,,,,,,,0,168,168,168,,,,,,,,,,,,,,,-12.919921875,-13.154296875,0,0,1,1.1048169136,,,,,2015_Sep_07_1209,G,facesParametric,2,59.7096448146,
./stim/MorphF1_01_orig.jpg,169,,,,,,,,,0,169,169,169,,,,,,,,,,,,,,,-12.919921875,-13.154296875,0,0,1,1.08630204201,,,,,2015_Sep_07_1209,G,facesParametric,2,59.7096448146,
./stim/MorphM1_04_orig.jpg,170,,,,,,,,,0,170,170,170,,,,,,,,,,,,,,,-12.919921875,-13.154296875,0,0,1,1.38946294785,,,,,2015_Sep_07_1209,G,facesParametric,2,59.7096448146,
./stim/MorphF4_09_orig.jpg,171,,,,,,,,,0,171,171,171,,,,,,,,,,,,,,,-12.890625,-13.154296875,1,0,0,3.2169508934,,,,,2015_Sep_07_1209,G,facesParametric,2,59.7096448146,
./stim/MorphM6_00_orig.jpg,172,,,,,,,,,0,172,172,172,,,,,,,,,,,,,,,-13.53515625,-13.154296875,0,0,1,1.02115488052,,,,,2015_Sep_07_1209,G,facesParametric,2,59.7096448146,
./stim/MorphM5_09_orig.jpg,173,,,,,,,,,0,173,173,173,,,,,,,,,,,,,,,-13.53515625,-13.154296875,1,0,0,1.15520310402,,,,,2015_Sep_07_1209,G,facesParametric,2,59.7096448146,
./stim/MorphF5_06_orig.jpg,174,,,,,,,,,0,174,174,174,,,,,,,,,,,,,,,-13.53515625,-13.154296875,1,0,0,0.786238908768,,,,,2015_Sep_07_1209,G,facesParametric,2,59.7096448146,
./stim/MorphF9_01_orig.jpg,175,,,,,,,,,0,175,175,175,,,,,,,,,,,,,,,-13.53515625,-13.154296875,0,0,1,1.8759200573,,,,,2015_Sep_07_1209,G,facesParametric,2,59.7096448146,
./stim/MorphM5_07_orig.jpg,176,,,,,,,,,0,176,176,176,,,,,,,,,,,,,,,-13.53515625,-13.154296875,1,0,0,1.32295918465,,,,,2015_Sep_07_1209,G,facesParametric,2,59.7096448146,
./stim/MorphM2_01_orig.jpg,177,,,,,,,,,0,177,177,177,,,,,,,,,,,,,,,-13.53515625,-13.154296875,0,0,1,0.853509902954,,,,,2015_Sep_07_1209,G,facesParametric,2,59.7096448146,
./stim/MorphM7_03_orig.jpg,178,,,,,,,,,0,178,178,178,,,,,,,,,,,,,,,-13.53515625,-13.154296875,0,0,1,1.12160611153,,,,,2015_Sep_07_1209,G,facesParametric,2,59.7096448146,
./stim/MorphM9_09_orig.jpg,179,,,,,,,,,0,179,179,179,,,,,,,,,,,,,,,-13.564453125,-13.154296875,1,0,0,0.818185091019,,,,,2015_Sep_07_1209,G,facesParametric,2,59.7096448146,
./stim/MorphF9_10_orig.jpg,180,,,,,,,,,0,180,180,180,,,,,,,,,,,,,,,-13.564453125,-13.154296875,1,0,0,0.770097017288,,,,,2015_Sep_07_1209,G,facesParametric,2,59.7096448146,
./stim/MorphF8_10_orig.jpg,181,,,,,,,,,0,181,181,181,,,,,,,,,,,,,,,-13.564453125,-13.154296875,1,0,0,0.734050035477,,,,,2015_Sep_07_1209,G,facesParametric,2,59.7096448146,
./stim/MorphF10_10_orig.jpg,182,,,,,,,,,0,182,182,182,,,,,,,,,,,,,,,-13.564453125,-13.154296875,1,0,0,0.719614028931,,,,,2015_Sep_07_1209,G,facesParametric,2,59.7096448146,
./stim/MorphM3_09_orig.jpg,183,,,,,,,,,0,183,183,183,,,,,,,,,,,,,,,-13.564453125,-13.154296875,1,0,0,0.953933954239,,,,,2015_Sep_07_1209,G,facesParametric,2,59.7096448146,
./stim/MorphF10_05_orig.jpg,184,,,,,,,,,0,184,184,184,,,,,,,,,,,,,,,-13.76953125,-13.154296875,0,0,1,2.19468188286,,,,,2015_Sep_07_1209,G,facesParametric,2,59.7096448146,
./stim/MorphF6_00_orig.jpg,185,,,,,,,,,0,185,185,185,,,,,,,,,,,,,,,-14.1796875,-13.06640625,0,0,1,0.719134092331,,,,,2015_Sep_07_1209,G,facesParametric,2,59.7096448146,
./stim/MorphF8_08_orig.jpg,186,,,,,,,,,0,186,186,186,,,,,,,,,,,,,,,-14.208984375,-13.037109375,1,0,0,0.853281974792,,,,,2015_Sep_07_1209,G,facesParametric,2,59.7096448146,
./stim/MorphF7_10_orig.jpg,187,,,,,,,,,0,187,187,187,,,,,,,,,,,,,,,-14.208984375,-13.037109375,1,0,0,0.819732904434,,,,,2015_Sep_07_1209,G,facesParametric,2,59.7096448146,
./stim/MorphM9_10_orig.jpg,188,,,,,,,,,0,188,188,188,,,,,,,,,,,,,,,-14.208984375,-13.037109375,1,0,0,0.76958489418,,,,,2015_Sep_07_1209,G,facesParametric,2,59.7096448146,
./stim/MorphM10_05_orig.jpg,189,,,,,,,,,0,189,189,189,,,,,,,,,,,,,,,-14.208984375,-13.037109375,1,0,0,1.23947906494,,,,,2015_Sep_07_1209,G,facesParametric,2,59.7096448146,
./stim/MorphM8_03_orig.jpg,190,,,,,,,,,0,190,190,190,,,,,,,,,,,,,,,-14.208984375,-13.037109375,1,0,0,0.937680006027,,,,,2015_Sep_07_1209,G,facesParametric,2,59.7096448146,
./stim/MorphF2_10_orig.jpg,191,,,,,,,,,0,191,191,191,,,,,,,,,,,,,,,-14.208984375,-13.037109375,1,0,0,1.32036089897,,,,,2015_Sep_07_1209,G,facesParametric,2,59.7096448146,
./stim/MorphM1_02_orig.jpg,192,,,,,,,,,0,192,192,192,,,,,,,,,,,,,,,-14.208984375,-13.037109375,0,0,1,2.1441628933,,,,,2015_Sep_07_1209,G,facesParametric,2,59.7096448146,
./stim/MorphM4_09_orig.jpg,193,,,,,,,,,0,193,193,193,,,,,,,,,,,,,,,-14.208984375,-13.037109375,1,0,0,0.870090961456,,,,,2015_Sep_07_1209,G,facesParametric,2,59.7096448146,
./stim/MorphM8_07_orig.jpg,194,,,,,,,,,0,194,194,194,,,,,,,,,,,,,,,-14.296875,-13.125,1,0,0,6.4658768177,,,,,2015_Sep_07_1209,G,facesParametric,2,59.7096448146,
./stim/MorphM1_08_orig.jpg,195,,,,,,,,,0,195,195,195,,,,,,,,,,,,,,,-14.296875,-13.125,1,0,0,5.36209416389,,,,,2015_Sep_07_1209,G,facesParametric,2,59.7096448146,
./stim/MorphF4_08_orig.jpg,196,,,,,,,,,0,196,196,196,,,,,,,,,,,,,,,-23.056640625,-13.154296875,1,0,0,7.95776104927,,,,,2015_Sep_07_1209,G,facesParametric,2,59.7096448146,
./stim/MorphM9_04_orig.jpg,197,,,,,,,,,0,197,197,197,,,,,,,,,,,,,,,-23.115234375,-13.154296875,0,0,1,3.7527821064,,,,,2015_Sep_07_1209,G,facesParametric,2,59.7096448146,
./stim/MorphF1_09_orig.jpg,198,,,,,,,,,0,198,198,198,,,,,,,,,,,,,,,-23.14453125,-13.154296875,1,0,0,2.39427399635,,,,,2015_Sep_07_1209,G,facesParametric,2,59.7096448146,
./stim/MorphM9_08_orig.jpg,199,,,,,,,,,0,199,199,199,,,,,,,,,,,,,,,-23.14453125,-13.154296875,1,0,0,0.734066963196,,,,,2015_Sep_07_1209,G,facesParametric,2,59.7096448146,
./stim/MorphF10_01_orig.jpg,200,,,,,,,,,0,200,200,200,,,,,,,,,,,,,,,-23.14453125,-13.154296875,0,0,1,1.28961396217,,,,,2015_Sep_07_1209,G,facesParametric,2,59.7096448146,
./stim/MorphM10_00_orig.jpg,201,,,,,,,,,0,201,201,201,,,,,,,,,,,,,,,-23.115234375,-13.154296875,0,0,1,0.801400184631,,,,,2015_Sep_07_1209,G,facesParametric,2,59.7096448146,
./stim/MorphM2_00_orig.jpg,202,,,,,,,,,0,202,202,202,,,,,,,,,,,,,,,-23.0859375,-13.125,0,0,1,0.702844142914,,,,,2015_Sep_07_1209,G,facesParametric,2,59.7096448146,
./stim/MorphM9_01_orig.jpg,203,,,,,,,,,0,203,203,203,,,,,,,,,,,,,,,-23.0859375,-13.125,0,0,1,0.786222934723,,,,,2015_Sep_07_1209,G,facesParametric,2,59.7096448146,
./stim/MorphF7_09_orig.jpg,204,,,,,,,,,0,204,204,204,,,,,,,,,,,,,,,-23.0859375,-13.125,1,0,0,0.801385879517,,,,,2015_Sep_07_1209,G,facesParametric,2,59.7096448146,
./stim/MorphF9_00_orig.jpg,205,,,,,,,,,0,205,205,205,,,,,,,,,,,,,,,-23.0859375,-13.125,1,0,0,2.71394491196,,,,,2015_Sep_07_1209,G,facesParametric,2,59.7096448146,
./stim/MorphM2_02_orig.jpg,206,,,,,,,,,0,206,206,206,,,,,,,,,,,,,,,-23.0859375,-13.125,0,0,1,1.32087492943,,,,,2015_Sep_07_1209,G,facesParametric,2,59.7096448146,
./stim/MorphF8_05_orig.jpg,207,,,,,,,,,0,207,207,207,,,,,,,,,,,,,,,-23.0859375,-13.125,1,0,0,0.835631847382,,,,,2015_Sep_07_1209,G,facesParametric,2,59.7096448146,
./stim/MorphF3_09_orig.jpg,208,,,,,,,,,0,208,208,208,,,,,,,,,,,,,,,-23.0859375,-13.125,1,0,0,0.83692908287,,,,,2015_Sep_07_1209,G,facesParametric,2,59.7096448146,
./stim/MorphM5_10_orig.jpg,209,,,,,,,,,0,209,209,209,,,,,,,,,,,,,,,-23.0859375,-13.125,1,0,0,0.734179019928,,,,,2015_Sep_07_1209,G,facesParametric,2,59.7096448146,
./stim/MorphM8_08_orig.jpg,210,,,,,,,,,0,210,210,210,,,,,,,,,,,,,,,-23.0859375,-13.125,1,0,0,0.702667951584,,,,,2015_Sep_07_1209,G,facesParametric,2,59.7096448146,
./stim/MorphM3_07_orig.jpg,211,,,,,,,,,0,211,211,211,,,,,,,,,,,,,,,-23.0859375,-13.125,1,0,0,1.42320990562,,,,,2015_Sep_07_1209,G,facesParametric,2,59.7096448146,
./stim/MorphM5_06_orig.jpg,212,,,,,,,,,0,212,212,212,,,,,,,,,,,,,,,-23.0859375,-13.125,1,0,0,2.42875814438,,,,,2015_Sep_07_1209,G,facesParametric,2,59.7096448146,
./stim/MorphF5_09_orig.jpg,213,,,,,,,,,0,213,213,213,,,,,,,,,,,,,,,-23.0859375,-13.125,1,0,0,0.650218963623,,,,,2015_Sep_07_1209,G,facesParametric,2,59.7096448146,
./stim/MorphF8_06_orig.jpg,214,,,,,,,,,0,214,214,214,,,,,,,,,,,,,,,-23.0859375,-13.125,1,0,0,0.68642783165,,,,,2015_Sep_07_1209,G,facesParametric,2,59.7096448146,
./stim/MorphF5_04_orig.jpg,215,,,,,,,,,0,215,215,215,,,,,,,,,,,,,,,-23.14453125,-13.06640625,1,0,0,1.54029607773,,,,,2015_Sep_07_1209,G,facesParametric,2,59.7096448146,
./stim/MorphM2_04_orig.jpg,216,,,,,,,,,0,216,216,216,,,,,,,,,,,,,,,-23.4375,-12.3046875,0,0,1,5.79775905609,,,,,2015_Sep_07_1209,G,facesParametric,2,59.7096448146,
./stim/MorphF2_05_orig.jpg,217,,,,,,,,,0,217,217,217,,,,,,,,,,,,,,,-23.37890625,-12.36328125,0,0,1,0.820214033127,,,,,2015_Sep_07_1209,G,facesParametric,2,59.7096448146,
./stim/MorphM7_01_orig.jpg,218,,,,,,,,,0,218,218,218,,,,,,,,,,,,,,,-23.4375,-12.099609375,0,0,1,9.73603105545,,,,,2015_Sep_07_1209,G,facesParametric,2,59.7096448146,
./stim/MorphF10_09_orig.jpg,219,,,,,,,,,0,219,219,219,,,,,,,,,,,,,,,-23.4375,-12.099609375,1,0,0,0.835693836212,,,,,2015_Sep_07_1209,G,facesParametric,2,59.7096448146,
,,,,,,,,,,,,,,,,,,,,,,,,,,,,,,,,,,,,return,3.4786169529,2015_Sep_07_1209,G,facesParametric,2,59.7096448146,
