img,num,basicLoop.thisRepN,basicLoop.thisTrialN,basicLoop.thisN,basicLoop.thisIndex,trials.thisRepN,trials.thisTrialN,trials.thisN,trials.thisIndex,trials2.thisRepN,trials2.thisTrialN,trials2.thisN,trials2.thisIndex,key_resp_2.keys,key_resp_2.rt,basicRating1.response,basicRating1.rt,basicRating2.response,basicRating2.rt,basicRating3.response,basicRating3.rt,basicRating4.response,basicRating4.rt,key_resp_3.keys,key_resp_3.rt,key_resp_4.keys,key_resp_4.rt,mouseResp.x,mouseResp.y,mouseResp.leftButton,mouseResp.midButton,mouseResp.rightButton,mouseResp.time,key_resp_5.keys,key_resp_5.rt,key_resp_7.keys,key_resp_7.rt,date,group,expName,participant,frameRate,
,,,,,,,,,,,,,,return,34.3113920689,,,,,,,,,,,,,,,,,,,,,,,2015_Nov_09_1524,G,facesParametric,30,59.5940114775,
./basicStim/23M_HA_O.jpg,,0,0,0,52,,,,,,,,,,,HAP,10.985,None,None,None,None,None,None,,,,,,,,,,,,,,,2015_Nov_09_1524,G,facesParametric,30,59.5940114775,
./basicStim/23M_SA_C.jpg,,0,1,1,53,,,,,,,,,,,None,None,ANG,8.92,None,None,None,None,,,,,,,,,,,,,,,2015_Nov_09_1524,G,facesParametric,30,59.5940114775,
./basicStim/28M_HA_O.jpg,,0,2,2,66,,,,,,,,,,,HAP,4.116,None,None,None,None,None,None,,,,,,,,,,,,,,,2015_Nov_09_1524,G,facesParametric,30,59.5940114775,
./basicStim/06F_NE_C.jpg,,0,3,3,27,,,,,,,,,,,None,None,None,None,None,None,NTR,8.28,,,,,,,,,,,,,,,2015_Nov_09_1524,G,facesParametric,30,59.5940114775,
./basicStim/36M_SP_O.jpg,,0,4,4,82,,,,,,,,,,,None,None,None,None,SUP,2.365,None,None,,,,,,,,,,,,,,,2015_Nov_09_1524,G,facesParametric,30,59.5940114775,
./basicStim/02F_NE_C.jpg,,0,5,5,13,,,,,,,,,,,None,None,None,None,None,None,NTR,2.475,,,,,,,,,,,,,,,2015_Nov_09_1524,G,facesParametric,30,59.5940114775,
./basicStim/02F_AN_O.jpg,,0,6,6,7,,,,,,,,,,,None,None,ANG,2.766,None,None,None,None,,,,,,,,,,,,,,,2015_Nov_09_1524,G,facesParametric,30,59.5940114775,
./basicStim/02F_SP_O.jpg,,0,7,7,12,,,,,,,,,,,None,None,None,None,SUP,2.098,None,None,,,,,,,,,,,,,,,2015_Nov_09_1524,G,facesParametric,30,59.5940114775,
./basicStim/03F_SA_C.jpg,,0,8,8,18,,,,,,,,,,,SAD,3.827,None,None,None,None,None,None,,,,,,,,,,,,,,,2015_Nov_09_1524,G,facesParametric,30,59.5940114775,
./basicStim/06F_SA_C.jpg,,0,9,9,25,,,,,,,,,,,None,None,ANG,2.82,None,None,None,None,,,,,,,,,,,,,,,2015_Nov_09_1524,G,facesParametric,30,59.5940114775,
./basicStim/06F_FE_O.jpg,,0,10,10,23,,,,,,,,,,,None,None,FEA,2.051,None,None,None,None,,,,,,,,,,,,,,,2015_Nov_09_1524,G,facesParametric,30,59.5940114775,
./basicStim/21M_AN_O.jpg,,0,11,11,42,,,,,,,,,,,None,None,ANG,1.971,None,None,None,None,,,,,,,,,,,,,,,2015_Nov_09_1524,G,facesParametric,30,59.5940114775,
./basicStim/28M_SP_O.jpg,,0,12,12,68,,,,,,,,,,,None,None,None,None,SUP,2.081,None,None,,,,,,,,,,,,,,,2015_Nov_09_1524,G,facesParametric,30,59.5940114775,
./basicStim/28M_SA_C.jpg,,0,13,13,67,,,,,,,,,,,None,None,None,None,None,None,NTR,6.856,,,,,,,,,,,,,,,2015_Nov_09_1524,G,facesParametric,30,59.5940114775,
./basicStim/03F_FE_O.jpg,,0,14,14,16,,,,,,,,,,,None,None,FEA,1.516,None,None,None,None,,,,,,,,,,,,,,,2015_Nov_09_1524,G,facesParametric,30,59.5940114775,
./basicStim/07F_HA_O.jpg,,0,15,15,31,,,,,,,,,,,HAP,2.151,None,None,None,None,None,None,,,,,,,,,,,,,,,2015_Nov_09_1524,G,facesParametric,30,59.5940114775,
./basicStim/09F_SA_C.jpg,,0,16,16,39,,,,,,,,,,,None,None,ANG,2.951,None,None,None,None,,,,,,,,,,,,,,,2015_Nov_09_1524,G,facesParametric,30,59.5940114775,
./basicStim/07F_SP_O.jpg,,0,17,17,33,,,,,,,,,,,None,None,None,None,SUP,2.958,None,None,,,,,,,,,,,,,,,2015_Nov_09_1524,G,facesParametric,30,59.5940114775,
./basicStim/24M_NE_C.jpg,,0,18,18,62,,,,,,,,,,,None,None,None,None,None,None,NTR,1.443,,,,,,,,,,,,,,,2015_Nov_09_1524,G,facesParametric,30,59.5940114775,
./basicStim/03F_SP_O.jpg,,0,19,19,19,,,,,,,,,,,HAP,3.204,None,None,None,None,None,None,,,,,,,,,,,,,,,2015_Nov_09_1524,G,facesParametric,30,59.5940114775,
./basicStim/34M_SA_C.jpg,,0,20,20,74,,,,,,,,,,,None,None,None,None,DIS,4.272,None,None,,,,,,,,,,,,,,,2015_Nov_09_1524,G,facesParametric,30,59.5940114775,
./basicStim/09F_AN_O.jpg,,0,21,21,35,,,,,,,,,,,None,None,ANG,3.03,None,None,None,None,,,,,,,,,,,,,,,2015_Nov_09_1524,G,facesParametric,30,59.5940114775,
./basicStim/24M_SA_C.jpg,,0,22,22,60,,,,,,,,,,,None,None,None,None,DIS,2.737,None,None,,,,,,,,,,,,,,,2015_Nov_09_1524,G,facesParametric,30,59.5940114775,
./basicStim/23M_SP_O.jpg,,0,23,23,54,,,,,,,,,,,None,None,None,None,SUP,2.618,None,None,,,,,,,,,,,,,,,2015_Nov_09_1524,G,facesParametric,30,59.5940114775,
./basicStim/36M_AN_O.jpg,,0,24,24,77,,,,,,,,,,,None,None,ANG,3.053,None,None,None,None,,,,,,,,,,,,,,,2015_Nov_09_1524,G,facesParametric,30,59.5940114775,
./basicStim/07F_SA_C.jpg,,0,25,25,32,,,,,,,,,,,None,None,None,None,SUP,5.349,None,None,,,,,,,,,,,,,,,2015_Nov_09_1524,G,facesParametric,30,59.5940114775,
./basicStim/21M_DI_O.jpg,,0,26,26,43,,,,,,,,,,,None,None,None,None,DIS,2.133,None,None,,,,,,,,,,,,,,,2015_Nov_09_1524,G,facesParametric,30,59.5940114775,
./basicStim/01F_SA_C.jpg,,0,27,27,4,,,,,,,,,,,None,None,None,None,SUP,11.247,None,None,,,,,,,,,,,,,,,2015_Nov_09_1524,G,facesParametric,30,59.5940114775,
./basicStim/06F_SP_O.jpg,,0,28,28,26,,,,,,,,,,,None,None,None,None,SUP,3.359,None,None,,,,,,,,,,,,,,,2015_Nov_09_1524,G,facesParametric,30,59.5940114775,
./basicStim/23M_FE_O.jpg,,0,29,29,51,,,,,,,,,,,None,None,None,None,SUP,5.437,None,None,,,,,,,,,,,,,,,2015_Nov_09_1524,G,facesParametric,30,59.5940114775,
./basicStim/21M_NE_C.jpg,,0,30,30,48,,,,,,,,,,,None,None,None,None,None,None,NTR,1.897,,,,,,,,,,,,,,,2015_Nov_09_1524,G,facesParametric,30,59.5940114775,
./basicStim/01F_FE_O.jpg,,0,31,31,2,,,,,,,,,,,None,None,FEA,4.162,None,None,None,None,,,,,,,,,,,,,,,2015_Nov_09_1524,G,facesParametric,30,59.5940114775,
./basicStim/36M_HA_O.jpg,,0,32,32,80,,,,,,,,,,,HAP,1.242,None,None,None,None,None,None,,,,,,,,,,,,,,,2015_Nov_09_1524,G,facesParametric,30,59.5940114775,
./basicStim/01F_NE_C.jpg,,0,33,33,6,,,,,,,,,,,None,None,None,None,None,None,NTR,1.46,,,,,,,,,,,,,,,2015_Nov_09_1524,G,facesParametric,30,59.5940114775,
./basicStim/23M_NE_C.jpg,,0,34,34,55,,,,,,,,,,,None,None,None,None,None,None,NTR,0.938,,,,,,,,,,,,,,,2015_Nov_09_1524,G,facesParametric,30,59.5940114775,
./basicStim/09F_NE_C.jpg,,0,35,35,41,,,,,,,,,,,None,None,None,None,None,None,NTR,1.081,,,,,,,,,,,,,,,2015_Nov_09_1524,G,facesParametric,30,59.5940114775,
./basicStim/01F_HA_O.jpg,,0,36,36,3,,,,,,,,,,,HAP,1.713,None,None,None,None,None,None,,,,,,,,,,,,,,,2015_Nov_09_1524,G,facesParametric,30,59.5940114775,
./basicStim/24M_HA_O.jpg,,0,37,37,59,,,,,,,,,,,HAP,2.067,None,None,None,None,None,None,,,,,,,,,,,,,,,2015_Nov_09_1524,G,facesParametric,30,59.5940114775,
./basicStim/09F_FE_O.jpg,,0,38,38,37,,,,,,,,,,,None,None,None,None,DIS,3.518,None,None,,,,,,,,,,,,,,,2015_Nov_09_1524,G,facesParametric,30,59.5940114775,
./basicStim/21M_SP_O.jpg,,0,39,39,47,,,,,,,,,,,None,None,None,None,SUP,4.162,None,None,,,,,,,,,,,,,,,2015_Nov_09_1524,G,facesParametric,30,59.5940114775,
./basicStim/01F_AN_O.jpg,,0,40,40,0,,,,,,,,,,,None,None,ANG,4.547,None,None,None,None,,,,,,,,,,,,,,,2015_Nov_09_1524,G,facesParametric,30,59.5940114775,
./basicStim/02F_FE_O.jpg,,0,41,41,9,,,,,,,,,,,None,None,None,None,DIS,1.246,None,None,,,,,,,,,,,,,,,2015_Nov_09_1524,G,facesParametric,30,59.5940114775,
./basicStim/07F_AN_O.jpg,,0,42,42,28,,,,,,,,,,,None,None,None,None,DIS,0.99,None,None,,,,,,,,,,,,,,,2015_Nov_09_1524,G,facesParametric,30,59.5940114775,
./basicStim/28M_DI_O.jpg,,0,43,43,64,,,,,,,,,,,None,None,None,None,DIS,0.958,None,None,,,,,,,,,,,,,,,2015_Nov_09_1524,G,facesParametric,30,59.5940114775,
./basicStim/34M_AN_O.jpg,,0,44,44,70,,,,,,,,,,,None,None,ANG,1.579,None,None,None,None,,,,,,,,,,,,,,,2015_Nov_09_1524,G,facesParametric,30,59.5940114775,
./basicStim/01F_SP_O.jpg,,0,45,45,5,,,,,,,,,,,None,None,None,None,SUP,3.201,None,None,,,,,,,,,,,,,,,2015_Nov_09_1524,G,facesParametric,30,59.5940114775,
./basicStim/06F_DI_O.jpg,,0,46,46,22,,,,,,,,,,,None,None,None,None,DIS,1.407,None,None,,,,,,,,,,,,,,,2015_Nov_09_1524,G,facesParametric,30,59.5940114775,
./basicStim/06F_HA_O.jpg,,0,47,47,24,,,,,,,,,,,HAP,1.212,None,None,None,None,None,None,,,,,,,,,,,,,,,2015_Nov_09_1524,G,facesParametric,30,59.5940114775,
./basicStim/24M_SP_O.jpg,,0,48,48,61,,,,,,,,,,,None,None,None,None,None,None,NTR,2.888,,,,,,,,,,,,,,,2015_Nov_09_1524,G,facesParametric,30,59.5940114775,
./basicStim/34M_FE_O.jpg,,0,49,49,72,,,,,,,,,,,None,None,None,None,SUP,6.203,None,None,,,,,,,,,,,,,,,2015_Nov_09_1524,G,facesParametric,30,59.5940114775,
./basicStim/36M_SA_C.jpg,,0,50,50,81,,,,,,,,,,,SAD,8.971,None,None,None,None,None,None,,,,,,,,,,,,,,,2015_Nov_09_1524,G,facesParametric,30,59.5940114775,
./basicStim/36M_FE_O.jpg,,0,51,51,79,,,,,,,,,,,None,None,None,None,DIS,3.064,None,None,,,,,,,,,,,,,,,2015_Nov_09_1524,G,facesParametric,30,59.5940114775,
./basicStim/01F_DI_O.jpg,,0,52,52,1,,,,,,,,,,,None,None,ANG,2.205,None,None,None,None,,,,,,,,,,,,,,,2015_Nov_09_1524,G,facesParametric,30,59.5940114775,
./basicStim/03F_AN_O.jpg,,0,53,53,14,,,,,,,,,,,None,None,ANG,1.048,None,None,None,None,,,,,,,,,,,,,,,2015_Nov_09_1524,G,facesParametric,30,59.5940114775,
./basicStim/02F_DI_O.jpg,,0,54,54,8,,,,,,,,,,,None,None,None,None,DIS,2.097,None,None,,,,,,,,,,,,,,,2015_Nov_09_1524,G,facesParametric,30,59.5940114775,
./basicStim/21M_FE_O.jpg,,0,55,55,44,,,,,,,,,,,None,None,FEA,1.769,None,None,None,None,,,,,,,,,,,,,,,2015_Nov_09_1524,G,facesParametric,30,59.5940114775,
./basicStim/07F_FE_O.jpg,,0,56,56,30,,,,,,,,,,,None,None,FEA,1.984,None,None,None,None,,,,,,,,,,,,,,,2015_Nov_09_1524,G,facesParametric,30,59.5940114775,
./basicStim/34M_HA_O.jpg,,0,57,57,73,,,,,,,,,,,HAP,1.934,None,None,None,None,None,None,,,,,,,,,,,,,,,2015_Nov_09_1524,G,facesParametric,30,59.5940114775,
./basicStim/02F_SA_C.jpg,,0,58,58,11,,,,,,,,,,,None,None,None,None,SUP,3.744,None,None,,,,,,,,,,,,,,,2015_Nov_09_1524,G,facesParametric,30,59.5940114775,
./basicStim/23M_AN_O.jpg,,0,59,59,49,,,,,,,,,,,None,None,ANG,2.081,None,None,None,None,,,,,,,,,,,,,,,2015_Nov_09_1524,G,facesParametric,30,59.5940114775,
./basicStim/24M_DI_O.jpg,,0,60,60,57,,,,,,,,,,,None,None,FEA,4.114,None,None,None,None,,,,,,,,,,,,,,,2015_Nov_09_1524,G,facesParametric,30,59.5940114775,
./basicStim/34M_DI_O.jpg,,0,61,61,71,,,,,,,,,,,None,None,ANG,6.914,None,None,None,None,,,,,,,,,,,,,,,2015_Nov_09_1524,G,facesParametric,30,59.5940114775,
./basicStim/09F_HA_O.jpg,,0,62,62,38,,,,,,,,,,,HAP,2.0,None,None,None,None,None,None,,,,,,,,,,,,,,,2015_Nov_09_1524,G,facesParametric,30,59.5940114775,
./basicStim/28M_AN_O.jpg,,0,63,63,63,,,,,,,,,,,None,None,None,None,DIS,4.411,None,None,,,,,,,,,,,,,,,2015_Nov_09_1524,G,facesParametric,30,59.5940114775,
./basicStim/21M_SA_C.jpg,,0,64,64,46,,,,,,,,,,,SAD,4.914,None,None,None,None,None,None,,,,,,,,,,,,,,,2015_Nov_09_1524,G,facesParametric,30,59.5940114775,
./basicStim/34M_SP_O.jpg,,0,65,65,75,,,,,,,,,,,None,None,None,None,SUP,2.537,None,None,,,,,,,,,,,,,,,2015_Nov_09_1524,G,facesParametric,30,59.5940114775,
./basicStim/03F_HA_O.jpg,,0,66,66,17,,,,,,,,,,,HAP,2.275,None,None,None,None,None,None,,,,,,,,,,,,,,,2015_Nov_09_1524,G,facesParametric,30,59.5940114775,
./basicStim/09F_DI_O.jpg,,0,67,67,36,,,,,,,,,,,None,None,None,None,DIS,1.642,None,None,,,,,,,,,,,,,,,2015_Nov_09_1524,G,facesParametric,30,59.5940114775,
./basicStim/36M_NE_C.jpg,,0,68,68,83,,,,,,,,,,,None,None,None,None,None,None,NTR,1.414,,,,,,,,,,,,,,,2015_Nov_09_1524,G,facesParametric,30,59.5940114775,
./basicStim/06F_AN_O.jpg,,0,69,69,21,,,,,,,,,,,None,None,None,None,DIS,1.609,None,None,,,,,,,,,,,,,,,2015_Nov_09_1524,G,facesParametric,30,59.5940114775,
./basicStim/28M_NE_C.jpg,,0,70,70,69,,,,,,,,,,,None,None,None,None,None,None,NTR,1.666,,,,,,,,,,,,,,,2015_Nov_09_1524,G,facesParametric,30,59.5940114775,
./basicStim/21M_HA_O.jpg,,0,71,71,45,,,,,,,,,,,HAP,1.182,None,None,None,None,None,None,,,,,,,,,,,,,,,2015_Nov_09_1524,G,facesParametric,30,59.5940114775,
./basicStim/03F_NE_C.jpg,,0,72,72,20,,,,,,,,,,,None,None,None,None,None,None,NTR,2.183,,,,,,,,,,,,,,,2015_Nov_09_1524,G,facesParametric,30,59.5940114775,
./basicStim/07F_DI_O.jpg,,0,73,73,29,,,,,,,,,,,None,None,None,None,DIS,1.493,None,None,,,,,,,,,,,,,,,2015_Nov_09_1524,G,facesParametric,30,59.5940114775,
./basicStim/28M_FE_O.jpg,,0,74,74,65,,,,,,,,,,,None,None,None,None,SUP,2.852,None,None,,,,,,,,,,,,,,,2015_Nov_09_1524,G,facesParametric,30,59.5940114775,
./basicStim/24M_AN_O.jpg,,0,75,75,56,,,,,,,,,,,None,None,ANG,2.971,None,None,None,None,,,,,,,,,,,,,,,2015_Nov_09_1524,G,facesParametric,30,59.5940114775,
./basicStim/36M_DI_O.jpg,,0,76,76,78,,,,,,,,,,,None,None,None,None,DIS,1.747,None,None,,,,,,,,,,,,,,,2015_Nov_09_1524,G,facesParametric,30,59.5940114775,
./basicStim/23M_DI_O.jpg,,0,77,77,50,,,,,,,,,,,None,None,FEA,2.367,None,None,None,None,,,,,,,,,,,,,,,2015_Nov_09_1524,G,facesParametric,30,59.5940114775,
./basicStim/07F_NE_C.jpg,,0,78,78,34,,,,,,,,,,,None,None,None,None,None,None,NTR,1.392,,,,,,,,,,,,,,,2015_Nov_09_1524,G,facesParametric,30,59.5940114775,
./basicStim/24M_FE_O.jpg,,0,79,79,58,,,,,,,,,,,None,None,None,None,None,None,NTR,17.851,,,,,,,,,,,,,,,2015_Nov_09_1524,G,facesParametric,30,59.5940114775,
./basicStim/02F_HA_O.jpg,,0,80,80,10,,,,,,,,,,,HAP,1.394,None,None,None,None,None,None,,,,,,,,,,,,,,,2015_Nov_09_1524,G,facesParametric,30,59.5940114775,
./basicStim/09F_SP_O.jpg,,0,81,81,40,,,,,,,,,,,None,None,None,None,SUP,4.477,None,None,,,,,,,,,,,,,,,2015_Nov_09_1524,G,facesParametric,30,59.5940114775,
./basicStim/03F_DI_O.jpg,,0,82,82,15,,,,,,,,,,,None,None,None,None,DIS,3.334,None,None,,,,,,,,,,,,,,,2015_Nov_09_1524,G,facesParametric,30,59.5940114775,
./basicStim/34M_NE_C.jpg,,0,83,83,76,,,,,,,,,,,None,None,None,None,None,None,NTR,2.533,,,,,,,,,,,,,,,2015_Nov_09_1524,G,facesParametric,30,59.5940114775,
,,,,,,,,,,,,,,,,,,,,,,,,return,11.9007439613,,,,,,,,,,,,,2015_Nov_09_1524,G,facesParametric,30,59.5940114775,
,,,,,,,,,,,,,,return,100.021121979,,,,,,,,,,,,,,,,,,,,,,,2015_Nov_09_1524,G,facesParametric,30,59.5940114775,
,,,,,,,,,,,,,,,,,,,,,,,,return,4.20654988289,,,,,,,,,,,,,2015_Nov_09_1524,G,facesParametric,30,59.5940114775,
,,,,,,,,,,,,,,,,,,,,,,,,,,return,2.66452097893,,,,,,,,,,,2015_Nov_09_1524,G,facesParametric,30,59.5940114775,
./stim/MorphM4_03_orig.jpg,0,,,,,0,0,0,0,,,,,,,,,,,,,,,,,,,13.154296875,-11.54296875,0,0,1,8.05417704582,,,,,2015_Nov_09_1524,G,facesParametric,30,59.5940114775,
./stim/MorphF8_05_orig.jpg,1,,,,,0,1,1,1,,,,,,,,,,,,,,,,,,,13.359375,-11.54296875,0,0,1,1.87323999405,,,,,2015_Nov_09_1524,G,facesParametric,30,59.5940114775,
./stim/MorphF3_01_orig.jpg,2,,,,,0,2,2,2,,,,,,,,,,,,,,,,,,,13.330078125,-11.572265625,0,0,1,1.65718102455,,,,,2015_Nov_09_1524,G,facesParametric,30,59.5940114775,
./stim/MorphM4_10_orig.jpg,3,,,,,0,3,3,3,,,,,,,,,,,,,,,,,,,13.330078125,-11.6015625,1,0,0,1.40471196175,,,,,2015_Nov_09_1524,G,facesParametric,30,59.5940114775,
./stim/MorphM2_01_orig.jpg,4,,,,,0,4,4,4,,,,,,,,,,,,,,,,,,,13.88671875,-12.802734375,0,0,1,1.43838191032,,,,,2015_Nov_09_1524,G,facesParametric,30,59.5940114775,
./stim/MorphF3_02_orig.jpg,5,,,,,0,5,5,5,,,,,,,,,,,,,,,,,,,13.88671875,-12.744140625,0,0,1,1.45670700073,,,,,2015_Nov_09_1524,G,facesParametric,30,59.5940114775,
./stim/MorphF4_08_orig.jpg,6,,,,,0,6,6,6,,,,,,,,,,,,,,,,,,,13.88671875,-12.65625,1,0,0,1.95945906639,,,,,2015_Nov_09_1524,G,facesParametric,30,59.5940114775,
./stim/MorphM1_06_orig.jpg,7,,,,,0,7,7,7,,,,,,,,,,,,,,,,,,,13.9453125,-12.5390625,1,0,0,1.95776700974,,,,,2015_Nov_09_1524,G,facesParametric,30,59.5940114775,
./stim/MorphM5_08_orig.jpg,8,,,,,0,8,8,8,,,,,,,,,,,,,,,,,,,14.0625,-12.333984375,1,0,0,1.60712003708,,,,,2015_Nov_09_1524,G,facesParametric,30,59.5940114775,
./stim/MorphF4_07_orig.jpg,9,,,,,0,9,9,9,,,,,,,,,,,,,,,,,,,14.033203125,-12.24609375,0,0,1,2.17751002312,,,,,2015_Nov_09_1524,G,facesParametric,30,59.5940114775,
./stim/MorphF9_06_orig.jpg,10,,,,,0,10,10,10,,,,,,,,,,,,,,,,,,,13.9453125,-12.275390625,0,0,1,1.1220099926,,,,,2015_Nov_09_1524,G,facesParametric,30,59.5940114775,
./stim/MorphM2_05_orig.jpg,11,,,,,0,11,11,11,,,,,,,,,,,,,,,,,,,13.9453125,-12.275390625,0,0,1,0.902535915375,,,,,2015_Nov_09_1524,G,facesParametric,30,59.5940114775,
./stim/MorphF1_10_orig.jpg,12,,,,,0,12,12,12,,,,,,,,,,,,,,,,,,,13.974609375,-12.099609375,1,0,0,2.66283297539,,,,,2015_Nov_09_1524,G,facesParametric,30,59.5940114775,
./stim/MorphM9_10_orig.jpg,13,,,,,0,13,13,13,,,,,,,,,,,,,,,,,,,13.916015625,-12.12890625,1,0,0,1.05482506752,,,,,2015_Nov_09_1524,G,facesParametric,30,59.5940114775,
./stim/MorphM1_05_orig.jpg,14,,,,,0,14,14,14,,,,,,,,,,,,,,,,,,,13.9453125,-12.12890625,1,0,0,1.22194814682,,,,,2015_Nov_09_1524,G,facesParametric,30,59.5940114775,
./stim/MorphM8_09_orig.jpg,15,,,,,0,15,15,15,,,,,,,,,,,,,,,,,,,13.9453125,-11.953125,1,0,0,1.03819108009,,,,,2015_Nov_09_1524,G,facesParametric,30,59.5940114775,
./stim/MorphM2_07_orig.jpg,16,,,,,0,16,16,16,,,,,,,,,,,,,,,,,,,13.916015625,-11.923828125,1,0,0,1.80678081512,,,,,2015_Nov_09_1524,G,facesParametric,30,59.5940114775,
./stim/MorphF6_00_orig.jpg,17,,,,,0,17,17,17,,,,,,,,,,,,,,,,,,,13.828125,-11.77734375,0,0,1,1.12147808075,,,,,2015_Nov_09_1524,G,facesParametric,30,59.5940114775,
./stim/MorphM6_02_orig.jpg,18,,,,,0,18,18,18,,,,,,,,,,,,,,,,,,,13.76953125,-11.6015625,0,0,1,2.12707495689,,,,,2015_Nov_09_1524,G,facesParametric,30,59.5940114775,
./stim/MorphF4_01_orig.jpg,19,,,,,0,19,19,19,,,,,,,,,,,,,,,,,,,13.681640625,-11.6015625,0,0,1,1.39019489288,,,,,2015_Nov_09_1524,G,facesParametric,30,59.5940114775,
./stim/MorphM1_08_orig.jpg,20,,,,,0,20,20,20,,,,,,,,,,,,,,,,,,,13.65234375,-11.77734375,1,0,0,1.01826500893,,,,,2015_Nov_09_1524,G,facesParametric,30,59.5940114775,
./stim/MorphM10_02_orig.jpg,21,,,,,0,21,21,21,,,,,,,,,,,,,,,,,,,13.59375,-11.77734375,0,0,1,1.85921502113,,,,,2015_Nov_09_1524,G,facesParametric,30,59.5940114775,
./stim/MorphF1_02_orig.jpg,22,,,,,0,22,22,22,,,,,,,,,,,,,,,,,,,13.564453125,-11.748046875,0,0,1,1.27244997025,,,,,2015_Nov_09_1524,G,facesParametric,30,59.5940114775,
./stim/MorphF2_02_orig.jpg,23,,,,,0,23,23,23,,,,,,,,,,,,,,,,,,,13.564453125,-11.748046875,1,0,0,1.15529894829,,,,,2015_Nov_09_1524,G,facesParametric,30,59.5940114775,
./stim/MorphM5_05_orig.jpg,24,,,,,0,24,24,24,,,,,,,,,,,,,,,,,,,13.505859375,-11.806640625,1,0,0,1.27236914635,,,,,2015_Nov_09_1524,G,facesParametric,30,59.5940114775,
./stim/MorphM7_04_orig.jpg,25,,,,,0,25,25,25,,,,,,,,,,,,,,,,,,,13.505859375,-11.630859375,1,0,0,1.2733540535,,,,,2015_Nov_09_1524,G,facesParametric,30,59.5940114775,
./stim/MorphM9_05_orig.jpg,26,,,,,0,26,26,26,,,,,,,,,,,,,,,,,,,13.505859375,-11.630859375,0,0,1,1.43931818008,,,,,2015_Nov_09_1524,G,facesParametric,30,59.5940114775,
./stim/MorphF4_04_orig.jpg,27,,,,,0,27,27,27,,,,,,,,,,,,,,,,,,,13.4765625,-11.6015625,0,0,1,1.49012613297,,,,,2015_Nov_09_1524,G,facesParametric,30,59.5940114775,
./stim/MorphF6_06_orig.jpg,28,,,,,0,28,28,28,,,,,,,,,,,,,,,,,,,13.4765625,-11.6015625,0,0,1,1.02154493332,,,,,2015_Nov_09_1524,G,facesParametric,30,59.5940114775,
./stim/MorphM3_04_orig.jpg,29,,,,,0,29,29,29,,,,,,,,,,,,,,,,,,,13.4765625,-11.6015625,0,0,1,3.7003390789,,,,,2015_Nov_09_1524,G,facesParametric,30,59.5940114775,
./stim/MorphF5_01_orig.jpg,30,,,,,0,30,30,30,,,,,,,,,,,,,,,,,,,13.447265625,-11.6015625,0,0,1,1.67368507385,,,,,2015_Nov_09_1524,G,facesParametric,30,59.5940114775,
./stim/MorphM1_07_orig.jpg,31,,,,,0,31,31,31,,,,,,,,,,,,,,,,,,,13.41796875,-11.630859375,1,0,0,0.986289024353,,,,,2015_Nov_09_1524,G,facesParametric,30,59.5940114775,
./stim/MorphM10_06_orig.jpg,32,,,,,0,32,32,32,,,,,,,,,,,,,,,,,,,13.388671875,-11.689453125,1,0,0,0.786535024643,,,,,2015_Nov_09_1524,G,facesParametric,30,59.5940114775,
./stim/MorphF10_10_orig.jpg,33,,,,,0,33,33,33,,,,,,,,,,,,,,,,,,,13.388671875,-11.689453125,1,0,0,0.683396816254,,,,,2015_Nov_09_1524,G,facesParametric,30,59.5940114775,
./stim/MorphM10_08_orig.jpg,34,,,,,0,34,34,34,,,,,,,,,,,,,,,,,,,13.359375,-11.6015625,1,0,0,0.902451038361,,,,,2015_Nov_09_1524,G,facesParametric,30,59.5940114775,
./stim/MorphM5_01_orig.jpg,35,,,,,0,35,35,35,,,,,,,,,,,,,,,,,,,13.359375,-11.6015625,1,0,0,1.00234103203,,,,,2015_Nov_09_1524,G,facesParametric,30,59.5940114775,
./stim/MorphM6_04_orig.jpg,36,,,,,0,36,36,36,,,,,,,,,,,,,,,,,,,13.330078125,-11.3671875,0,0,1,2.42885613441,,,,,2015_Nov_09_1524,G,facesParametric,30,59.5940114775,
./stim/MorphF9_03_orig.jpg,37,,,,,0,37,37,37,,,,,,,,,,,,,,,,,,,13.330078125,-11.3671875,0,0,1,1.45521593094,,,,,2015_Nov_09_1524,G,facesParametric,30,59.5940114775,
./stim/MorphF2_08_orig.jpg,38,,,,,0,38,38,38,,,,,,,,,,,,,,,,,,,13.330078125,-11.3671875,1,0,0,3.68583202362,,,,,2015_Nov_09_1524,G,facesParametric,30,59.5940114775,
./stim/MorphM2_08_orig.jpg,39,,,,,0,39,39,39,,,,,,,,,,,,,,,,,,,13.30078125,-11.25,1,0,0,2.83074593544,,,,,2015_Nov_09_1524,G,facesParametric,30,59.5940114775,
./stim/MorphF2_03_orig.jpg,40,,,,,0,40,40,40,,,,,,,,,,,,,,,,,,,13.359375,-11.220703125,0,0,1,1.54024100304,,,,,2015_Nov_09_1524,G,facesParametric,30,59.5940114775,
./stim/MorphF6_05_orig.jpg,41,,,,,0,41,41,41,,,,,,,,,,,,,,,,,,,13.330078125,-11.103515625,0,0,1,2.07616519928,,,,,2015_Nov_09_1524,G,facesParametric,30,59.5940114775,
./stim/MorphF3_07_orig.jpg,42,,,,,0,42,42,42,,,,,,,,,,,,,,,,,,,13.30078125,-11.07421875,0,0,1,3.01521992683,,,,,2015_Nov_09_1524,G,facesParametric,30,59.5940114775,
./stim/MorphM1_10_orig.jpg,43,,,,,0,43,43,43,,,,,,,,,,,,,,,,,,,13.30078125,-11.07421875,1,0,0,1.33940601349,,,,,2015_Nov_09_1524,G,facesParametric,30,59.5940114775,
./stim/MorphF5_02_orig.jpg,44,,,,,0,44,44,44,,,,,,,,,,,,,,,,,,,13.30078125,-11.07421875,0,0,1,1.08825707436,,,,,2015_Nov_09_1524,G,facesParametric,30,59.5940114775,
./stim/MorphF3_03_orig.jpg,45,,,,,0,45,45,45,,,,,,,,,,,,,,,,,,,13.30078125,-11.07421875,0,0,1,3.53472900391,,,,,2015_Nov_09_1524,G,facesParametric,30,59.5940114775,
./stim/MorphM5_03_orig.jpg,46,,,,,0,46,46,46,,,,,,,,,,,,,,,,,,,13.30078125,-11.07421875,0,0,1,1.54009914398,,,,,2015_Nov_09_1524,G,facesParametric,30,59.5940114775,
./stim/MorphF9_02_orig.jpg,47,,,,,0,47,47,47,,,,,,,,,,,,,,,,,,,15.380859375,-11.30859375,0,0,1,5.74721598625,,,,,2015_Nov_09_1524,G,facesParametric,30,59.5940114775,
./stim/MorphF8_01_orig.jpg,48,,,,,0,48,48,48,,,,,,,,,,,,,,,,,,,15.3515625,-11.279296875,0,0,1,3.68446397781,,,,,2015_Nov_09_1524,G,facesParametric,30,59.5940114775,
./stim/MorphM6_10_orig.jpg,49,,,,,0,49,49,49,,,,,,,,,,,,,,,,,,,15.99609375,-11.42578125,1,0,0,4.25553488731,,,,,2015_Nov_09_1524,G,facesParametric,30,59.5940114775,
./stim/MorphF8_06_orig.jpg,50,,,,,0,50,50,50,,,,,,,,,,,,,,,,,,,15.380859375,-3.310546875,0,0,1,5.05862021446,,,,,2015_Nov_09_1524,G,facesParametric,30,59.5940114775,
./stim/MorphM4_07_orig.jpg,51,,,,,0,51,51,51,,,,,,,,,,,,,,,,,,,17.841796875,-5.625,1,0,0,1.44044399261,,,,,2015_Nov_09_1524,G,facesParametric,30,59.5940114775,
./stim/MorphF4_05_orig.jpg,52,,,,,0,52,52,52,,,,,,,,,,,,,,,,,,,18.1640625,-1.2890625,0,0,1,1.54032087326,,,,,2015_Nov_09_1524,G,facesParametric,30,59.5940114775,
./stim/MorphM4_01_orig.jpg,53,,,,,0,53,53,53,,,,,,,,,,,,,,,,,,,19.27734375,-0.673828125,0,0,1,4.37084913254,,,,,2015_Nov_09_1524,G,facesParametric,30,59.5940114775,
./stim/MorphF8_09_orig.jpg,54,,,,,0,54,54,54,,,,,,,,,,,,,,,,,,,19.248046875,-0.64453125,1,0,0,1.52364897728,,,,,2015_Nov_09_1524,G,facesParametric,30,59.5940114775,
./stim/MorphF1_09_orig.jpg,55,,,,,0,55,55,55,,,,,,,,,,,,,,,,,,,19.21875,-0.556640625,0,0,1,2.34388399124,,,,,2015_Nov_09_1524,G,facesParametric,30,59.5940114775,
./stim/MorphM9_03_orig.jpg,56,,,,,0,56,56,56,,,,,,,,,,,,,,,,,,,19.189453125,-0.52734375,0,0,1,1.60817193985,,,,,2015_Nov_09_1524,G,facesParametric,30,59.5940114775,
./stim/MorphM3_10_orig.jpg,57,,,,,0,57,57,57,,,,,,,,,,,,,,,,,,,19.189453125,-0.498046875,1,0,0,3.0656080246,,,,,2015_Nov_09_1524,G,facesParametric,30,59.5940114775,
./stim/MorphF9_10_orig.jpg,58,,,,,0,58,58,58,,,,,,,,,,,,,,,,,,,19.21875,-0.41015625,1,0,0,0.970800876617,,,,,2015_Nov_09_1524,G,facesParametric,30,59.5940114775,
./stim/MorphF6_10_orig.jpg,59,,,,,0,59,59,59,,,,,,,,,,,,,,,,,,,19.21875,-0.3515625,1,0,0,1.05477285385,,,,,2015_Nov_09_1524,G,facesParametric,30,59.5940114775,
./stim/MorphM5_04_orig.jpg,60,,,,,0,60,60,60,,,,,,,,,,,,,,,,,,,19.189453125,-0.322265625,1,0,0,3.38372302055,,,,,2015_Nov_09_1524,G,facesParametric,30,59.5940114775,
./stim/MorphF5_05_orig.jpg,61,,,,,0,61,61,61,,,,,,,,,,,,,,,,,,,19.21875,-0.3515625,0,0,1,2.1927728653,,,,,2015_Nov_09_1524,G,facesParametric,30,59.5940114775,
./stim/MorphM5_07_orig.jpg,62,,,,,0,62,62,62,,,,,,,,,,,,,,,,,,,23.349609375,-2.724609375,1,0,0,4.70804405212,,,,,2015_Nov_09_1524,G,facesParametric,30,59.5940114775,
./stim/MorphM9_00_orig.jpg,63,,,,,0,63,63,63,,,,,,,,,,,,,,,,,,,18.662109375,-1.81640625,0,0,1,6.54998397827,,,,,2015_Nov_09_1524,G,facesParametric,30,59.5940114775,
./stim/MorphF7_06_orig.jpg,64,,,,,0,64,64,64,,,,,,,,,,,,,,,,,,,19.86328125,1.669921875,1,0,0,1.08858180046,,,,,2015_Nov_09_1524,G,facesParametric,30,59.5940114775,
./stim/MorphF2_06_orig.jpg,65,,,,,0,65,65,65,,,,,,,,,,,,,,,,,,,20.185546875,2.021484375,1,0,0,1.67422890663,,,,,2015_Nov_09_1524,G,facesParametric,30,59.5940114775,
./stim/MorphF7_10_orig.jpg,66,,,,,0,66,66,66,,,,,,,,,,,,,,,,,,,19.8046875,3.1640625,1,0,0,0.870455026627,,,,,2015_Nov_09_1524,G,facesParametric,30,59.5940114775,
./stim/MorphM6_06_orig.jpg,67,,,,,0,67,67,67,,,,,,,,,,,,,,,,,,,19.74609375,3.515625,1,0,0,1.45688199997,,,,,2015_Nov_09_1524,G,facesParametric,30,59.5940114775,
./stim/MorphF10_08_orig.jpg,68,,,,,0,68,68,68,,,,,,,,,,,,,,,,,,,19.833984375,3.57421875,1,0,0,1.00439119339,,,,,2015_Nov_09_1524,G,facesParametric,30,59.5940114775,
./stim/MorphM3_02_orig.jpg,69,,,,,0,69,69,69,,,,,,,,,,,,,,,,,,,19.775390625,3.6328125,0,0,1,1.55710697174,,,,,2015_Nov_09_1524,G,facesParametric,30,59.5940114775,
./stim/MorphM9_04_orig.jpg,70,,,,,0,70,70,70,,,,,,,,,,,,,,,,,,,19.775390625,3.6328125,0,0,1,1.15503382683,,,,,2015_Nov_09_1524,G,facesParametric,30,59.5940114775,
./stim/MorphM2_03_orig.jpg,71,,,,,0,71,71,71,,,,,,,,,,,,,,,,,,,19.775390625,3.6328125,0,0,1,1.50726795197,,,,,2015_Nov_09_1524,G,facesParametric,30,59.5940114775,
./stim/MorphM1_03_orig.jpg,72,,,,,0,72,72,72,,,,,,,,,,,,,,,,,,,19.775390625,3.6328125,0,0,1,2.64678001404,,,,,2015_Nov_09_1524,G,facesParametric,30,59.5940114775,
./stim/MorphF10_00_orig.jpg,73,,,,,0,73,73,73,,,,,,,,,,,,,,,,,,,19.775390625,3.6328125,0,0,1,1.87602996826,,,,,2015_Nov_09_1524,G,facesParametric,30,59.5940114775,
./stim/MorphF2_04_orig.jpg,74,,,,,0,74,74,74,,,,,,,,,,,,,,,,,,,23.408203125,11.8359375,1,0,0,13.52374506,,,,,2015_Nov_09_1524,G,facesParametric,30,59.5940114775,
./stim/MorphM10_07_orig.jpg,75,,,,,0,75,75,75,,,,,,,,,,,,,,,,,,,23.408203125,11.982421875,1,0,0,1.50573301315,,,,,2015_Nov_09_1524,G,facesParametric,30,59.5940114775,
./stim/MorphF7_09_orig.jpg,76,,,,,0,76,76,76,,,,,,,,,,,,,,,,,,,22.8515625,11.689453125,1,0,0,2.71267294884,,,,,2015_Nov_09_1524,G,facesParametric,30,59.5940114775,
./stim/MorphF6_08_orig.jpg,77,,,,,0,77,77,77,,,,,,,,,,,,,,,,,,,22.001953125,11.513671875,1,0,0,1.38990688324,,,,,2015_Nov_09_1524,G,facesParametric,30,59.5940114775,
./stim/MorphM2_06_orig.jpg,78,,,,,0,78,78,78,,,,,,,,,,,,,,,,,,,18.310546875,11.748046875,1,0,0,5.42864990234,,,,,2015_Nov_09_1524,G,facesParametric,30,59.5940114775,
./stim/MorphF2_07_orig.jpg,79,,,,,0,79,79,79,,,,,,,,,,,,,,,,,,,18.33984375,11.77734375,1,0,0,1.3731470108,,,,,2015_Nov_09_1524,G,facesParametric,30,59.5940114775,
./stim/MorphM3_03_orig.jpg,80,,,,,0,80,80,80,,,,,,,,,,,,,,,,,,,18.33984375,11.77734375,0,0,1,1.27285504341,,,,,2015_Nov_09_1524,G,facesParametric,30,59.5940114775,
./stim/MorphF5_03_orig.jpg,81,,,,,0,81,81,81,,,,,,,,,,,,,,,,,,,18.310546875,11.806640625,0,0,1,0.968901157379,,,,,2015_Nov_09_1524,G,facesParametric,30,59.5940114775,
./stim/MorphF8_04_orig.jpg,82,,,,,0,82,82,82,,,,,,,,,,,,,,,,,,,18.076171875,11.630859375,0,0,1,2.47876000404,,,,,2015_Nov_09_1524,G,facesParametric,30,59.5940114775,
./stim/MorphF5_04_orig.jpg,83,,,,,0,83,83,83,,,,,,,,,,,,,,,,,,,18.017578125,11.6015625,0,0,1,0.95431804657,,,,,2015_Nov_09_1524,G,facesParametric,30,59.5940114775,
./stim/MorphM1_01_orig.jpg,84,,,,,0,84,84,84,,,,,,,,,,,,,,,,,,,17.958984375,11.484375,0,0,1,3.95319890976,,,,,2015_Nov_09_1524,G,facesParametric,30,59.5940114775,
./stim/MorphM4_05_orig.jpg,85,,,,,0,85,85,85,,,,,,,,,,,,,,,,,,,18.046875,11.455078125,1,0,0,2.00648903847,,,,,2015_Nov_09_1524,G,facesParametric,30,59.5940114775,
./stim/MorphF3_04_orig.jpg,86,,,,,0,86,86,86,,,,,,,,,,,,,,,,,,,18.134765625,11.484375,0,0,1,1.8090929985,,,,,2015_Nov_09_1524,G,facesParametric,30,59.5940114775,
./stim/MorphM3_08_orig.jpg,87,,,,,0,87,87,87,,,,,,,,,,,,,,,,,,,18.134765625,11.484375,0,0,1,2.44563794136,,,,,2015_Nov_09_1524,G,facesParametric,30,59.5940114775,
./stim/MorphF5_06_orig.jpg,88,,,,,0,88,88,88,,,,,,,,,,,,,,,,,,,18.134765625,11.484375,0,0,1,0.784994125366,,,,,2015_Nov_09_1524,G,facesParametric,30,59.5940114775,
./stim/MorphF1_01_orig.jpg,89,,,,,0,89,89,89,,,,,,,,,,,,,,,,,,,18.193359375,11.337890625,0,0,1,3.28321695328,,,,,2015_Nov_09_1524,G,facesParametric,30,59.5940114775,
./stim/MorphM1_00_orig.jpg,90,,,,,0,90,90,90,,,,,,,,,,,,,,,,,,,18.3984375,10.986328125,0,0,1,2.29337191582,,,,,2015_Nov_09_1524,G,facesParametric,30,59.5940114775,
./stim/MorphM4_02_orig.jpg,91,,,,,0,91,91,91,,,,,,,,,,,,,,,,,,,18.603515625,11.103515625,1,0,0,1.3550620079,,,,,2015_Nov_09_1524,G,facesParametric,30,59.5940114775,
./stim/MorphM7_08_orig.jpg,92,,,,,0,92,92,92,,,,,,,,,,,,,,,,,,,18.662109375,11.19140625,1,0,0,0.903521060944,,,,,2015_Nov_09_1524,G,facesParametric,30,59.5940114775,
./stim/MorphF8_10_orig.jpg,93,,,,,0,93,93,93,,,,,,,,,,,,,,,,,,,18.6328125,11.103515625,1,0,0,1.10498309135,,,,,2015_Nov_09_1524,G,facesParametric,30,59.5940114775,
./stim/MorphM1_04_orig.jpg,94,,,,,0,94,94,94,,,,,,,,,,,,,,,,,,,18.6328125,11.015625,1,0,0,1.22022604942,,,,,2015_Nov_09_1524,G,facesParametric,30,59.5940114775,
./stim/MorphM9_07_orig.jpg,95,,,,,0,95,95,95,,,,,,,,,,,,,,,,,,,18.603515625,11.103515625,1,0,0,0.968789100647,,,,,2015_Nov_09_1524,G,facesParametric,30,59.5940114775,
./stim/MorphF4_06_orig.jpg,96,,,,,0,96,96,96,,,,,,,,,,,,,,,,,,,18.662109375,11.1328125,1,0,0,2.62891888618,,,,,2015_Nov_09_1524,G,facesParametric,30,59.5940114775,
./stim/MorphF3_10_orig.jpg,97,,,,,0,97,97,97,,,,,,,,,,,,,,,,,,,18.662109375,11.19140625,1,0,0,1.3874809742,,,,,2015_Nov_09_1524,G,facesParametric,30,59.5940114775,
./stim/MorphM8_07_orig.jpg,98,,,,,0,98,98,98,,,,,,,,,,,,,,,,,,,18.69140625,11.220703125,1,0,0,1.22259807587,,,,,2015_Nov_09_1524,G,facesParametric,30,59.5940114775,
./stim/MorphM4_04_orig.jpg,99,,,,,0,99,99,99,,,,,,,,,,,,,,,,,,,18.69140625,11.25,1,0,0,1.22228598595,,,,,2015_Nov_09_1524,G,facesParametric,30,59.5940114775,
./stim/MorphF6_03_orig.jpg,100,,,,,0,100,100,100,,,,,,,,,,,,,,,,,,,18.69140625,11.25,0,0,1,1.22210001945,,,,,2015_Nov_09_1524,G,facesParametric,30,59.5940114775,
./stim/MorphF8_02_orig.jpg,101,,,,,0,101,101,101,,,,,,,,,,,,,,,,,,,18.69140625,11.25,0,0,1,0.986871957779,,,,,2015_Nov_09_1524,G,facesParametric,30,59.5940114775,
./stim/MorphF6_02_orig.jpg,102,,,,,0,102,102,102,,,,,,,,,,,,,,,,,,,18.69140625,11.25,0,0,1,1.28986787796,,,,,2015_Nov_09_1524,G,facesParametric,30,59.5940114775,
./stim/MorphM7_01_orig.jpg,103,,,,,0,103,103,103,,,,,,,,,,,,,,,,,,,18.720703125,11.25,1,0,0,1.92357492447,,,,,2015_Nov_09_1524,G,facesParametric,30,59.5940114775,
./stim/MorphF10_04_orig.jpg,104,,,,,0,104,104,104,,,,,,,,,,,,,,,,,,,18.75,11.25,1,0,0,3.36758804321,,,,,2015_Nov_09_1524,G,facesParametric,30,59.5940114775,
./stim/MorphF6_04_orig.jpg,105,,,,,0,105,105,105,,,,,,,,,,,,,,,,,,,18.779296875,11.337890625,1,0,0,1.72246408463,,,,,2015_Nov_09_1524,G,facesParametric,30,59.5940114775,
./stim/MorphF7_03_orig.jpg,106,,,,,0,106,106,106,,,,,,,,,,,,,,,,,,,18.75,11.30859375,1,0,0,1.02110099792,,,,,2015_Nov_09_1524,G,facesParametric,30,59.5940114775,
./stim/MorphF8_03_orig.jpg,107,,,,,0,107,107,107,,,,,,,,,,,,,,,,,,,18.69140625,11.337890625,0,0,1,1.45721411705,,,,,2015_Nov_09_1524,G,facesParametric,30,59.5940114775,
./stim/MorphM2_00_orig.jpg,108,,,,,0,108,108,108,,,,,,,,,,,,,,,,,,,18.603515625,11.337890625,0,0,1,1.03689312935,,,,,2015_Nov_09_1524,G,facesParametric,30,59.5940114775,
./stim/MorphM5_00_orig.jpg,109,,,,,0,109,109,109,,,,,,,,,,,,,,,,,,,18.57421875,11.3671875,0,0,1,2.0435898304,,,,,2015_Nov_09_1524,G,facesParametric,30,59.5940114775,
./stim/MorphF10_07_orig.jpg,110,,,,,0,110,110,110,,,,,,,,,,,,,,,,,,,18.6328125,11.42578125,1,0,0,1.1716530323,,,,,2015_Nov_09_1524,G,facesParametric,30,59.5940114775,
./stim/MorphF1_06_orig.jpg,111,,,,,0,111,111,111,,,,,,,,,,,,,,,,,,,18.779296875,11.689453125,1,0,0,1.30474185944,,,,,2015_Nov_09_1524,G,facesParametric,30,59.5940114775,
./stim/MorphM7_10_orig.jpg,112,,,,,0,112,112,112,,,,,,,,,,,,,,,,,,,18.80859375,11.71875,1,0,0,0.786637067795,,,,,2015_Nov_09_1524,G,facesParametric,30,59.5940114775,
./stim/MorphM6_03_orig.jpg,113,,,,,0,113,113,113,,,,,,,,,,,,,,,,,,,18.8671875,11.689453125,0,0,1,1.15562200546,,,,,2015_Nov_09_1524,G,facesParametric,30,59.5940114775,
./stim/MorphM8_10_orig.jpg,114,,,,,0,114,114,114,,,,,,,,,,,,,,,,,,,18.8671875,11.689453125,1,0,0,1.0854279995,,,,,2015_Nov_09_1524,G,facesParametric,30,59.5940114775,
./stim/MorphF5_10_orig.jpg,115,,,,,0,115,115,115,,,,,,,,,,,,,,,,,,,18.80859375,11.806640625,1,0,0,1.70840597153,,,,,2015_Nov_09_1524,G,facesParametric,30,59.5940114775,
./stim/MorphM9_08_orig.jpg,116,,,,,0,116,116,116,,,,,,,,,,,,,,,,,,,18.720703125,11.8359375,1,0,0,3.50111603737,,,,,2015_Nov_09_1524,G,facesParametric,30,59.5940114775,
./stim/MorphM8_01_orig.jpg,117,,,,,0,117,117,117,,,,,,,,,,,,,,,,,,,18.720703125,11.8359375,1,0,0,1.38993191719,,,,,2015_Nov_09_1524,G,facesParametric,30,59.5940114775,
./stim/MorphF2_05_orig.jpg,118,,,,,0,118,118,118,,,,,,,,,,,,,,,,,,,18.69140625,11.865234375,1,0,0,0.667706012726,,,,,2015_Nov_09_1524,G,facesParametric,30,59.5940114775,
./stim/MorphM8_02_orig.jpg,119,,,,,0,119,119,119,,,,,,,,,,,,,,,,,,,18.662109375,11.77734375,1,0,0,0.836445093155,,,,,2015_Nov_09_1524,G,facesParametric,30,59.5940114775,
./stim/MorphF7_05_orig.jpg,120,,,,,0,120,120,120,,,,,,,,,,,,,,,,,,,18.662109375,11.8359375,1,0,0,0.819947004318,,,,,2015_Nov_09_1524,G,facesParametric,30,59.5940114775,
./stim/MorphM10_10_orig.jpg,121,,,,,0,121,121,121,,,,,,,,,,,,,,,,,,,18.6328125,11.865234375,1,0,0,0.737170934677,,,,,2015_Nov_09_1524,G,facesParametric,30,59.5940114775,
./stim/MorphF1_04_orig.jpg,122,,,,,0,122,122,122,,,,,,,,,,,,,,,,,,,18.544921875,11.8359375,0,0,1,1.26963710785,,,,,2015_Nov_09_1524,G,facesParametric,30,59.5940114775,
./stim/MorphF4_00_orig.jpg,123,,,,,0,123,123,123,,,,,,,,,,,,,,,,,,,18.515625,11.8359375,0,0,1,1.18900513649,,,,,2015_Nov_09_1524,G,facesParametric,30,59.5940114775,
./stim/MorphM6_05_orig.jpg,124,,,,,0,124,124,124,,,,,,,,,,,,,,,,,,,18.486328125,11.865234375,0,0,1,1.30561304092,,,,,2015_Nov_09_1524,G,facesParametric,30,59.5940114775,
./stim/MorphF5_07_orig.jpg,125,,,,,0,125,125,125,,,,,,,,,,,,,,,,,,,18.486328125,11.77734375,1,0,0,1.72498703003,,,,,2015_Nov_09_1524,G,facesParametric,30,59.5940114775,
./stim/MorphM8_00_orig.jpg,126,,,,,0,126,126,126,,,,,,,,,,,,,,,,,,,18.486328125,11.748046875,0,0,1,3.58306097984,,,,,2015_Nov_09_1524,G,facesParametric,30,59.5940114775,
./stim/MorphF9_07_orig.jpg,127,,,,,0,127,127,127,,,,,,,,,,,,,,,,,,,18.486328125,11.748046875,0,0,1,1.49003219604,,,,,2015_Nov_09_1524,G,facesParametric,30,59.5940114775,
./stim/MorphM5_06_orig.jpg,128,,,,,0,128,128,128,,,,,,,,,,,,,,,,,,,18.486328125,11.748046875,1,0,0,2.36209201813,,,,,2015_Nov_09_1524,G,facesParametric,30,59.5940114775,
./stim/MorphF7_02_orig.jpg,129,,,,,0,129,129,129,,,,,,,,,,,,,,,,,,,18.486328125,11.71875,1,0,0,0.853060007095,,,,,2015_Nov_09_1524,G,facesParametric,30,59.5940114775,
./stim/MorphF5_00_orig.jpg,130,,,,,0,130,130,130,,,,,,,,,,,,,,,,,,,18.45703125,11.689453125,0,0,1,1.08617591858,,,,,2015_Nov_09_1524,G,facesParametric,30,59.5940114775,
./stim/MorphF3_05_orig.jpg,131,,,,,0,131,131,131,,,,,,,,,,,,,,,,,,,18.427734375,11.66015625,0,0,1,1.28943705559,,,,,2015_Nov_09_1524,G,facesParametric,30,59.5940114775,
./stim/MorphF2_09_orig.jpg,132,,,,,0,132,132,132,,,,,,,,,,,,,,,,,,,18.427734375,11.630859375,1,0,0,0.884991884232,,,,,2015_Nov_09_1524,G,facesParametric,30,59.5940114775,
./stim/MorphM3_06_orig.jpg,133,,,,,0,133,133,133,,,,,,,,,,,,,,,,,,,18.369140625,11.54296875,1,0,0,1.42314696312,,,,,2015_Nov_09_1524,G,facesParametric,30,59.5940114775,
./stim/MorphF3_08_orig.jpg,134,,,,,0,134,134,134,,,,,,,,,,,,,,,,,,,18.310546875,11.6015625,1,0,0,0.602157115936,,,,,2015_Nov_09_1524,G,facesParametric,30,59.5940114775,
./stim/MorphM2_10_orig.jpg,135,,,,,0,135,135,135,,,,,,,,,,,,,,,,,,,18.310546875,11.6015625,1,0,0,1.11910295486,,,,,2015_Nov_09_1524,G,facesParametric,30,59.5940114775,
./stim/MorphM9_02_orig.jpg,136,,,,,0,136,136,136,,,,,,,,,,,,,,,,,,,18.369140625,11.77734375,1,0,0,0.76962685585,,,,,2015_Nov_09_1524,G,facesParametric,30,59.5940114775,
./stim/MorphM3_07_orig.jpg,137,,,,,0,137,137,137,,,,,,,,,,,,,,,,,,,18.33984375,11.8359375,1,0,0,0.819737911224,,,,,2015_Nov_09_1524,G,facesParametric,30,59.5940114775,
./stim/MorphM4_06_orig.jpg,138,,,,,0,138,138,138,,,,,,,,,,,,,,,,,,,18.33984375,11.8359375,1,0,0,0.735613822937,,,,,2015_Nov_09_1524,G,facesParametric,30,59.5940114775,
./stim/MorphM2_02_orig.jpg,139,,,,,0,139,139,139,,,,,,,,,,,,,,,,,,,18.310546875,11.806640625,1,0,0,0.73619890213,,,,,2015_Nov_09_1524,G,facesParametric,30,59.5940114775,
./stim/MorphM7_07_orig.jpg,140,,,,,0,140,140,140,,,,,,,,,,,,,,,,,,,18.33984375,11.89453125,1,0,0,0.837270021439,,,,,2015_Nov_09_1524,G,facesParametric,30,59.5940114775,
./stim/MorphM5_09_orig.jpg,141,,,,,0,141,141,141,,,,,,,,,,,,,,,,,,,18.33984375,11.89453125,1,0,0,1.15288186073,,,,,2015_Nov_09_1524,G,facesParametric,30,59.5940114775,
./stim/MorphM7_05_orig.jpg,142,,,,,0,142,142,142,,,,,,,,,,,,,,,,,,,18.310546875,11.865234375,1,0,0,0.535171985626,,,,,2015_Nov_09_1524,G,facesParametric,30,59.5940114775,
./stim/MorphF10_05_orig.jpg,143,,,,,0,143,143,143,,,,,,,,,,,,,,,,,,,18.28125,11.8359375,1,0,0,0.736129045486,,,,,2015_Nov_09_1524,G,facesParametric,30,59.5940114775,
./stim/MorphF9_00_orig.jpg,144,,,,,0,144,144,144,,,,,,,,,,,,,,,,,,,18.28125,11.8359375,0,0,1,1.23860096931,,,,,2015_Nov_09_1524,G,facesParametric,30,59.5940114775,
./stim/MorphM10_00_orig.jpg,145,,,,,0,145,145,145,,,,,,,,,,,,,,,,,,,18.22265625,11.865234375,0,0,1,1.37305903435,,,,,2015_Nov_09_1524,G,facesParametric,30,59.5940114775,
./stim/MorphM3_09_orig.jpg,146,,,,,0,146,146,146,,,,,,,,,,,,,,,,,,,18.22265625,11.865234375,1,0,0,1.05470991135,,,,,2015_Nov_09_1524,G,facesParametric,30,59.5940114775,
./stim/MorphF10_02_orig.jpg,147,,,,,0,147,147,147,,,,,,,,,,,,,,,,,,,18.134765625,11.8359375,1,0,0,0.702502012253,,,,,2015_Nov_09_1524,G,facesParametric,30,59.5940114775,
./stim/MorphF4_03_orig.jpg,148,,,,,0,148,148,148,,,,,,,,,,,,,,,,,,,18.10546875,11.923828125,0,0,1,0.901928901672,,,,,2015_Nov_09_1524,G,facesParametric,30,59.5940114775,
./stim/MorphM5_10_orig.jpg,149,,,,,0,149,149,149,,,,,,,,,,,,,,,,,,,18.076171875,11.953125,1,0,0,1.02123117447,,,,,2015_Nov_09_1524,G,facesParametric,30,59.5940114775,
./stim/MorphF6_07_orig.jpg,150,,,,,0,150,150,150,,,,,,,,,,,,,,,,,,,18.10546875,11.923828125,1,0,0,0.818104982376,,,,,2015_Nov_09_1524,G,facesParametric,30,59.5940114775,
./stim/MorphM6_00_orig.jpg,151,,,,,0,151,151,151,,,,,,,,,,,,,,,,,,,18.017578125,11.89453125,1,0,0,1.74180912971,,,,,2015_Nov_09_1524,G,facesParametric,30,59.5940114775,
./stim/MorphM7_02_orig.jpg,152,,,,,0,152,152,152,,,,,,,,,,,,,,,,,,,18.046875,11.865234375,1,0,0,0.634258985519,,,,,2015_Nov_09_1524,G,facesParametric,30,59.5940114775,
./stim/MorphF9_04_orig.jpg,153,,,,,0,153,153,153,,,,,,,,,,,,,,,,,,,18.10546875,11.8359375,1,0,0,0.76984000206,,,,,2015_Nov_09_1524,G,facesParametric,30,59.5940114775,
./stim/MorphM8_04_orig.jpg,154,,,,,0,154,154,154,,,,,,,,,,,,,,,,,,,18.076171875,11.923828125,1,0,0,0.901820898056,,,,,2015_Nov_09_1524,G,facesParametric,30,59.5940114775,
./stim/MorphF5_09_orig.jpg,155,,,,,0,155,155,155,,,,,,,,,,,,,,,,,,,18.076171875,11.923828125,1,0,0,1.35570502281,,,,,2015_Nov_09_1524,G,facesParametric,30,59.5940114775,
./stim/MorphF10_03_orig.jpg,156,,,,,0,156,156,156,,,,,,,,,,,,,,,,,,,17.98828125,11.923828125,1,0,0,1.08820414543,,,,,2015_Nov_09_1524,G,facesParametric,30,59.5940114775,
./stim/MorphF1_00_orig.jpg,157,,,,,0,157,157,157,,,,,,,,,,,,,,,,,,,17.900390625,11.865234375,1,0,0,1.03663992882,,,,,2015_Nov_09_1524,G,facesParametric,30,59.5940114775,
./stim/MorphM1_02_orig.jpg,158,,,,,0,158,158,158,,,,,,,,,,,,,,,,,,,17.900390625,11.923828125,1,0,0,1.4565038681,,,,,2015_Nov_09_1524,G,facesParametric,30,59.5940114775,
./stim/MorphM5_02_orig.jpg,159,,,,,0,159,159,159,,,,,,,,,,,,,,,,,,,17.900390625,11.89453125,1,0,0,0.819767951965,,,,,2015_Nov_09_1524,G,facesParametric,30,59.5940114775,
./stim/MorphM8_08_orig.jpg,160,,,,,0,160,160,160,,,,,,,,,,,,,,,,,,,17.9296875,11.8359375,1,0,0,0.719342947006,,,,,2015_Nov_09_1524,G,facesParametric,30,59.5940114775,
./stim/MorphF9_09_orig.jpg,161,,,,,0,161,161,161,,,,,,,,,,,,,,,,,,,17.87109375,11.89453125,1,0,0,2.02704596519,,,,,2015_Nov_09_1524,G,facesParametric,30,59.5940114775,
./stim/MorphM3_01_orig.jpg,162,,,,,0,162,162,162,,,,,,,,,,,,,,,,,,,17.87109375,11.89453125,1,0,0,0.668240070343,,,,,2015_Nov_09_1524,G,facesParametric,30,59.5940114775,
./stim/MorphM7_06_orig.jpg,163,,,,,0,163,163,163,,,,,,,,,,,,,,,,,,,17.841796875,11.923828125,1,0,0,0.635820865631,,,,,2015_Nov_09_1524,G,facesParametric,30,59.5940114775,
./stim/MorphM9_06_orig.jpg,164,,,,,0,164,164,164,,,,,,,,,,,,,,,,,,,17.841796875,11.923828125,0,0,1,1.05454301834,,,,,2015_Nov_09_1524,G,facesParametric,30,59.5940114775,
./stim/MorphM4_09_orig.jpg,165,,,,,0,165,165,165,,,,,,,,,,,,,,,,,,,17.841796875,11.923828125,1,0,0,1.84189510345,,,,,2015_Nov_09_1524,G,facesParametric,30,59.5940114775,
./stim/MorphF8_08_orig.jpg,166,,,,,0,166,166,166,,,,,,,,,,,,,,,,,,,17.783203125,11.923828125,1,0,0,1.10504388809,,,,,2015_Nov_09_1524,G,facesParametric,30,59.5940114775,
./stim/MorphM6_09_orig.jpg,167,,,,,0,167,167,167,,,,,,,,,,,,,,,,,,,17.783203125,11.953125,1,0,0,0.919143915176,,,,,2015_Nov_09_1524,G,facesParametric,30,59.5940114775,
./stim/MorphF10_06_orig.jpg,168,,,,,0,168,168,168,,,,,,,,,,,,,,,,,,,17.783203125,12.12890625,1,0,0,0.719879150391,,,,,2015_Nov_09_1524,G,facesParametric,30,59.5940114775,
./stim/MorphF8_00_orig.jpg,169,,,,,0,169,169,169,,,,,,,,,,,,,,,,,,,17.783203125,12.12890625,0,0,1,1.12169313431,,,,,2015_Nov_09_1524,G,facesParametric,30,59.5940114775,
./stim/MorphM9_09_orig.jpg,170,,,,,0,170,170,170,,,,,,,,,,,,,,,,,,,17.783203125,12.12890625,1,0,0,1.45638895035,,,,,2015_Nov_09_1524,G,facesParametric,30,59.5940114775,
./stim/MorphF1_08_orig.jpg,171,,,,,0,171,171,171,,,,,,,,,,,,,,,,,,,17.783203125,12.12890625,1,0,0,0.752735853195,,,,,2015_Nov_09_1524,G,facesParametric,30,59.5940114775,
./stim/MorphF7_01_orig.jpg,172,,,,,0,172,172,172,,,,,,,,,,,,,,,,,,,17.841796875,12.3046875,1,0,0,1.05483794212,,,,,2015_Nov_09_1524,G,facesParametric,30,59.5940114775,
./stim/MorphF6_09_orig.jpg,173,,,,,0,173,173,173,,,,,,,,,,,,,,,,,,,17.841796875,12.24609375,1,0,0,0.853515863419,,,,,2015_Nov_09_1524,G,facesParametric,30,59.5940114775,
./stim/MorphF3_09_orig.jpg,174,,,,,0,174,174,174,,,,,,,,,,,,,,,,,,,17.841796875,12.24609375,1,0,0,0.767771959305,,,,,2015_Nov_09_1524,G,facesParametric,30,59.5940114775,
./stim/MorphM4_08_orig.jpg,175,,,,,0,175,175,175,,,,,,,,,,,,,,,,,,,17.783203125,12.3046875,1,0,0,1.44005298615,,,,,2015_Nov_09_1524,G,facesParametric,30,59.5940114775,
./stim/MorphF1_03_orig.jpg,176,,,,,0,176,176,176,,,,,,,,,,,,,,,,,,,17.75390625,12.333984375,0,0,1,1.07142996788,,,,,2015_Nov_09_1524,G,facesParametric,30,59.5940114775,
./stim/MorphF10_09_orig.jpg,177,,,,,0,177,177,177,,,,,,,,,,,,,,,,,,,17.724609375,12.3046875,1,0,0,0.870429039001,,,,,2015_Nov_09_1524,G,facesParametric,30,59.5940114775,
./stim/MorphM8_05_orig.jpg,178,,,,,0,178,178,178,,,,,,,,,,,,,,,,,,,17.666015625,12.3046875,0,0,1,1.22160100937,,,,,2015_Nov_09_1524,G,facesParametric,30,59.5940114775,
./stim/MorphF2_00_orig.jpg,179,,,,,0,179,179,179,,,,,,,,,,,,,,,,,,,17.63671875,12.3046875,0,0,1,1.47349500656,,,,,2015_Nov_09_1524,G,facesParametric,30,59.5940114775,
./stim/MorphM10_01_orig.jpg,180,,,,,0,180,180,180,,,,,,,,,,,,,,,,,,,17.607421875,12.333984375,0,0,1,1.08611798286,,,,,2015_Nov_09_1524,G,facesParametric,30,59.5940114775,
./stim/MorphM2_04_orig.jpg,181,,,,,0,181,181,181,,,,,,,,,,,,,,,,,,,17.607421875,12.333984375,0,0,1,1.35493397713,,,,,2015_Nov_09_1524,G,facesParametric,30,59.5940114775,
./stim/MorphM8_06_orig.jpg,182,,,,,0,182,182,182,,,,,,,,,,,,,,,,,,,17.63671875,12.3046875,1,0,0,1.62438106537,,,,,2015_Nov_09_1524,G,facesParametric,30,59.5940114775,
./stim/MorphF9_05_orig.jpg,183,,,,,0,183,183,183,,,,,,,,,,,,,,,,,,,17.63671875,12.275390625,0,0,1,1.6742811203,,,,,2015_Nov_09_1524,G,facesParametric,30,59.5940114775,
./stim/MorphF2_10_orig.jpg,184,,,,,0,184,184,184,,,,,,,,,,,,,,,,,,,17.63671875,12.24609375,1,0,0,0.785151958466,,,,,2015_Nov_09_1524,G,facesParametric,30,59.5940114775,
./stim/MorphM9_01_orig.jpg,185,,,,,0,185,185,185,,,,,,,,,,,,,,,,,,,17.98828125,12.509765625,0,0,1,1.52362680435,,,,,2015_Nov_09_1524,G,facesParametric,30,59.5940114775,
./stim/MorphF4_10_orig.jpg,186,,,,,0,186,186,186,,,,,,,,,,,,,,,,,,,18.017578125,11.923828125,1,0,0,3.18157696724,,,,,2015_Nov_09_1524,G,facesParametric,30,59.5940114775,
./stim/MorphF3_00_orig.jpg,187,,,,,0,187,187,187,,,,,,,,,,,,,,,,,,,17.98828125,11.89453125,1,0,0,1.1888589859,,,,,2015_Nov_09_1524,G,facesParametric,30,59.5940114775,
./stim/MorphM3_00_orig.jpg,188,,,,,0,188,188,188,,,,,,,,,,,,,,,,,,,17.98828125,11.89453125,0,0,1,1.22192311287,,,,,2015_Nov_09_1524,G,facesParametric,30,59.5940114775,
./stim/MorphM6_08_orig.jpg,189,,,,,0,189,189,189,,,,,,,,,,,,,,,,,,,17.9296875,11.982421875,1,0,0,1.07167387009,,,,,2015_Nov_09_1524,G,facesParametric,30,59.5940114775,
./stim/MorphM10_03_orig.jpg,190,,,,,0,190,190,190,,,,,,,,,,,,,,,,,,,17.87109375,12.099609375,1,0,0,1.20500302315,,,,,2015_Nov_09_1524,G,facesParametric,30,59.5940114775,
./stim/MorphF4_02_orig.jpg,191,,,,,0,191,191,191,,,,,,,,,,,,,,,,,,,17.87109375,12.099609375,0,0,1,1.32270908356,,,,,2015_Nov_09_1524,G,facesParametric,30,59.5940114775,
./stim/MorphF1_05_orig.jpg,192,,,,,0,192,192,192,,,,,,,,,,,,,,,,,,,17.87109375,12.099609375,1,0,0,2.21074914932,,,,,2015_Nov_09_1524,G,facesParametric,30,59.5940114775,
./stim/MorphF7_00_orig.jpg,193,,,,,0,193,193,193,,,,,,,,,,,,,,,,,,,17.8125,12.158203125,0,0,1,1.28892707825,,,,,2015_Nov_09_1524,G,facesParametric,30,59.5940114775,
./stim/MorphM10_05_orig.jpg,194,,,,,0,194,194,194,,,,,,,,,,,,,,,,,,,17.783203125,12.1875,1,0,0,1.03638195992,,,,,2015_Nov_09_1524,G,facesParametric,30,59.5940114775,
./stim/MorphF5_08_orig.jpg,195,,,,,0,195,195,195,,,,,,,,,,,,,,,,,,,17.75390625,12.216796875,1,0,0,0.936000108719,,,,,2015_Nov_09_1524,G,facesParametric,30,59.5940114775,
./stim/MorphF6_01_orig.jpg,196,,,,,0,196,196,196,,,,,,,,,,,,,,,,,,,17.51953125,12.158203125,1,0,0,1.50708794594,,,,,2015_Nov_09_1524,G,facesParametric,30,59.5940114775,
./stim/MorphF7_08_orig.jpg,197,,,,,0,197,197,197,,,,,,,,,,,,,,,,,,,17.4609375,12.158203125,1,0,0,1.94312000275,,,,,2015_Nov_09_1524,G,facesParametric,30,59.5940114775,
./stim/MorphF1_07_orig.jpg,198,,,,,0,198,198,198,,,,,,,,,,,,,,,,,,,17.4609375,12.158203125,1,0,0,1.2725508213,,,,,2015_Nov_09_1524,G,facesParametric,30,59.5940114775,
./stim/MorphM2_09_orig.jpg,199,,,,,0,199,199,199,,,,,,,,,,,,,,,,,,,17.4609375,12.12890625,1,0,0,1.60772609711,,,,,2015_Nov_09_1524,G,facesParametric,30,59.5940114775,
./stim/MorphF7_04_orig.jpg,200,,,,,0,200,200,200,,,,,,,,,,,,,,,,,,,17.431640625,12.099609375,1,0,0,0.702956199646,,,,,2015_Nov_09_1524,G,facesParametric,30,59.5940114775,
./stim/MorphM1_09_orig.jpg,201,,,,,0,201,201,201,,,,,,,,,,,,,,,,,,,17.373046875,12.0703125,1,0,0,0.853335857391,,,,,2015_Nov_09_1524,G,facesParametric,30,59.5940114775,
./stim/MorphM4_00_orig.jpg,202,,,,,0,202,202,202,,,,,,,,,,,,,,,,,,,17.314453125,12.1875,0,0,1,1.82524204254,,,,,2015_Nov_09_1524,G,facesParametric,30,59.5940114775,
./stim/MorphM8_03_orig.jpg,203,,,,,0,203,203,203,,,,,,,,,,,,,,,,,,,17.314453125,12.1875,1,0,0,1.3046400547,,,,,2015_Nov_09_1524,G,facesParametric,30,59.5940114775,
./stim/MorphM6_01_orig.jpg,204,,,,,0,204,204,204,,,,,,,,,,,,,,,,,,,17.314453125,12.1875,0,0,1,1.22211194038,,,,,2015_Nov_09_1524,G,facesParametric,30,59.5940114775,
./stim/MorphF8_07_orig.jpg,205,,,,,0,205,205,205,,,,,,,,,,,,,,,,,,,17.314453125,12.1875,1,0,0,1.40626502037,,,,,2015_Nov_09_1524,G,facesParametric,30,59.5940114775,
./stim/MorphM3_05_orig.jpg,206,,,,,0,206,206,206,,,,,,,,,,,,,,,,,,,17.28515625,12.216796875,0,0,1,1.44000983238,,,,,2015_Nov_09_1524,G,facesParametric,30,59.5940114775,
./stim/MorphF2_01_orig.jpg,207,,,,,0,207,207,207,,,,,,,,,,,,,,,,,,,17.28515625,12.216796875,0,0,1,1.1547460556,,,,,2015_Nov_09_1524,G,facesParametric,30,59.5940114775,
./stim/MorphF3_06_orig.jpg,208,,,,,0,208,208,208,,,,,,,,,,,,,,,,,,,17.2265625,12.216796875,0,0,1,1.2886030674,,,,,2015_Nov_09_1524,G,facesParametric,30,59.5940114775,
./stim/MorphF7_07_orig.jpg,209,,,,,0,209,209,209,,,,,,,,,,,,,,,,,,,17.197265625,12.1875,0,0,1,1.70884299278,,,,,2015_Nov_09_1524,G,facesParametric,30,59.5940114775,
./stim/MorphM7_00_orig.jpg,210,,,,,0,210,210,210,,,,,,,,,,,,,,,,,,,17.197265625,12.1875,0,0,1,1.28882598877,,,,,2015_Nov_09_1524,G,facesParametric,30,59.5940114775,
./stim/MorphF4_09_orig.jpg,211,,,,,0,211,211,211,,,,,,,,,,,,,,,,,,,17.138671875,12.099609375,1,0,0,0.752732992172,,,,,2015_Nov_09_1524,G,facesParametric,30,59.5940114775,
./stim/MorphM7_03_orig.jpg,212,,,,,0,212,212,212,,,,,,,,,,,,,,,,,,,17.080078125,12.158203125,0,0,1,1.69143390656,,,,,2015_Nov_09_1524,G,facesParametric,30,59.5940114775,
./stim/MorphF9_01_orig.jpg,213,,,,,0,213,213,213,,,,,,,,,,,,,,,,,,,17.080078125,12.158203125,0,0,1,1.22064995766,,,,,2015_Nov_09_1524,G,facesParametric,30,59.5940114775,
./stim/MorphF10_01_orig.jpg,214,,,,,0,214,214,214,,,,,,,,,,,,,,,,,,,17.080078125,12.158203125,0,0,1,2.19276285172,,,,,2015_Nov_09_1524,G,facesParametric,30,59.5940114775,
./stim/MorphM10_09_orig.jpg,215,,,,,0,215,215,215,,,,,,,,,,,,,,,,,,,17.080078125,12.158203125,1,0,0,0.820081949234,,,,,2015_Nov_09_1524,G,facesParametric,30,59.5940114775,
./stim/MorphF9_08_orig.jpg,216,,,,,0,216,216,216,,,,,,,,,,,,,,,,,,,17.080078125,12.158203125,1,0,0,1.4049050808,,,,,2015_Nov_09_1524,G,facesParametric,30,59.5940114775,
./stim/MorphM7_09_orig.jpg,217,,,,,0,217,217,217,,,,,,,,,,,,,,,,,,,17.080078125,12.158203125,1,0,0,0.667958974838,,,,,2015_Nov_09_1524,G,facesParametric,30,59.5940114775,
./stim/MorphM10_04_orig.jpg,218,,,,,0,218,218,218,,,,,,,,,,,,,,,,,,,17.138671875,12.24609375,1,0,0,0.719826221466,,,,,2015_Nov_09_1524,G,facesParametric,30,59.5940114775,
./stim/MorphM6_07_orig.jpg,219,,,,,0,219,219,219,,,,,,,,,,,,,,,,,,,17.138671875,12.3046875,1,0,0,1.20524907112,,,,,2015_Nov_09_1524,G,facesParametric,30,59.5940114775,
,,,,,,,,,,,,,,,,,,,,,,,,,,,,,,,,,,return,35.7651789188,,,2015_Nov_09_1524,G,facesParametric,30,59.5940114775,
./stim/MorphM7_05_orig.jpg,0,,,,,,,,,0,0,0,0,,,,,,,,,,,,,,,8.232421875,-4.716796875,1,0,0,2.1646490097,,,,,2015_Nov_09_1524,G,facesParametric,30,59.5940114775,
./stim/MorphF3_06_orig.jpg,1,,,,,,,,,0,1,1,1,,,,,,,,,,,,,,,11.396484375,-2.373046875,0,0,1,1.77460598946,,,,,2015_Nov_09_1524,G,facesParametric,30,59.5940114775,
./stim/MorphM8_04_orig.jpg,2,,,,,,,,,0,2,2,2,,,,,,,,,,,,,,,10.986328125,-1.552734375,0,0,1,1.33887791634,,,,,2015_Nov_09_1524,G,facesParametric,30,59.5940114775,
./stim/MorphM2_04_orig.jpg,3,,,,,,,,,0,3,3,3,,,,,,,,,,,,,,,10.927734375,-1.2890625,0,0,1,1.50696492195,,,,,2015_Nov_09_1524,G,facesParametric,30,59.5940114775,
./stim/MorphM1_03_orig.jpg,4,,,,,,,,,0,4,4,4,,,,,,,,,,,,,,,10.869140625,-1.025390625,0,0,1,0.820462942123,,,,,2015_Nov_09_1524,G,facesParametric,30,59.5940114775,
./stim/MorphF7_01_orig.jpg,5,,,,,,,,,0,5,5,5,,,,,,,,,,,,,,,10.869140625,-0.791015625,1,0,0,1.11923599243,,,,,2015_Nov_09_1524,G,facesParametric,30,59.5940114775,
./stim/MorphM5_03_orig.jpg,6,,,,,,,,,0,6,6,6,,,,,,,,,,,,,,,10.869140625,-0.849609375,1,0,0,0.903264045715,,,,,2015_Nov_09_1524,G,facesParametric,30,59.5940114775,
./stim/MorphM2_01_orig.jpg,7,,,,,,,,,0,7,7,7,,,,,,,,,,,,,,,10.72265625,-0.673828125,0,0,1,1.12033295631,,,,,2015_Nov_09_1524,G,facesParametric,30,59.5940114775,
./stim/MorphF8_06_orig.jpg,8,,,,,,,,,0,8,8,8,,,,,,,,,,,,,,,10.72265625,-0.673828125,1,0,0,1.40636992455,,,,,2015_Nov_09_1524,G,facesParametric,30,59.5940114775,
./stim/MorphF6_05_orig.jpg,9,,,,,,,,,0,9,9,9,,,,,,,,,,,,,,,10.634765625,-0.76171875,1,0,0,0.869728088379,,,,,2015_Nov_09_1524,G,facesParametric,30,59.5940114775,
./stim/MorphM7_00_orig.jpg,10,,,,,,,,,0,10,10,10,,,,,,,,,,,,,,,10.60546875,-0.5859375,1,0,0,1.03787398338,,,,,2015_Nov_09_1524,G,facesParametric,30,59.5940114775,
./stim/MorphF10_10_orig.jpg,11,,,,,,,,,0,11,11,11,,,,,,,,,,,,,,,10.6640625,-0.556640625,1,0,0,0.668847799301,,,,,2015_Nov_09_1524,G,facesParametric,30,59.5940114775,
./stim/MorphF6_03_orig.jpg,12,,,,,,,,,0,12,12,12,,,,,,,,,,,,,,,10.224609375,-0.703125,1,0,0,1.13729095459,,,,,2015_Nov_09_1524,G,facesParametric,30,59.5940114775,
./stim/MorphF10_01_orig.jpg,13,,,,,,,,,0,13,13,13,,,,,,,,,,,,,,,10.1953125,-0.64453125,1,0,0,1.48882007599,,,,,2015_Nov_09_1524,G,facesParametric,30,59.5940114775,
./stim/MorphF6_04_orig.jpg,14,,,,,,,,,0,14,14,14,,,,,,,,,,,,,,,10.1953125,-0.615234375,1,0,0,0.88667178154,,,,,2015_Nov_09_1524,G,facesParametric,30,59.5940114775,
./stim/MorphM3_08_orig.jpg,15,,,,,,,,,0,15,15,15,,,,,,,,,,,,,,,10.224609375,-0.5859375,0,0,1,1.05343198776,,,,,2015_Nov_09_1524,G,facesParametric,30,59.5940114775,
./stim/MorphM8_02_orig.jpg,16,,,,,,,,,0,16,16,16,,,,,,,,,,,,,,,10.224609375,-0.5859375,0,0,1,1.75726222992,,,,,2015_Nov_09_1524,G,facesParametric,30,59.5940114775,
./stim/MorphF5_01_orig.jpg,17,,,,,,,,,0,17,17,17,,,,,,,,,,,,,,,10.224609375,-0.5859375,0,0,1,1.64150810242,,,,,2015_Nov_09_1524,G,facesParametric,30,59.5940114775,
./stim/MorphF7_00_orig.jpg,18,,,,,,,,,0,18,18,18,,,,,,,,,,,,,,,10.224609375,-0.5859375,0,0,1,1.12167596817,,,,,2015_Nov_09_1524,G,facesParametric,30,59.5940114775,
./stim/MorphM6_07_orig.jpg,19,,,,,,,,,0,19,19,19,,,,,,,,,,,,,,,10.25390625,-0.556640625,1,0,0,1.97590899467,,,,,2015_Nov_09_1524,G,facesParametric,30,59.5940114775,
./stim/MorphM9_02_orig.jpg,20,,,,,,,,,0,20,20,20,,,,,,,,,,,,,,,10.546875,-0.380859375,1,0,0,0.904045820236,,,,,2015_Nov_09_1524,G,facesParametric,30,59.5940114775,
./stim/MorphF4_05_orig.jpg,21,,,,,,,,,0,21,21,21,,,,,,,,,,,,,,,11.513671875,0.087890625,0,0,1,1.53992295265,,,,,2015_Nov_09_1524,G,facesParametric,30,59.5940114775,
./stim/MorphF2_05_orig.jpg,22,,,,,,,,,0,22,22,22,,,,,,,,,,,,,,,11.982421875,0.439453125,1,0,0,0.903667211533,,,,,2015_Nov_09_1524,G,facesParametric,30,59.5940114775,
./stim/MorphF5_03_orig.jpg,23,,,,,,,,,0,23,23,23,,,,,,,,,,,,,,,12.0703125,0.556640625,0,0,1,0.970641136169,,,,,2015_Nov_09_1524,G,facesParametric,30,59.5940114775,
./stim/MorphM2_02_orig.jpg,24,,,,,,,,,0,24,24,24,,,,,,,,,,,,,,,11.953125,0.498046875,1,0,0,1.20558714867,,,,,2015_Nov_09_1524,G,facesParametric,30,59.5940114775,
./stim/MorphF1_10_orig.jpg,25,,,,,,,,,0,25,25,25,,,,,,,,,,,,,,,12.0703125,0.791015625,0,0,1,1.74194192886,,,,,2015_Nov_09_1524,G,facesParametric,30,59.5940114775,
./stim/MorphF9_01_orig.jpg,26,,,,,,,,,0,26,26,26,,,,,,,,,,,,,,,12.0703125,0.791015625,0,0,1,1.18647408485,,,,,2015_Nov_09_1524,G,facesParametric,30,59.5940114775,
./stim/MorphM6_02_orig.jpg,27,,,,,,,,,0,27,27,27,,,,,,,,,,,,,,,12.0703125,0.791015625,0,0,1,1.22254514694,,,,,2015_Nov_09_1524,G,facesParametric,30,59.5940114775,
./stim/MorphM4_05_orig.jpg,28,,,,,,,,,0,28,28,28,,,,,,,,,,,,,,,11.953125,0.732421875,1,0,0,1.08812999725,,,,,2015_Nov_09_1524,G,facesParametric,30,59.5940114775,
./stim/MorphM10_05_orig.jpg,29,,,,,,,,,0,29,29,29,,,,,,,,,,,,,,,12.1875,0.76171875,1,0,0,0.652557849884,,,,,2015_Nov_09_1524,G,facesParametric,30,59.5940114775,
./stim/MorphM5_00_orig.jpg,30,,,,,,,,,0,30,30,30,,,,,,,,,,,,,,,12.1875,0.703125,1,0,0,0.700722932816,,,,,2015_Nov_09_1524,G,facesParametric,30,59.5940114775,
./stim/MorphM9_08_orig.jpg,31,,,,,,,,,0,31,31,31,,,,,,,,,,,,,,,12.0703125,0.673828125,1,0,0,0.951716899872,,,,,2015_Nov_09_1524,G,facesParametric,30,59.5940114775,
./stim/MorphM1_00_orig.jpg,32,,,,,,,,,0,32,32,32,,,,,,,,,,,,,,,12.216796875,0.87890625,1,0,0,0.936386823654,,,,,2015_Nov_09_1524,G,facesParametric,30,59.5940114775,
./stim/MorphF5_09_orig.jpg,33,,,,,,,,,0,33,33,33,,,,,,,,,,,,,,,12.451171875,1.0546875,1,0,0,0.970568180084,,,,,2015_Nov_09_1524,G,facesParametric,30,59.5940114775,
./stim/MorphF4_07_orig.jpg,34,,,,,,,,,0,34,34,34,,,,,,,,,,,,,,,12.59765625,1.0546875,1,0,0,0.953980922699,,,,,2015_Nov_09_1524,G,facesParametric,30,59.5940114775,
./stim/MorphF5_00_orig.jpg,35,,,,,,,,,0,35,35,35,,,,,,,,,,,,,,,12.919921875,1.2890625,0,0,1,1.27268815041,,,,,2015_Nov_09_1524,G,facesParametric,30,59.5940114775,
./stim/MorphM7_02_orig.jpg,36,,,,,,,,,0,36,36,36,,,,,,,,,,,,,,,13.18359375,1.318359375,1,0,0,0.735751152039,,,,,2015_Nov_09_1524,G,facesParametric,30,59.5940114775,
./stim/MorphM2_10_orig.jpg,37,,,,,,,,,0,37,37,37,,,,,,,,,,,,,,,13.330078125,1.318359375,1,0,0,0.784250974655,,,,,2015_Nov_09_1524,G,facesParametric,30,59.5940114775,
./stim/MorphM9_06_orig.jpg,38,,,,,,,,,0,38,38,38,,,,,,,,,,,,,,,13.125,1.259765625,1,0,0,0.818520069122,,,,,2015_Nov_09_1524,G,facesParametric,30,59.5940114775,
./stim/MorphF9_00_orig.jpg,39,,,,,,,,,0,39,39,39,,,,,,,,,,,,,,,13.359375,1.494140625,0,0,1,0.903450965881,,,,,2015_Nov_09_1524,G,facesParametric,30,59.5940114775,
./stim/MorphM1_10_orig.jpg,40,,,,,,,,,0,40,40,40,,,,,,,,,,,,,,,13.447265625,1.494140625,1,0,0,0.987145185471,,,,,2015_Nov_09_1524,G,facesParametric,30,59.5940114775,
./stim/MorphM7_09_orig.jpg,41,,,,,,,,,0,41,41,41,,,,,,,,,,,,,,,13.76953125,1.58203125,1,0,0,0.702996015549,,,,,2015_Nov_09_1524,G,facesParametric,30,59.5940114775,
./stim/MorphM9_00_orig.jpg,42,,,,,,,,,0,42,42,42,,,,,,,,,,,,,,,13.828125,1.58203125,1,0,0,2.16023087502,,,,,2015_Nov_09_1524,G,facesParametric,30,59.5940114775,
./stim/MorphM3_04_orig.jpg,43,,,,,,,,,0,43,43,43,,,,,,,,,,,,,,,14.033203125,1.640625,0,0,1,0.937360048294,,,,,2015_Nov_09_1524,G,facesParametric,30,59.5940114775,
./stim/MorphF5_05_orig.jpg,44,,,,,,,,,0,44,44,44,,,,,,,,,,,,,,,14.033203125,1.640625,0,0,1,1.20410990715,,,,,2015_Nov_09_1524,G,facesParametric,30,59.5940114775,
./stim/MorphM8_01_orig.jpg,45,,,,,,,,,0,45,45,45,,,,,,,,,,,,,,,14.0625,1.669921875,0,0,1,1.42327213287,,,,,2015_Nov_09_1524,G,facesParametric,30,59.5940114775,
./stim/MorphF8_00_orig.jpg,46,,,,,,,,,0,46,46,46,,,,,,,,,,,,,,,14.0625,1.669921875,0,0,1,0.837667942047,,,,,2015_Nov_09_1524,G,facesParametric,30,59.5940114775,
./stim/MorphM6_03_orig.jpg,47,,,,,,,,,0,47,47,47,,,,,,,,,,,,,,,14.091796875,1.69921875,1,0,0,2.0757598877,,,,,2015_Nov_09_1524,G,facesParametric,30,59.5940114775,
./stim/MorphF3_08_orig.jpg,48,,,,,,,,,0,48,48,48,,,,,,,,,,,,,,,14.091796875,1.69921875,0,0,1,1.18878889084,,,,,2015_Nov_09_1524,G,facesParametric,30,59.5940114775,
./stim/MorphF9_10_orig.jpg,49,,,,,,,,,0,49,49,49,,,,,,,,,,,,,,,14.296875,1.875,1,0,0,1.17190885544,,,,,2015_Nov_09_1524,G,facesParametric,30,59.5940114775,
./stim/MorphF5_04_orig.jpg,50,,,,,,,,,0,50,50,50,,,,,,,,,,,,,,,14.35546875,1.845703125,0,0,1,0.820313930511,,,,,2015_Nov_09_1524,G,facesParametric,30,59.5940114775,
./stim/MorphF9_02_orig.jpg,51,,,,,,,,,0,51,51,51,,,,,,,,,,,,,,,14.47265625,1.904296875,1,0,0,1.43839478493,,,,,2015_Nov_09_1524,G,facesParametric,30,59.5940114775,
./stim/MorphF4_10_orig.jpg,52,,,,,,,,,0,52,52,52,,,,,,,,,,,,,,,14.58984375,1.962890625,1,0,0,1.08831000328,,,,,2015_Nov_09_1524,G,facesParametric,30,59.5940114775,
./stim/MorphF6_09_orig.jpg,53,,,,,,,,,0,53,53,53,,,,,,,,,,,,,,,14.58984375,1.962890625,1,0,0,1.35594415665,,,,,2015_Nov_09_1524,G,facesParametric,30,59.5940114775,
./stim/MorphF9_06_orig.jpg,54,,,,,,,,,0,54,54,54,,,,,,,,,,,,,,,15.849609375,1.962890625,0,0,1,1.40603017807,,,,,2015_Nov_09_1524,G,facesParametric,30,59.5940114775,
./stim/MorphF2_07_orig.jpg,55,,,,,,,,,0,55,55,55,,,,,,,,,,,,,,,20.361328125,-0.205078125,1,0,0,0.718688011169,,,,,2015_Nov_09_1524,G,facesParametric,30,59.5940114775,
./stim/MorphF1_06_orig.jpg,56,,,,,,,,,0,56,56,56,,,,,,,,,,,,,,,20.068359375,-3.45703125,1,0,0,1.13599300385,,,,,2015_Nov_09_1524,G,facesParametric,30,59.5940114775,
./stim/MorphM1_04_orig.jpg,57,,,,,,,,,0,57,57,57,,,,,,,,,,,,,,,20.80078125,-3.427734375,1,0,0,0.634749889374,,,,,2015_Nov_09_1524,G,facesParametric,30,59.5940114775,
./stim/MorphM8_03_orig.jpg,58,,,,,,,,,0,58,58,58,,,,,,,,,,,,,,,23.408203125,-3.427734375,1,0,0,1.28909993172,,,,,2015_Nov_09_1524,G,facesParametric,30,59.5940114775,
./stim/MorphF4_04_orig.jpg,59,,,,,,,,,0,59,59,59,,,,,,,,,,,,,,,23.408203125,-3.427734375,0,0,1,1.38977408409,,,,,2015_Nov_09_1524,G,facesParametric,30,59.5940114775,
./stim/MorphM3_10_orig.jpg,60,,,,,,,,,0,60,60,60,,,,,,,,,,,,,,,23.408203125,-3.427734375,0,0,1,0.937292098999,,,,,2015_Nov_09_1524,G,facesParametric,30,59.5940114775,
./stim/MorphM4_01_orig.jpg,61,,,,,,,,,0,61,61,61,,,,,,,,,,,,,,,23.408203125,-3.369140625,1,0,0,1.23927402496,,,,,2015_Nov_09_1524,G,facesParametric,30,59.5940114775,
./stim/MorphF5_08_orig.jpg,62,,,,,,,,,0,62,62,62,,,,,,,,,,,,,,,23.408203125,-3.33984375,1,0,0,1.0043399334,,,,,2015_Nov_09_1524,G,facesParametric,30,59.5940114775,
./stim/MorphM2_08_orig.jpg,63,,,,,,,,,0,63,63,63,,,,,,,,,,,,,,,23.408203125,-3.310546875,1,0,0,1.79173898697,,,,,2015_Nov_09_1524,G,facesParametric,30,59.5940114775,
./stim/MorphF2_01_orig.jpg,64,,,,,,,,,0,64,64,64,,,,,,,,,,,,,,,23.408203125,-3.310546875,1,0,0,1.72330999374,,,,,2015_Nov_09_1524,G,facesParametric,30,59.5940114775,
./stim/MorphF1_09_orig.jpg,65,,,,,,,,,0,65,65,65,,,,,,,,,,,,,,,23.408203125,-3.310546875,1,0,0,1.05448913574,,,,,2015_Nov_09_1524,G,facesParametric,30,59.5940114775,
./stim/MorphM7_10_orig.jpg,66,,,,,,,,,0,66,66,66,,,,,,,,,,,,,,,23.408203125,-3.310546875,1,0,0,0.635858058929,,,,,2015_Nov_09_1524,G,facesParametric,30,59.5940114775,
./stim/MorphF3_01_orig.jpg,67,,,,,,,,,0,67,67,67,,,,,,,,,,,,,,,23.408203125,-3.22265625,0,0,1,0.903604984283,,,,,2015_Nov_09_1524,G,facesParametric,30,59.5940114775,
./stim/MorphM6_01_orig.jpg,68,,,,,,,,,0,68,68,68,,,,,,,,,,,,,,,23.408203125,-3.22265625,0,0,1,1.33878207207,,,,,2015_Nov_09_1524,G,facesParametric,30,59.5940114775,
./stim/MorphF7_03_orig.jpg,69,,,,,,,,,0,69,69,69,,,,,,,,,,,,,,,23.408203125,-3.22265625,1,0,0,0.869615077972,,,,,2015_Nov_09_1524,G,facesParametric,30,59.5940114775,
./stim/MorphF10_06_orig.jpg,70,,,,,,,,,0,70,70,70,,,,,,,,,,,,,,,23.408203125,-3.22265625,1,0,0,0.985810995102,,,,,2015_Nov_09_1524,G,facesParametric,30,59.5940114775,
./stim/MorphM4_08_orig.jpg,71,,,,,,,,,0,71,71,71,,,,,,,,,,,,,,,23.408203125,-3.251953125,1,0,0,0.753340959549,,,,,2015_Nov_09_1524,G,facesParametric,30,59.5940114775,
./stim/MorphM8_06_orig.jpg,72,,,,,,,,,0,72,72,72,,,,,,,,,,,,,,,23.408203125,-3.251953125,0,0,1,1.45584511757,,,,,2015_Nov_09_1524,G,facesParametric,30,59.5940114775,
./stim/MorphM7_03_orig.jpg,73,,,,,,,,,0,73,73,73,,,,,,,,,,,,,,,23.408203125,-3.193359375,1,0,0,0.904058933258,,,,,2015_Nov_09_1524,G,facesParametric,30,59.5940114775,
./stim/MorphM2_07_orig.jpg,74,,,,,,,,,0,74,74,74,,,,,,,,,,,,,,,23.408203125,-3.22265625,1,0,0,1.12149810791,,,,,2015_Nov_09_1524,G,facesParametric,30,59.5940114775,
./stim/MorphF10_08_orig.jpg,75,,,,,,,,,0,75,75,75,,,,,,,,,,,,,,,23.408203125,-3.22265625,1,0,0,0.853610992432,,,,,2015_Nov_09_1524,G,facesParametric,30,59.5940114775,
./stim/MorphM7_04_orig.jpg,76,,,,,,,,,0,76,76,76,,,,,,,,,,,,,,,23.408203125,-3.193359375,1,0,0,0.701563119888,,,,,2015_Nov_09_1524,G,facesParametric,30,59.5940114775,
./stim/MorphM3_06_orig.jpg,77,,,,,,,,,0,77,77,77,,,,,,,,,,,,,,,23.408203125,-3.193359375,0,0,1,1.03594017029,,,,,2015_Nov_09_1524,G,facesParametric,30,59.5940114775,
./stim/MorphM5_04_orig.jpg,78,,,,,,,,,0,78,78,78,,,,,,,,,,,,,,,23.408203125,-3.1640625,1,0,0,1.79213118553,,,,,2015_Nov_09_1524,G,facesParametric,30,59.5940114775,
./stim/MorphM3_05_orig.jpg,79,,,,,,,,,0,79,79,79,,,,,,,,,,,,,,,23.408203125,-3.10546875,0,0,1,1.1697177887,,,,,2015_Nov_09_1524,G,facesParametric,30,59.5940114775,
./stim/MorphM7_08_orig.jpg,80,,,,,,,,,0,80,80,80,,,,,,,,,,,,,,,23.408203125,-3.076171875,1,0,0,0.803436994553,,,,,2015_Nov_09_1524,G,facesParametric,30,59.5940114775,
./stim/MorphF6_00_orig.jpg,81,,,,,,,,,0,81,81,81,,,,,,,,,,,,,,,23.408203125,-3.076171875,0,0,1,1.08804607391,,,,,2015_Nov_09_1524,G,facesParametric,30,59.5940114775,
./stim/MorphM8_07_orig.jpg,82,,,,,,,,,0,82,82,82,,,,,,,,,,,,,,,23.408203125,-2.98828125,0,0,1,1.23792314529,,,,,2015_Nov_09_1524,G,facesParametric,30,59.5940114775,
./stim/MorphF6_07_orig.jpg,83,,,,,,,,,0,83,83,83,,,,,,,,,,,,,,,23.408203125,-2.98828125,1,0,0,1.42252206802,,,,,2015_Nov_09_1524,G,facesParametric,30,59.5940114775,
./stim/MorphF4_01_orig.jpg,84,,,,,,,,,0,84,84,84,,,,,,,,,,,,,,,23.408203125,-2.98828125,0,0,1,0.851392030716,,,,,2015_Nov_09_1524,G,facesParametric,30,59.5940114775,
./stim/MorphF10_03_orig.jpg,85,,,,,,,,,0,85,85,85,,,,,,,,,,,,,,,23.408203125,-2.98828125,0,0,1,1.02125096321,,,,,2015_Nov_09_1524,G,facesParametric,30,59.5940114775,
./stim/MorphF3_00_orig.jpg,86,,,,,,,,,0,86,86,86,,,,,,,,,,,,,,,23.408203125,-2.98828125,0,0,1,0.953936100006,,,,,2015_Nov_09_1524,G,facesParametric,30,59.5940114775,
./stim/MorphM4_04_orig.jpg,87,,,,,,,,,0,87,87,87,,,,,,,,,,,,,,,23.408203125,-2.98828125,1,0,0,1.27216696739,,,,,2015_Nov_09_1524,G,facesParametric,30,59.5940114775,
./stim/MorphF4_09_orig.jpg,88,,,,,,,,,0,88,88,88,,,,,,,,,,,,,,,23.408203125,-2.98828125,1,0,0,0.920646190643,,,,,2015_Nov_09_1524,G,facesParametric,30,59.5940114775,
./stim/MorphM3_09_orig.jpg,89,,,,,,,,,0,89,89,89,,,,,,,,,,,,,,,23.408203125,-2.958984375,1,0,0,1.38787603378,,,,,2015_Nov_09_1524,G,facesParametric,30,59.5940114775,
./stim/MorphM8_05_orig.jpg,90,,,,,,,,,0,90,90,90,,,,,,,,,,,,,,,23.408203125,-2.958984375,1,0,0,2.62998986244,,,,,2015_Nov_09_1524,G,facesParametric,30,59.5940114775,
./stim/MorphM6_09_orig.jpg,91,,,,,,,,,0,91,91,91,,,,,,,,,,,,,,,23.408203125,-2.958984375,1,0,0,0.853479146957,,,,,2015_Nov_09_1524,G,facesParametric,30,59.5940114775,
./stim/MorphM5_07_orig.jpg,92,,,,,,,,,0,92,92,92,,,,,,,,,,,,,,,23.408203125,-2.958984375,1,0,0,0.802901983261,,,,,2015_Nov_09_1524,G,facesParametric,30,59.5940114775,
./stim/MorphM4_06_orig.jpg,93,,,,,,,,,0,93,93,93,,,,,,,,,,,,,,,23.408203125,-2.9296875,1,0,0,1.0547618866,,,,,2015_Nov_09_1524,G,facesParametric,30,59.5940114775,
./stim/MorphF7_08_orig.jpg,94,,,,,,,,,0,94,94,94,,,,,,,,,,,,,,,23.408203125,-2.9296875,1,0,0,0.903621912003,,,,,2015_Nov_09_1524,G,facesParametric,30,59.5940114775,
./stim/MorphF1_02_orig.jpg,95,,,,,,,,,0,95,95,95,,,,,,,,,,,,,,,23.408203125,-2.9296875,1,0,0,1.07177686691,,,,,2015_Nov_09_1524,G,facesParametric,30,59.5940114775,
./stim/MorphF9_08_orig.jpg,96,,,,,,,,,0,96,96,96,,,,,,,,,,,,,,,23.408203125,-2.9296875,1,0,0,1.01973295212,,,,,2015_Nov_09_1524,G,facesParametric,30,59.5940114775,
./stim/MorphF8_02_orig.jpg,97,,,,,,,,,0,97,97,97,,,,,,,,,,,,,,,23.408203125,-2.9296875,0,0,1,0.819849014282,,,,,2015_Nov_09_1524,G,facesParametric,30,59.5940114775,
./stim/MorphF9_03_orig.jpg,98,,,,,,,,,0,98,98,98,,,,,,,,,,,,,,,23.408203125,-2.9296875,0,0,1,2.127202034,,,,,2015_Nov_09_1524,G,facesParametric,30,59.5940114775,
./stim/MorphM10_10_orig.jpg,99,,,,,,,,,0,99,99,99,,,,,,,,,,,,,,,23.408203125,-2.9296875,1,0,0,0.93775510788,,,,,2015_Nov_09_1524,G,facesParametric,30,59.5940114775,
./stim/MorphF7_04_orig.jpg,100,,,,,,,,,0,100,100,100,,,,,,,,,,,,,,,23.408203125,-2.841796875,0,0,1,1.42333602905,,,,,2015_Nov_09_1524,G,facesParametric,30,59.5940114775,
./stim/MorphF4_00_orig.jpg,101,,,,,,,,,0,101,101,101,,,,,,,,,,,,,,,23.408203125,-2.841796875,0,0,1,2.84765601158,,,,,2015_Nov_09_1524,G,facesParametric,30,59.5940114775,
./stim/MorphM1_07_orig.jpg,102,,,,,,,,,0,102,102,102,,,,,,,,,,,,,,,23.408203125,-2.8125,1,0,0,1.30507707596,,,,,2015_Nov_09_1524,G,facesParametric,30,59.5940114775,
./stim/MorphF6_08_orig.jpg,103,,,,,,,,,0,103,103,103,,,,,,,,,,,,,,,23.408203125,-2.8125,1,0,0,0.921262025833,,,,,2015_Nov_09_1524,G,facesParametric,30,59.5940114775,
./stim/MorphM8_00_orig.jpg,104,,,,,,,,,0,104,104,104,,,,,,,,,,,,,,,23.408203125,-2.783203125,0,0,1,1.10265207291,,,,,2015_Nov_09_1524,G,facesParametric,30,59.5940114775,
./stim/MorphF3_10_orig.jpg,105,,,,,,,,,0,105,105,105,,,,,,,,,,,,,,,23.408203125,-2.8125,1,0,0,0.769839048386,,,,,2015_Nov_09_1524,G,facesParametric,30,59.5940114775,
./stim/MorphF5_07_orig.jpg,106,,,,,,,,,0,106,106,106,,,,,,,,,,,,,,,23.408203125,-2.75390625,1,0,0,0.919873952866,,,,,2015_Nov_09_1524,G,facesParametric,30,59.5940114775,
./stim/MorphM3_02_orig.jpg,107,,,,,,,,,0,107,107,107,,,,,,,,,,,,,,,23.408203125,-2.75390625,0,0,1,1.2213909626,,,,,2015_Nov_09_1524,G,facesParametric,30,59.5940114775,
./stim/MorphF10_04_orig.jpg,108,,,,,,,,,0,108,108,108,,,,,,,,,,,,,,,23.408203125,-2.75390625,1,0,0,0.736358880997,,,,,2015_Nov_09_1524,G,facesParametric,30,59.5940114775,
./stim/MorphM3_07_orig.jpg,109,,,,,,,,,0,109,109,109,,,,,,,,,,,,,,,23.408203125,-2.75390625,0,0,1,1.80736112595,,,,,2015_Nov_09_1524,G,facesParametric,30,59.5940114775,
./stim/MorphF9_07_orig.jpg,110,,,,,,,,,0,110,110,110,,,,,,,,,,,,,,,23.408203125,-2.75390625,0,0,1,1.42336297035,,,,,2015_Nov_09_1524,G,facesParametric,30,59.5940114775,
./stim/MorphF10_07_orig.jpg,111,,,,,,,,,0,111,111,111,,,,,,,,,,,,,,,23.408203125,-2.75390625,1,0,0,1.35710096359,,,,,2015_Nov_09_1524,G,facesParametric,30,59.5940114775,
./stim/MorphM8_10_orig.jpg,112,,,,,,,,,0,112,112,112,,,,,,,,,,,,,,,23.408203125,-2.75390625,1,0,0,2.27733111382,,,,,2015_Nov_09_1524,G,facesParametric,30,59.5940114775,
./stim/MorphF2_08_orig.jpg,113,,,,,,,,,0,113,113,113,,,,,,,,,,,,,,,23.408203125,-2.666015625,1,0,0,0.969573020935,,,,,2015_Nov_09_1524,G,facesParametric,30,59.5940114775,
./stim/MorphF8_09_orig.jpg,114,,,,,,,,,0,114,114,114,,,,,,,,,,,,,,,23.408203125,-2.666015625,1,0,0,1.13744521141,,,,,2015_Nov_09_1524,G,facesParametric,30,59.5940114775,
./stim/MorphM9_01_orig.jpg,115,,,,,,,,,0,115,115,115,,,,,,,,,,,,,,,23.408203125,-2.666015625,0,0,1,1.28777718544,,,,,2015_Nov_09_1524,G,facesParametric,30,59.5940114775,
./stim/MorphF4_03_orig.jpg,116,,,,,,,,,0,116,116,116,,,,,,,,,,,,,,,23.408203125,-2.607421875,0,0,1,2.11031603813,,,,,2015_Nov_09_1524,G,facesParametric,30,59.5940114775,
./stim/MorphF3_02_orig.jpg,117,,,,,,,,,0,117,117,117,,,,,,,,,,,,,,,23.408203125,-2.607421875,0,0,1,1.1884059906,,,,,2015_Nov_09_1524,G,facesParametric,30,59.5940114775,
./stim/MorphF1_07_orig.jpg,118,,,,,,,,,0,118,118,118,,,,,,,,,,,,,,,23.408203125,-2.548828125,1,0,0,1.32349896431,,,,,2015_Nov_09_1524,G,facesParametric,30,59.5940114775,
./stim/MorphM8_09_orig.jpg,119,,,,,,,,,0,119,119,119,,,,,,,,,,,,,,,23.408203125,-2.548828125,1,0,0,1.01954913139,,,,,2015_Nov_09_1524,G,facesParametric,30,59.5940114775,
./stim/MorphF1_04_orig.jpg,120,,,,,,,,,0,120,120,120,,,,,,,,,,,,,,,23.408203125,-2.548828125,0,0,1,1.37419390678,,,,,2015_Nov_09_1524,G,facesParametric,30,59.5940114775,
./stim/MorphM5_02_orig.jpg,121,,,,,,,,,0,121,121,121,,,,,,,,,,,,,,,23.408203125,-2.548828125,1,0,0,1.27140307426,,,,,2015_Nov_09_1524,G,facesParametric,30,59.5940114775,
./stim/MorphF3_05_orig.jpg,122,,,,,,,,,0,122,122,122,,,,,,,,,,,,,,,23.408203125,-2.548828125,0,0,1,2.21115899086,,,,,2015_Nov_09_1524,G,facesParametric,30,59.5940114775,
./stim/MorphM5_06_orig.jpg,123,,,,,,,,,0,123,123,123,,,,,,,,,,,,,,,23.408203125,-2.548828125,1,0,0,0.769516944885,,,,,2015_Nov_09_1524,G,facesParametric,30,59.5940114775,
./stim/MorphM3_03_orig.jpg,124,,,,,,,,,0,124,124,124,,,,,,,,,,,,,,,23.408203125,-2.548828125,0,0,1,1.60762000084,,,,,2015_Nov_09_1524,G,facesParametric,30,59.5940114775,
./stim/MorphF5_02_orig.jpg,125,,,,,,,,,0,125,125,125,,,,,,,,,,,,,,,23.408203125,-2.548828125,0,0,1,0.920701980591,,,,,2015_Nov_09_1524,G,facesParametric,30,59.5940114775,
./stim/MorphF2_00_orig.jpg,126,,,,,,,,,0,126,126,126,,,,,,,,,,,,,,,23.408203125,-2.51953125,0,0,1,1.55570197105,,,,,2015_Nov_09_1524,G,facesParametric,30,59.5940114775,
./stim/MorphM2_03_orig.jpg,127,,,,,,,,,0,127,127,127,,,,,,,,,,,,,,,23.408203125,-2.51953125,0,0,1,1.9597671032,,,,,2015_Nov_09_1524,G,facesParametric,30,59.5940114775,
./stim/MorphM9_09_orig.jpg,128,,,,,,,,,0,128,128,128,,,,,,,,,,,,,,,23.408203125,-2.666015625,1,0,0,0.935989141464,,,,,2015_Nov_09_1524,G,facesParametric,30,59.5940114775,
./stim/MorphM6_00_orig.jpg,129,,,,,,,,,0,129,129,129,,,,,,,,,,,,,,,23.408203125,-2.75390625,0,0,1,1.49014806747,,,,,2015_Nov_09_1524,G,facesParametric,30,59.5940114775,
./stim/MorphM4_02_orig.jpg,130,,,,,,,,,0,130,130,130,,,,,,,,,,,,,,,23.408203125,-2.666015625,0,0,1,1.64098286629,,,,,2015_Nov_09_1524,G,facesParametric,30,59.5940114775,
./stim/MorphM9_10_orig.jpg,131,,,,,,,,,0,131,131,131,,,,,,,,,,,,,,,23.408203125,-2.63671875,1,0,0,1.67280912399,,,,,2015_Nov_09_1524,G,facesParametric,30,59.5940114775,
./stim/MorphF7_09_orig.jpg,132,,,,,,,,,0,132,132,132,,,,,,,,,,,,,,,23.408203125,-2.63671875,1,0,0,0.667912960052,,,,,2015_Nov_09_1524,G,facesParametric,30,59.5940114775,
./stim/MorphF2_10_orig.jpg,133,,,,,,,,,0,133,133,133,,,,,,,,,,,,,,,23.408203125,-2.607421875,1,0,0,0.820178031921,,,,,2015_Nov_09_1524,G,facesParametric,30,59.5940114775,
./stim/MorphM7_07_orig.jpg,134,,,,,,,,,0,134,134,134,,,,,,,,,,,,,,,23.408203125,-2.63671875,1,0,0,0.684516906738,,,,,2015_Nov_09_1524,G,facesParametric,30,59.5940114775,
./stim/MorphM1_01_orig.jpg,135,,,,,,,,,0,135,135,135,,,,,,,,,,,,,,,23.115234375,-2.490234375,1,0,0,0.970809936523,,,,,2015_Nov_09_1524,G,facesParametric,30,59.5940114775,
./stim/MorphM6_08_orig.jpg,136,,,,,,,,,0,136,136,136,,,,,,,,,,,,,,,23.173828125,-2.578125,1,0,0,1.18886899948,,,,,2015_Nov_09_1524,G,facesParametric,30,59.5940114775,
./stim/MorphM1_09_orig.jpg,137,,,,,,,,,0,137,137,137,,,,,,,,,,,,,,,23.173828125,-2.578125,1,0,0,0.985453128815,,,,,2015_Nov_09_1524,G,facesParametric,30,59.5940114775,
./stim/MorphF4_06_orig.jpg,138,,,,,,,,,0,138,138,138,,,,,,,,,,,,,,,23.291015625,-2.607421875,1,0,0,1.33950901031,,,,,2015_Nov_09_1524,G,facesParametric,30,59.5940114775,
./stim/MorphM4_07_orig.jpg,139,,,,,,,,,0,139,139,139,,,,,,,,,,,,,,,23.349609375,-2.548828125,1,0,0,1.18839502335,,,,,2015_Nov_09_1524,G,facesParametric,30,59.5940114775,
./stim/MorphF8_03_orig.jpg,140,,,,,,,,,0,140,140,140,,,,,,,,,,,,,,,23.349609375,-2.548828125,0,0,1,1.55525612831,,,,,2015_Nov_09_1524,G,facesParametric,30,59.5940114775,
./stim/MorphF7_10_orig.jpg,141,,,,,,,,,0,141,141,141,,,,,,,,,,,,,,,23.3203125,-2.51953125,1,0,0,0.770188093185,,,,,2015_Nov_09_1524,G,facesParametric,30,59.5940114775,
./stim/MorphM2_06_orig.jpg,142,,,,,,,,,0,142,142,142,,,,,,,,,,,,,,,23.3203125,-2.51953125,0,0,1,1.25550103188,,,,,2015_Nov_09_1524,G,facesParametric,30,59.5940114775,
./stim/MorphF6_01_orig.jpg,143,,,,,,,,,0,143,143,143,,,,,,,,,,,,,,,23.3203125,-2.51953125,1,0,0,0.786187171936,,,,,2015_Nov_09_1524,G,facesParametric,30,59.5940114775,
./stim/MorphF2_03_orig.jpg,144,,,,,,,,,0,144,144,144,,,,,,,,,,,,,,,23.37890625,-2.4609375,0,0,1,2.1106710434,,,,,2015_Nov_09_1524,G,facesParametric,30,59.5940114775,
./stim/MorphF8_04_orig.jpg,145,,,,,,,,,0,145,145,145,,,,,,,,,,,,,,,23.408203125,-2.431640625,0,0,1,1.37333083153,,,,,2015_Nov_09_1524,G,facesParametric,30,59.5940114775,
./stim/MorphM9_04_orig.jpg,146,,,,,,,,,0,146,146,146,,,,,,,,,,,,,,,23.408203125,-2.431640625,0,0,1,1.02079820633,,,,,2015_Nov_09_1524,G,facesParametric,30,59.5940114775,
./stim/MorphF5_06_orig.jpg,147,,,,,,,,,0,147,147,147,,,,,,,,,,,,,,,23.408203125,-2.431640625,0,0,1,1.74106693268,,,,,2015_Nov_09_1524,G,facesParametric,30,59.5940114775,
./stim/MorphF9_05_orig.jpg,148,,,,,,,,,0,148,148,148,,,,,,,,,,,,,,,23.408203125,-2.431640625,0,0,1,1.18909883499,,,,,2015_Nov_09_1524,G,facesParametric,30,59.5940114775,
./stim/MorphF5_10_orig.jpg,149,,,,,,,,,0,149,149,149,,,,,,,,,,,,,,,23.408203125,-2.431640625,1,0,0,1.69009304047,,,,,2015_Nov_09_1524,G,facesParametric,30,59.5940114775,
./stim/MorphM7_06_orig.jpg,150,,,,,,,,,0,150,150,150,,,,,,,,,,,,,,,23.408203125,-2.8125,1,0,0,0.834249973297,,,,,2015_Nov_09_1524,G,facesParametric,30,59.5940114775,
./stim/MorphM2_05_orig.jpg,151,,,,,,,,,0,151,151,151,,,,,,,,,,,,,,,23.408203125,-2.6953125,0,0,1,1.08829903603,,,,,2015_Nov_09_1524,G,facesParametric,30,59.5940114775,
./stim/MorphF10_05_orig.jpg,152,,,,,,,,,0,152,152,152,,,,,,,,,,,,,,,23.408203125,-2.6953125,1,0,0,0.718127012253,,,,,2015_Nov_09_1524,G,facesParametric,30,59.5940114775,
./stim/MorphM1_08_orig.jpg,153,,,,,,,,,0,153,153,153,,,,,,,,,,,,,,,23.408203125,-2.666015625,1,0,0,0.901527881622,,,,,2015_Nov_09_1524,G,facesParametric,30,59.5940114775,
./stim/MorphF4_02_orig.jpg,154,,,,,,,,,0,154,154,154,,,,,,,,,,,,,,,23.408203125,-2.63671875,0,0,1,0.887067079544,,,,,2015_Nov_09_1524,G,facesParametric,30,59.5940114775,
./stim/MorphF2_09_orig.jpg,155,,,,,,,,,0,155,155,155,,,,,,,,,,,,,,,23.408203125,-2.548828125,1,0,0,0.970739126205,,,,,2015_Nov_09_1524,G,facesParametric,30,59.5940114775,
./stim/MorphM5_01_orig.jpg,156,,,,,,,,,0,156,156,156,,,,,,,,,,,,,,,23.408203125,-2.548828125,1,0,0,0.73624420166,,,,,2015_Nov_09_1524,G,facesParametric,30,59.5940114775,
./stim/MorphM10_02_orig.jpg,157,,,,,,,,,0,157,157,157,,,,,,,,,,,,,,,23.408203125,-2.51953125,0,0,1,2.34446501732,,,,,2015_Nov_09_1524,G,facesParametric,30,59.5940114775,
./stim/MorphF1_03_orig.jpg,158,,,,,,,,,0,158,158,158,,,,,,,,,,,,,,,23.408203125,-2.490234375,1,0,0,3.97088599205,,,,,2015_Nov_09_1524,G,facesParametric,30,59.5940114775,
./stim/MorphM4_00_orig.jpg,159,,,,,,,,,0,159,159,159,,,,,,,,,,,,,,,23.291015625,-2.607421875,0,0,1,1.60771012306,,,,,2015_Nov_09_1524,G,facesParametric,30,59.5940114775,
./stim/MorphM1_02_orig.jpg,160,,,,,,,,,0,160,160,160,,,,,,,,,,,,,,,23.408203125,-2.51953125,0,0,1,2.29489779472,,,,,2015_Nov_09_1524,G,facesParametric,30,59.5940114775,
./stim/MorphF8_07_orig.jpg,161,,,,,,,,,0,161,161,161,,,,,,,,,,,,,,,23.408203125,-2.431640625,1,0,0,1.33954620361,,,,,2015_Nov_09_1524,G,facesParametric,30,59.5940114775,
./stim/MorphF2_06_orig.jpg,162,,,,,,,,,0,162,162,162,,,,,,,,,,,,,,,23.408203125,-2.4609375,1,0,0,0.768553972244,,,,,2015_Nov_09_1524,G,facesParametric,30,59.5940114775,
./stim/MorphM10_03_orig.jpg,163,,,,,,,,,0,163,163,163,,,,,,,,,,,,,,,23.408203125,-2.4609375,0,0,1,0.937267065048,,,,,2015_Nov_09_1524,G,facesParametric,30,59.5940114775,
./stim/MorphM1_05_orig.jpg,164,,,,,,,,,0,164,164,164,,,,,,,,,,,,,,,23.408203125,-2.4609375,0,0,1,1.42342305183,,,,,2015_Nov_09_1524,G,facesParametric,30,59.5940114775,
./stim/MorphM9_07_orig.jpg,165,,,,,,,,,0,165,165,165,,,,,,,,,,,,,,,23.408203125,-2.4609375,1,0,0,1.25576591492,,,,,2015_Nov_09_1524,G,facesParametric,30,59.5940114775,
./stim/MorphF6_10_orig.jpg,166,,,,,,,,,0,166,166,166,,,,,,,,,,,,,,,23.408203125,-2.490234375,1,0,0,0.668797016144,,,,,2015_Nov_09_1524,G,facesParametric,30,59.5940114775,
./stim/MorphM4_03_orig.jpg,167,,,,,,,,,0,167,167,167,,,,,,,,,,,,,,,23.408203125,-2.28515625,1,0,0,0.803234100342,,,,,2015_Nov_09_1524,G,facesParametric,30,59.5940114775,
./stim/MorphM3_00_orig.jpg,168,,,,,,,,,0,168,168,168,,,,,,,,,,,,,,,23.408203125,-1.845703125,0,0,1,0.853475809097,,,,,2015_Nov_09_1524,G,facesParametric,30,59.5940114775,
./stim/MorphM8_08_orig.jpg,169,,,,,,,,,0,169,169,169,,,,,,,,,,,,,,,19.62890625,-2.197265625,1,0,0,2.79560613632,,,,,2015_Nov_09_1524,G,facesParametric,30,59.5940114775,
./stim/MorphF3_03_orig.jpg,170,,,,,,,,,0,170,170,170,,,,,,,,,,,,,,,19.921875,-1.34765625,0,0,1,0.752380132675,,,,,2015_Nov_09_1524,G,facesParametric,30,59.5940114775,
./stim/MorphF1_08_orig.jpg,171,,,,,,,,,0,171,171,171,,,,,,,,,,,,,,,19.921875,-1.34765625,1,0,0,0.753057956696,,,,,2015_Nov_09_1524,G,facesParametric,30,59.5940114775,
./stim/MorphM7_01_orig.jpg,172,,,,,,,,,0,172,172,172,,,,,,,,,,,,,,,20.009765625,-1.171875,1,0,0,1.62305593491,,,,,2015_Nov_09_1524,G,facesParametric,30,59.5940114775,
./stim/MorphM5_08_orig.jpg,173,,,,,,,,,0,173,173,173,,,,,,,,,,,,,,,20.126953125,-1.11328125,1,0,0,0.803331851959,,,,,2015_Nov_09_1524,G,facesParametric,30,59.5940114775,
./stim/MorphF8_05_orig.jpg,174,,,,,,,,,0,174,174,174,,,,,,,,,,,,,,,20.5078125,-0.615234375,1,0,0,1.03806900978,,,,,2015_Nov_09_1524,G,facesParametric,30,59.5940114775,
./stim/MorphM3_01_orig.jpg,175,,,,,,,,,0,175,175,175,,,,,,,,,,,,,,,20.7421875,-0.615234375,0,0,1,0.853193998337,,,,,2015_Nov_09_1524,G,facesParametric,30,59.5940114775,
./stim/MorphM6_05_orig.jpg,176,,,,,,,,,0,176,176,176,,,,,,,,,,,,,,,20.7421875,-0.615234375,0,0,1,1.10436701775,,,,,2015_Nov_09_1524,G,facesParametric,30,59.5940114775,
./stim/MorphF10_09_orig.jpg,177,,,,,,,,,0,177,177,177,,,,,,,,,,,,,,,20.80078125,-0.615234375,1,0,0,0.685977935791,,,,,2015_Nov_09_1524,G,facesParametric,30,59.5940114775,
./stim/MorphF3_07_orig.jpg,178,,,,,,,,,0,178,178,178,,,,,,,,,,,,,,,20.859375,-0.5859375,0,0,1,0.802786111832,,,,,2015_Nov_09_1524,G,facesParametric,30,59.5940114775,
./stim/MorphM10_08_orig.jpg,179,,,,,,,,,0,179,179,179,,,,,,,,,,,,,,,20.859375,-0.5859375,1,0,0,0.803272008896,,,,,2015_Nov_09_1524,G,facesParametric,30,59.5940114775,
./stim/MorphF3_09_orig.jpg,180,,,,,,,,,0,180,180,180,,,,,,,,,,,,,,,20.947265625,-0.52734375,1,0,0,2.73064684868,,,,,2015_Nov_09_1524,G,facesParametric,30,59.5940114775,
./stim/MorphF7_07_orig.jpg,181,,,,,,,,,0,181,181,181,,,,,,,,,,,,,,,21.03515625,-0.439453125,1,0,0,0.802565813065,,,,,2015_Nov_09_1524,G,facesParametric,30,59.5940114775,
./stim/MorphF1_05_orig.jpg,182,,,,,,,,,0,182,182,182,,,,,,,,,,,,,,,21.2109375,-0.263671875,0,0,1,1.08802485466,,,,,2015_Nov_09_1524,G,facesParametric,30,59.5940114775,
./stim/MorphM10_04_orig.jpg,183,,,,,,,,,0,183,183,183,,,,,,,,,,,,,,,21.2109375,-0.263671875,1,0,0,0.769484043121,,,,,2015_Nov_09_1524,G,facesParametric,30,59.5940114775,
./stim/MorphF10_00_orig.jpg,184,,,,,,,,,0,184,184,184,,,,,,,,,,,,,,,21.2109375,-0.263671875,1,0,0,0.685527801514,,,,,2015_Nov_09_1524,G,facesParametric,30,59.5940114775,
./stim/MorphF2_04_orig.jpg,185,,,,,,,,,0,185,185,185,,,,,,,,,,,,,,,21.26953125,-0.263671875,1,0,0,0.602447032928,,,,,2015_Nov_09_1524,G,facesParametric,30,59.5940114775,
./stim/MorphF1_00_orig.jpg,186,,,,,,,,,0,186,186,186,,,,,,,,,,,,,,,21.26953125,-0.146484375,1,0,0,0.987614154816,,,,,2015_Nov_09_1524,G,facesParametric,30,59.5940114775,
./stim/MorphF8_08_orig.jpg,187,,,,,,,,,0,187,187,187,,,,,,,,,,,,,,,21.240234375,-0.146484375,1,0,0,1.94283080101,,,,,2015_Nov_09_1524,G,facesParametric,30,59.5940114775,
./stim/MorphM2_09_orig.jpg,188,,,,,,,,,0,188,188,188,,,,,,,,,,,,,,,21.240234375,-0.146484375,1,0,0,0.803229093552,,,,,2015_Nov_09_1524,G,facesParametric,30,59.5940114775,
./stim/MorphM5_10_orig.jpg,189,,,,,,,,,0,189,189,189,,,,,,,,,,,,,,,21.181640625,-0.1171875,1,0,0,0.719535827637,,,,,2015_Nov_09_1524,G,facesParametric,30,59.5940114775,
./stim/MorphF10_02_orig.jpg,190,,,,,,,,,0,190,190,190,,,,,,,,,,,,,,,21.181640625,-0.1171875,0,0,1,1.00468206406,,,,,2015_Nov_09_1524,G,facesParametric,30,59.5940114775,
./stim/MorphM6_04_orig.jpg,191,,,,,,,,,0,191,191,191,,,,,,,,,,,,,,,21.09375,-0.1171875,0,0,1,1.70569300652,,,,,2015_Nov_09_1524,G,facesParametric,30,59.5940114775,
./stim/MorphF8_10_orig.jpg,192,,,,,,,,,0,192,192,192,,,,,,,,,,,,,,,21.123046875,-0.1171875,1,0,0,1.55761384964,,,,,2015_Nov_09_1524,G,facesParametric,30,59.5940114775,
./stim/MorphF1_01_orig.jpg,193,,,,,,,,,0,193,193,193,,,,,,,,,,,,,,,21.15234375,-0.1171875,1,0,0,1.02085995674,,,,,2015_Nov_09_1524,G,facesParametric,30,59.5940114775,
./stim/MorphM5_09_orig.jpg,194,,,,,,,,,0,194,194,194,,,,,,,,,,,,,,,21.123046875,-0.087890625,1,0,0,0.870280981064,,,,,2015_Nov_09_1524,G,facesParametric,30,59.5940114775,
./stim/MorphM6_10_orig.jpg,195,,,,,,,,,0,195,195,195,,,,,,,,,,,,,,,21.181640625,-0.05859375,1,0,0,0.769366025925,,,,,2015_Nov_09_1524,G,facesParametric,30,59.5940114775,
./stim/MorphF7_05_orig.jpg,196,,,,,,,,,0,196,196,196,,,,,,,,,,,,,,,21.26953125,0.0,0,0,1,1.13820815086,,,,,2015_Nov_09_1524,G,facesParametric,30,59.5940114775,
./stim/MorphM4_10_orig.jpg,197,,,,,,,,,0,197,197,197,,,,,,,,,,,,,,,21.298828125,0.0,1,0,0,1.05490493774,,,,,2015_Nov_09_1524,G,facesParametric,30,59.5940114775,
./stim/MorphF8_01_orig.jpg,198,,,,,,,,,0,198,198,198,,,,,,,,,,,,,,,21.298828125,-0.029296875,0,0,1,0.920771837234,,,,,2015_Nov_09_1524,G,facesParametric,30,59.5940114775,
./stim/MorphM10_09_orig.jpg,199,,,,,,,,,0,199,199,199,,,,,,,,,,,,,,,21.328125,-0.17578125,1,0,0,0.937134981155,,,,,2015_Nov_09_1524,G,facesParametric,30,59.5940114775,
./stim/MorphF2_02_orig.jpg,200,,,,,,,,,0,200,200,200,,,,,,,,,,,,,,,21.650390625,-0.732421875,1,0,0,0.954220056534,,,,,2015_Nov_09_1524,G,facesParametric,30,59.5940114775,
./stim/MorphM5_05_orig.jpg,201,,,,,,,,,0,201,201,201,,,,,,,,,,,,,,,22.3828125,-0.498046875,1,0,0,1.00443696976,,,,,2015_Nov_09_1524,G,facesParametric,30,59.5940114775,
./stim/MorphM2_00_orig.jpg,202,,,,,,,,,0,202,202,202,,,,,,,,,,,,,,,23.408203125,3.8671875,0,0,1,0.954081058502,,,,,2015_Nov_09_1524,G,facesParametric,30,59.5940114775,
./stim/MorphF4_08_orig.jpg,203,,,,,,,,,0,203,203,203,,,,,,,,,,,,,,,23.408203125,3.8671875,1,0,0,0.719348907471,,,,,2015_Nov_09_1524,G,facesParametric,30,59.5940114775,
./stim/MorphM9_05_orig.jpg,204,,,,,,,,,0,204,204,204,,,,,,,,,,,,,,,23.408203125,3.8671875,0,0,1,1.6914100647,,,,,2015_Nov_09_1524,G,facesParametric,30,59.5940114775,
./stim/MorphM10_00_orig.jpg,205,,,,,,,,,0,205,205,205,,,,,,,,,,,,,,,23.408203125,3.8671875,1,0,0,0.988368988037,,,,,2015_Nov_09_1524,G,facesParametric,30,59.5940114775,
./stim/MorphM4_09_orig.jpg,206,,,,,,,,,0,206,206,206,,,,,,,,,,,,,,,23.408203125,3.8671875,1,0,0,0.716377973557,,,,,2015_Nov_09_1524,G,facesParametric,30,59.5940114775,
./stim/MorphM10_06_orig.jpg,207,,,,,,,,,0,207,207,207,,,,,,,,,,,,,,,23.408203125,3.8671875,1,0,0,1.00300002098,,,,,2015_Nov_09_1524,G,facesParametric,30,59.5940114775,
./stim/MorphF7_06_orig.jpg,208,,,,,,,,,0,208,208,208,,,,,,,,,,,,,,,23.408203125,3.8671875,1,0,0,0.853698968887,,,,,2015_Nov_09_1524,G,facesParametric,30,59.5940114775,
./stim/MorphF6_02_orig.jpg,209,,,,,,,,,0,209,209,209,,,,,,,,,,,,,,,23.408203125,3.8671875,0,0,1,0.970866918564,,,,,2015_Nov_09_1524,G,facesParametric,30,59.5940114775,
./stim/MorphM6_06_orig.jpg,210,,,,,,,,,0,210,210,210,,,,,,,,,,,,,,,23.408203125,3.8671875,0,0,1,1.15517497063,,,,,2015_Nov_09_1524,G,facesParametric,30,59.5940114775,
./stim/MorphM10_01_orig.jpg,211,,,,,,,,,0,211,211,211,,,,,,,,,,,,,,,23.408203125,3.8671875,0,0,1,1.60772895813,,,,,2015_Nov_09_1524,G,facesParametric,30,59.5940114775,
./stim/MorphF6_06_orig.jpg,212,,,,,,,,,0,212,212,212,,,,,,,,,,,,,,,23.37890625,3.837890625,1,0,0,0.903886079788,,,,,2015_Nov_09_1524,G,facesParametric,30,59.5940114775,
./stim/MorphF9_09_orig.jpg,213,,,,,,,,,0,213,213,213,,,,,,,,,,,,,,,23.408203125,3.80859375,1,0,0,1.18875408173,,,,,2015_Nov_09_1524,G,facesParametric,30,59.5940114775,
./stim/MorphF7_02_orig.jpg,214,,,,,,,,,0,214,214,214,,,,,,,,,,,,,,,23.232421875,3.779296875,0,0,1,1.00413918495,,,,,2015_Nov_09_1524,G,facesParametric,30,59.5940114775,
./stim/MorphF3_04_orig.jpg,215,,,,,,,,,0,215,215,215,,,,,,,,,,,,,,,23.203125,3.75,0,0,1,1.32312107086,,,,,2015_Nov_09_1524,G,facesParametric,30,59.5940114775,
./stim/MorphM10_07_orig.jpg,216,,,,,,,,,0,216,216,216,,,,,,,,,,,,,,,23.203125,3.75,1,0,0,1.33962416649,,,,,2015_Nov_09_1524,G,facesParametric,30,59.5940114775,
./stim/MorphF9_04_orig.jpg,217,,,,,,,,,0,217,217,217,,,,,,,,,,,,,,,23.203125,3.75,0,0,1,1.22136116028,,,,,2015_Nov_09_1524,G,facesParametric,30,59.5940114775,
./stim/MorphM9_03_orig.jpg,218,,,,,,,,,0,218,218,218,,,,,,,,,,,,,,,23.203125,3.75,0,0,1,1.22177505493,,,,,2015_Nov_09_1524,G,facesParametric,30,59.5940114775,
./stim/MorphM1_06_orig.jpg,219,,,,,,,,,0,219,219,219,,,,,,,,,,,,,,,23.203125,3.75,0,0,1,1.20492601395,,,,,2015_Nov_09_1524,G,facesParametric,30,59.5940114775,
,,,,,,,,,,,,,,,,,,,,,,,,,,,,,,,,,,,,return,29.7769019604,2015_Nov_09_1524,G,facesParametric,30,59.5940114775,
