img,num,basicLoop.thisRepN,basicLoop.thisTrialN,basicLoop.thisN,basicLoop.thisIndex,trials.thisRepN,trials.thisTrialN,trials.thisN,trials.thisIndex,trials2.thisRepN,trials2.thisTrialN,trials2.thisN,trials2.thisIndex,key_resp_2.keys,key_resp_2.rt,basicRating1.response,basicRating1.rt,basicRating2.response,basicRating2.rt,basicRating3.response,basicRating3.rt,basicRating4.response,basicRating4.rt,key_resp_3.keys,key_resp_3.rt,key_resp_4.keys,key_resp_4.rt,mouseResp.x,mouseResp.y,mouseResp.leftButton,mouseResp.midButton,mouseResp.rightButton,mouseResp.time,key_resp_5.keys,key_resp_5.rt,date,group,expName,participant,frameRate,
,,,,,,,,,,,,,,return,80.7766060829,,,,,,,,,,,,,,,,,,,,,2015_Sep_10_0937,G,facesParametric,3,59.8093483478,
./basicStim/09F_SP_O.jpg,,0,0,0,40,,,,,,,,,,,None,None,None,None,SUP,9.145,None,None,,,,,,,,,,,,,2015_Sep_10_0937,G,facesParametric,3,59.8093483478,
./basicStim/03F_SA_C.jpg,,0,1,1,18,,,,,,,,,,,SAD,1.75,None,None,None,None,None,None,,,,,,,,,,,,,2015_Sep_10_0937,G,facesParametric,3,59.8093483478,
./basicStim/02F_NE_C.jpg,,0,2,2,13,,,,,,,,,,,None,None,None,None,None,None,NTR,14.379,,,,,,,,,,,,,2015_Sep_10_0937,G,facesParametric,3,59.8093483478,
./basicStim/34M_FE_O.jpg,,0,3,3,72,,,,,,,,,,,None,None,FEA,4.681,None,None,None,None,,,,,,,,,,,,,2015_Sep_10_0937,G,facesParametric,3,59.8093483478,
./basicStim/34M_NE_C.jpg,,0,4,4,76,,,,,,,,,,,None,None,None,None,None,None,NTR,5.114,,,,,,,,,,,,,2015_Sep_10_0937,G,facesParametric,3,59.8093483478,
./basicStim/21M_AN_O.jpg,,0,5,5,42,,,,,,,,,,,None,None,ANG,2.164,None,None,None,None,,,,,,,,,,,,,2015_Sep_10_0937,G,facesParametric,3,59.8093483478,
./basicStim/21M_FE_O.jpg,,0,6,6,44,,,,,,,,,,,None,None,None,None,SUP,1.36,None,None,,,,,,,,,,,,,2015_Sep_10_0937,G,facesParametric,3,59.8093483478,
./basicStim/36M_HA_O.jpg,,0,7,7,80,,,,,,,,,,,HAP,2.56,None,None,None,None,None,None,,,,,,,,,,,,,2015_Sep_10_0937,G,facesParametric,3,59.8093483478,
./basicStim/07F_NE_C.jpg,,0,8,8,34,,,,,,,,,,,SAD,2.974,None,None,None,None,None,None,,,,,,,,,,,,,2015_Sep_10_0937,G,facesParametric,3,59.8093483478,
./basicStim/24M_FE_O.jpg,,0,9,9,58,,,,,,,,,,,None,None,None,None,SUP,8.786,None,None,,,,,,,,,,,,,2015_Sep_10_0937,G,facesParametric,3,59.8093483478,
./basicStim/01F_SA_C.jpg,,0,10,10,4,,,,,,,,,,,SAD,4.885,None,None,None,None,None,None,,,,,,,,,,,,,2015_Sep_10_0937,G,facesParametric,3,59.8093483478,
./basicStim/02F_SA_C.jpg,,0,11,11,11,,,,,,,,,,,SAD,1.379,None,None,None,None,None,None,,,,,,,,,,,,,2015_Sep_10_0937,G,facesParametric,3,59.8093483478,
./basicStim/36M_NE_C.jpg,,0,12,12,83,,,,,,,,,,,None,None,None,None,None,None,NTR,5.35,,,,,,,,,,,,,2015_Sep_10_0937,G,facesParametric,3,59.8093483478,
./basicStim/09F_FE_O.jpg,,0,13,13,37,,,,,,,,,,,None,None,None,None,DIS,6.971,None,None,,,,,,,,,,,,,2015_Sep_10_0937,G,facesParametric,3,59.8093483478,
./basicStim/06F_AN_O.jpg,,0,14,14,21,,,,,,,,,,,None,None,FEA,17.289,None,None,None,None,,,,,,,,,,,,,2015_Sep_10_0937,G,facesParametric,3,59.8093483478,
./basicStim/01F_FE_O.jpg,,0,15,15,2,,,,,,,,,,,None,None,FEA,3.488,None,None,None,None,,,,,,,,,,,,,2015_Sep_10_0937,G,facesParametric,3,59.8093483478,
./basicStim/24M_HA_O.jpg,,0,16,16,59,,,,,,,,,,,HAP,1.113,None,None,None,None,None,None,,,,,,,,,,,,,2015_Sep_10_0937,G,facesParametric,3,59.8093483478,
./basicStim/03F_DI_O.jpg,,0,17,17,15,,,,,,,,,,,None,None,None,None,DIS,1.293,None,None,,,,,,,,,,,,,2015_Sep_10_0937,G,facesParametric,3,59.8093483478,
./basicStim/09F_NE_C.jpg,,0,18,18,41,,,,,,,,,,,None,None,None,None,None,None,NTR,1.861,,,,,,,,,,,,,2015_Sep_10_0937,G,facesParametric,3,59.8093483478,
./basicStim/24M_AN_O.jpg,,0,19,19,56,,,,,,,,,,,None,None,ANG,3.426,None,None,None,None,,,,,,,,,,,,,2015_Sep_10_0937,G,facesParametric,3,59.8093483478,
./basicStim/09F_DI_O.jpg,,0,20,20,36,,,,,,,,,,,None,None,None,None,DIS,15.552,None,None,,,,,,,,,,,,,2015_Sep_10_0937,G,facesParametric,3,59.8093483478,
./basicStim/23M_HA_O.jpg,,0,21,21,52,,,,,,,,,,,HAP,1.765,None,None,None,None,None,None,,,,,,,,,,,,,2015_Sep_10_0937,G,facesParametric,3,59.8093483478,
./basicStim/07F_SA_C.jpg,,0,22,22,32,,,,,,,,,,,SAD,24.422,None,None,None,None,None,None,,,,,,,,,,,,,2015_Sep_10_0937,G,facesParametric,3,59.8093483478,
./basicStim/02F_FE_O.jpg,,0,23,23,9,,,,,,,,,,,None,None,None,None,SUP,1.962,None,None,,,,,,,,,,,,,2015_Sep_10_0937,G,facesParametric,3,59.8093483478,
./basicStim/02F_AN_O.jpg,,0,24,24,7,,,,,,,,,,,None,None,ANG,1.797,None,None,None,None,,,,,,,,,,,,,2015_Sep_10_0937,G,facesParametric,3,59.8093483478,
./basicStim/23M_SP_O.jpg,,0,25,25,54,,,,,,,,,,,None,None,None,None,SUP,2.953,None,None,,,,,,,,,,,,,2015_Sep_10_0937,G,facesParametric,3,59.8093483478,
./basicStim/06F_DI_O.jpg,,0,26,26,22,,,,,,,,,,,None,None,None,None,DIS,4.712,None,None,,,,,,,,,,,,,2015_Sep_10_0937,G,facesParametric,3,59.8093483478,
./basicStim/23M_FE_O.jpg,,0,27,27,51,,,,,,,,,,,None,None,FEA,5.258,None,None,None,None,,,,,,,,,,,,,2015_Sep_10_0937,G,facesParametric,3,59.8093483478,
./basicStim/06F_NE_C.jpg,,0,28,28,27,,,,,,,,,,,None,None,None,None,None,None,NTR,1.19,,,,,,,,,,,,,2015_Sep_10_0937,G,facesParametric,3,59.8093483478,
./basicStim/28M_AN_O.jpg,,0,29,29,63,,,,,,,,,,,None,None,ANG,2.282,None,None,None,None,,,,,,,,,,,,,2015_Sep_10_0937,G,facesParametric,3,59.8093483478,
./basicStim/24M_SP_O.jpg,,0,30,30,61,,,,,,,,,,,None,None,None,None,SUP,19.108,None,None,,,,,,,,,,,,,2015_Sep_10_0937,G,facesParametric,3,59.8093483478,
./basicStim/03F_NE_C.jpg,,0,31,31,20,,,,,,,,,,,None,None,None,None,None,None,NTR,4.545,,,,,,,,,,,,,2015_Sep_10_0937,G,facesParametric,3,59.8093483478,
./basicStim/34M_HA_O.jpg,,0,32,32,73,,,,,,,,,,,HAP,1.164,None,None,None,None,None,None,,,,,,,,,,,,,2015_Sep_10_0937,G,facesParametric,3,59.8093483478,
./basicStim/21M_DI_O.jpg,,0,33,33,43,,,,,,,,,,,None,None,None,None,DIS,1.676,None,None,,,,,,,,,,,,,2015_Sep_10_0937,G,facesParametric,3,59.8093483478,
./basicStim/23M_SA_C.jpg,,0,34,34,53,,,,,,,,,,,None,None,None,None,DIS,11.584,None,None,,,,,,,,,,,,,2015_Sep_10_0937,G,facesParametric,3,59.8093483478,
./basicStim/34M_DI_O.jpg,,0,35,35,71,,,,,,,,,,,None,None,None,None,DIS,1.282,None,None,,,,,,,,,,,,,2015_Sep_10_0937,G,facesParametric,3,59.8093483478,
./basicStim/34M_SA_C.jpg,,0,36,36,74,,,,,,,,,,,None,None,ANG,10.045,None,None,None,None,,,,,,,,,,,,,2015_Sep_10_0937,G,facesParametric,3,59.8093483478,
./basicStim/01F_HA_O.jpg,,0,37,37,3,,,,,,,,,,,HAP,1.681,None,None,None,None,None,None,,,,,,,,,,,,,2015_Sep_10_0937,G,facesParametric,3,59.8093483478,
./basicStim/02F_DI_O.jpg,,0,38,38,8,,,,,,,,,,,None,None,None,None,DIS,4.243,None,None,,,,,,,,,,,,,2015_Sep_10_0937,G,facesParametric,3,59.8093483478,
./basicStim/01F_DI_O.jpg,,0,39,39,1,,,,,,,,,,,None,None,None,None,DIS,0.592,None,None,,,,,,,,,,,,,2015_Sep_10_0937,G,facesParametric,3,59.8093483478,
./basicStim/36M_FE_O.jpg,,0,40,40,79,,,,,,,,,,,None,None,FEA,2.537,None,None,None,None,,,,,,,,,,,,,2015_Sep_10_0937,G,facesParametric,3,59.8093483478,
./basicStim/06F_FE_O.jpg,,0,41,41,23,,,,,,,,,,,None,None,FEA,0.609,None,None,None,None,,,,,,,,,,,,,2015_Sep_10_0937,G,facesParametric,3,59.8093483478,
./basicStim/01F_NE_C.jpg,,0,42,42,6,,,,,,,,,,,None,None,None,None,None,None,NTR,3.022,,,,,,,,,,,,,2015_Sep_10_0937,G,facesParametric,3,59.8093483478,
./basicStim/07F_HA_O.jpg,,0,43,43,31,,,,,,,,,,,HAP,1.58,None,None,None,None,None,None,,,,,,,,,,,,,2015_Sep_10_0937,G,facesParametric,3,59.8093483478,
./basicStim/07F_AN_O.jpg,,0,44,44,28,,,,,,,,,,,None,None,ANG,1.9,None,None,None,None,,,,,,,,,,,,,2015_Sep_10_0937,G,facesParametric,3,59.8093483478,
./basicStim/28M_SP_O.jpg,,0,45,45,68,,,,,,,,,,,None,None,None,None,SUP,1.276,None,None,,,,,,,,,,,,,2015_Sep_10_0937,G,facesParametric,3,59.8093483478,
./basicStim/34M_AN_O.jpg,,0,46,46,70,,,,,,,,,,,None,None,ANG,0.978,None,None,None,None,,,,,,,,,,,,,2015_Sep_10_0937,G,facesParametric,3,59.8093483478,
./basicStim/34M_SP_O.jpg,,0,47,47,75,,,,,,,,,,,None,None,None,None,SUP,1.107,None,None,,,,,,,,,,,,,2015_Sep_10_0937,G,facesParametric,3,59.8093483478,
./basicStim/28M_SA_C.jpg,,0,48,48,67,,,,,,,,,,,None,None,FEA,3.741,None,None,None,None,,,,,,,,,,,,,2015_Sep_10_0937,G,facesParametric,3,59.8093483478,
./basicStim/06F_HA_O.jpg,,0,49,49,24,,,,,,,,,,,HAP,1.595,None,None,None,None,None,None,,,,,,,,,,,,,2015_Sep_10_0937,G,facesParametric,3,59.8093483478,
./basicStim/03F_AN_O.jpg,,0,50,50,14,,,,,,,,,,,None,None,ANG,0.978,None,None,None,None,,,,,,,,,,,,,2015_Sep_10_0937,G,facesParametric,3,59.8093483478,
./basicStim/24M_SA_C.jpg,,0,51,51,60,,,,,,,,,,,SAD,2.403,None,None,None,None,None,None,,,,,,,,,,,,,2015_Sep_10_0937,G,facesParametric,3,59.8093483478,
./basicStim/24M_NE_C.jpg,,0,52,52,62,,,,,,,,,,,None,None,None,None,None,None,NTR,2.05,,,,,,,,,,,,,2015_Sep_10_0937,G,facesParametric,3,59.8093483478,
./basicStim/21M_HA_O.jpg,,0,53,53,45,,,,,,,,,,,HAP,0.994,None,None,None,None,None,None,,,,,,,,,,,,,2015_Sep_10_0937,G,facesParametric,3,59.8093483478,
./basicStim/03F_FE_O.jpg,,0,54,54,16,,,,,,,,,,,None,None,None,None,SUP,1.513,None,None,,,,,,,,,,,,,2015_Sep_10_0937,G,facesParametric,3,59.8093483478,
./basicStim/23M_DI_O.jpg,,0,55,55,50,,,,,,,,,,,None,None,None,None,DIS,10.904,None,None,,,,,,,,,,,,,2015_Sep_10_0937,G,facesParametric,3,59.8093483478,
./basicStim/23M_NE_C.jpg,,0,56,56,55,,,,,,,,,,,None,None,None,None,None,None,NTR,1.964,,,,,,,,,,,,,2015_Sep_10_0937,G,facesParametric,3,59.8093483478,
./basicStim/36M_DI_O.jpg,,0,57,57,78,,,,,,,,,,,None,None,None,None,DIS,2.853,None,None,,,,,,,,,,,,,2015_Sep_10_0937,G,facesParametric,3,59.8093483478,
./basicStim/21M_NE_C.jpg,,0,58,58,48,,,,,,,,,,,None,None,None,None,None,None,NTR,1.025,,,,,,,,,,,,,2015_Sep_10_0937,G,facesParametric,3,59.8093483478,
./basicStim/03F_HA_O.jpg,,0,59,59,17,,,,,,,,,,,HAP,1.21,None,None,None,None,None,None,,,,,,,,,,,,,2015_Sep_10_0937,G,facesParametric,3,59.8093483478,
./basicStim/07F_SP_O.jpg,,0,60,60,33,,,,,,,,,,,None,None,None,None,SUP,1.616,None,None,,,,,,,,,,,,,2015_Sep_10_0937,G,facesParametric,3,59.8093483478,
./basicStim/02F_SP_O.jpg,,0,61,61,12,,,,,,,,,,,None,None,None,None,SUP,0.577,None,None,,,,,,,,,,,,,2015_Sep_10_0937,G,facesParametric,3,59.8093483478,
./basicStim/01F_AN_O.jpg,,0,62,62,0,,,,,,,,,,,None,None,ANG,1.262,None,None,None,None,,,,,,,,,,,,,2015_Sep_10_0937,G,facesParametric,3,59.8093483478,
./basicStim/28M_DI_O.jpg,,0,63,63,64,,,,,,,,,,,None,None,None,None,DIS,1.812,None,None,,,,,,,,,,,,,2015_Sep_10_0937,G,facesParametric,3,59.8093483478,
./basicStim/06F_SP_O.jpg,,0,64,64,26,,,,,,,,,,,None,None,None,None,SUP,3.659,None,None,,,,,,,,,,,,,2015_Sep_10_0937,G,facesParametric,3,59.8093483478,
./basicStim/28M_FE_O.jpg,,0,65,65,65,,,,,,,,,,,None,None,None,None,SUP,3.912,None,None,,,,,,,,,,,,,2015_Sep_10_0937,G,facesParametric,3,59.8093483478,
./basicStim/07F_FE_O.jpg,,0,66,66,30,,,,,,,,,,,None,None,FEA,5.855,None,None,None,None,,,,,,,,,,,,,2015_Sep_10_0937,G,facesParametric,3,59.8093483478,
./basicStim/21M_SA_C.jpg,,0,67,67,46,,,,,,,,,,,None,None,None,None,DIS,6.927,None,None,,,,,,,,,,,,,2015_Sep_10_0937,G,facesParametric,3,59.8093483478,
./basicStim/23M_AN_O.jpg,,0,68,68,49,,,,,,,,,,,None,None,ANG,1.381,None,None,None,None,,,,,,,,,,,,,2015_Sep_10_0937,G,facesParametric,3,59.8093483478,
./basicStim/06F_SA_C.jpg,,0,69,69,25,,,,,,,,,,,None,None,ANG,1.832,None,None,None,None,,,,,,,,,,,,,2015_Sep_10_0937,G,facesParametric,3,59.8093483478,
./basicStim/07F_DI_O.jpg,,0,70,70,29,,,,,,,,,,,None,None,None,None,DIS,1.576,None,None,,,,,,,,,,,,,2015_Sep_10_0937,G,facesParametric,3,59.8093483478,
./basicStim/36M_AN_O.jpg,,0,71,71,77,,,,,,,,,,,None,None,ANG,1.159,None,None,None,None,,,,,,,,,,,,,2015_Sep_10_0937,G,facesParametric,3,59.8093483478,
./basicStim/09F_SA_C.jpg,,0,72,72,39,,,,,,,,,,,SAD,2.351,None,None,None,None,None,None,,,,,,,,,,,,,2015_Sep_10_0937,G,facesParametric,3,59.8093483478,
./basicStim/36M_SP_O.jpg,,0,73,73,82,,,,,,,,,,,None,None,None,None,SUP,1.241,None,None,,,,,,,,,,,,,2015_Sep_10_0937,G,facesParametric,3,59.8093483478,
./basicStim/24M_DI_O.jpg,,0,74,74,57,,,,,,,,,,,None,None,FEA,3.958,None,None,None,None,,,,,,,,,,,,,2015_Sep_10_0937,G,facesParametric,3,59.8093483478,
./basicStim/02F_HA_O.jpg,,0,75,75,10,,,,,,,,,,,HAP,1.296,None,None,None,None,None,None,,,,,,,,,,,,,2015_Sep_10_0937,G,facesParametric,3,59.8093483478,
./basicStim/28M_HA_O.jpg,,0,76,76,66,,,,,,,,,,,HAP,0.827,None,None,None,None,None,None,,,,,,,,,,,,,2015_Sep_10_0937,G,facesParametric,3,59.8093483478,
./basicStim/36M_SA_C.jpg,,0,77,77,81,,,,,,,,,,,SAD,1.302,None,None,None,None,None,None,,,,,,,,,,,,,2015_Sep_10_0937,G,facesParametric,3,59.8093483478,
./basicStim/01F_SP_O.jpg,,0,78,78,5,,,,,,,,,,,None,None,None,None,SUP,3.351,None,None,,,,,,,,,,,,,2015_Sep_10_0937,G,facesParametric,3,59.8093483478,
./basicStim/28M_NE_C.jpg,,0,79,79,69,,,,,,,,,,,None,None,None,None,None,None,NTR,0.975,,,,,,,,,,,,,2015_Sep_10_0937,G,facesParametric,3,59.8093483478,
./basicStim/21M_SP_O.jpg,,0,80,80,47,,,,,,,,,,,None,None,None,None,SUP,1.176,None,None,,,,,,,,,,,,,2015_Sep_10_0937,G,facesParametric,3,59.8093483478,
./basicStim/09F_AN_O.jpg,,0,81,81,35,,,,,,,,,,,None,None,ANG,0.876,None,None,None,None,,,,,,,,,,,,,2015_Sep_10_0937,G,facesParametric,3,59.8093483478,
./basicStim/09F_HA_O.jpg,,0,82,82,38,,,,,,,,,,,HAP,2.268,None,None,None,None,None,None,,,,,,,,,,,,,2015_Sep_10_0937,G,facesParametric,3,59.8093483478,
./basicStim/03F_SP_O.jpg,,0,83,83,19,,,,,,,,,,,None,None,None,None,SUP,4.394,None,None,,,,,,,,,,,,,2015_Sep_10_0937,G,facesParametric,3,59.8093483478,
,,,,,,,,,,,,,,,,,,,,,,,,return,9.48755502701,,,,,,,,,,,2015_Sep_10_0937,G,facesParametric,3,59.8093483478,
,,,,,,,,,,,,,,return,68.0106289387,,,,,,,,,,,,,,,,,,,,,2015_Sep_10_0937,G,facesParametric,3,59.8093483478,
,,,,,,,,,,,,,,,,,,,,,,,,return,12.720482111,,,,,,,,,,,2015_Sep_10_0937,G,facesParametric,3,59.8093483478,
,,,,,,,,,,,,,,,,,,,,,,,,,,return,4.99421596527,,,,,,,,,2015_Sep_10_0937,G,facesParametric,3,59.8093483478,
./stim/MorphM6_10_orig.jpg,0,,,,,0,0,0,0,,,,,,,,,,,,,,,,,,,-19.453125,-12.65625,0,0,1,3.15203905106,,,2015_Sep_10_0937,G,facesParametric,3,59.8093483478,
./stim/MorphF9_04_orig.jpg,1,,,,,0,1,1,1,,,,,,,,,,,,,,,,,,,-19.39453125,-12.59765625,1,0,0,1.75630688667,,,2015_Sep_10_0937,G,facesParametric,3,59.8093483478,
./stim/MorphM3_03_orig.jpg,2,,,,,0,2,2,2,,,,,,,,,,,,,,,,,,,-19.62890625,-12.59765625,1,0,0,1.10333395004,,,2015_Sep_10_0937,G,facesParametric,3,59.8093483478,
./stim/MorphM1_00_orig.jpg,3,,,,,0,3,3,3,,,,,,,,,,,,,,,,,,,-19.6875,-12.685546875,1,0,0,1.07140111923,,,2015_Sep_10_0937,G,facesParametric,3,59.8093483478,
./stim/MorphM6_09_orig.jpg,4,,,,,0,4,4,4,,,,,,,,,,,,,,,,,,,-19.951171875,-12.71484375,0,0,1,2.2616519928,,,2015_Sep_10_0937,G,facesParametric,3,59.8093483478,
./stim/MorphM10_02_orig.jpg,5,,,,,0,5,5,5,,,,,,,,,,,,,,,,,,,-20.009765625,-12.744140625,1,0,0,2.26132321358,,,2015_Sep_10_0937,G,facesParametric,3,59.8093483478,
./stim/MorphM3_06_orig.jpg,6,,,,,0,6,6,6,,,,,,,,,,,,,,,,,,,-20.419921875,-12.83203125,0,0,1,1.45594501495,,,2015_Sep_10_0937,G,facesParametric,3,59.8093483478,
./stim/MorphM7_08_orig.jpg,7,,,,,0,7,7,7,,,,,,,,,,,,,,,,,,,-20.419921875,-12.83203125,0,0,1,0.971204996109,,,2015_Sep_10_0937,G,facesParametric,3,59.8093483478,
./stim/MorphM6_04_orig.jpg,8,,,,,0,8,8,8,,,,,,,,,,,,,,,,,,,-20.419921875,-12.83203125,1,0,0,1.37272310257,,,2015_Sep_10_0937,G,facesParametric,3,59.8093483478,
./stim/MorphM2_05_orig.jpg,9,,,,,0,9,9,9,,,,,,,,,,,,,,,,,,,-20.5078125,-12.890625,1,0,0,5.92983984947,,,2015_Sep_10_0937,G,facesParametric,3,59.8093483478,
./stim/MorphM3_01_orig.jpg,10,,,,,0,10,10,10,,,,,,,,,,,,,,,,,,,-20.5078125,-12.890625,1,0,0,1.6079120636,,,2015_Sep_10_0937,G,facesParametric,3,59.8093483478,
./stim/MorphF1_03_orig.jpg,11,,,,,0,11,11,11,,,,,,,,,,,,,,,,,,,-20.5078125,-12.890625,1,0,0,1.35647988319,,,2015_Sep_10_0937,G,facesParametric,3,59.8093483478,
./stim/MorphF8_09_orig.jpg,12,,,,,0,12,12,12,,,,,,,,,,,,,,,,,,,-20.56640625,-12.890625,0,0,1,1.18820285797,,,2015_Sep_10_0937,G,facesParametric,3,59.8093483478,
./stim/MorphF3_01_orig.jpg,13,,,,,0,13,13,13,,,,,,,,,,,,,,,,,,,-20.625,-12.861328125,1,0,0,1.33962607384,,,2015_Sep_10_0937,G,facesParametric,3,59.8093483478,
./stim/MorphF7_03_orig.jpg,14,,,,,0,14,14,14,,,,,,,,,,,,,,,,,,,-20.654296875,-12.861328125,1,0,0,4.42306685448,,,2015_Sep_10_0937,G,facesParametric,3,59.8093483478,
./stim/MorphM1_05_orig.jpg,15,,,,,0,15,15,15,,,,,,,,,,,,,,,,,,,-20.654296875,-12.861328125,1,0,0,3.0660238266,,,2015_Sep_10_0937,G,facesParametric,3,59.8093483478,
./stim/MorphM5_08_orig.jpg,16,,,,,0,16,16,16,,,,,,,,,,,,,,,,,,,-20.68359375,-12.861328125,0,0,1,3.01534295082,,,2015_Sep_10_0937,G,facesParametric,3,59.8093483478,
./stim/MorphF7_01_orig.jpg,17,,,,,0,17,17,17,,,,,,,,,,,,,,,,,,,-13.41796875,-12.333984375,1,0,0,21.2837138176,,,2015_Sep_10_0937,G,facesParametric,3,59.8093483478,
./stim/MorphF1_10_orig.jpg,18,,,,,0,18,18,18,,,,,,,,,,,,,,,,,,,-13.41796875,-12.333984375,0,0,1,1.37179899216,,,2015_Sep_10_0937,G,facesParametric,3,59.8093483478,
./stim/MorphF9_06_orig.jpg,19,,,,,0,19,19,19,,,,,,,,,,,,,,,,,,,-13.388671875,-12.1875,0,0,1,2.81465816498,,,2015_Sep_10_0937,G,facesParametric,3,59.8093483478,
./stim/MorphM4_00_orig.jpg,20,,,,,0,20,20,20,,,,,,,,,,,,,,,,,,,-13.271484375,-12.0703125,1,0,0,2.91493010521,,,2015_Sep_10_0937,G,facesParametric,3,59.8093483478,
./stim/MorphM10_08_orig.jpg,21,,,,,0,21,21,21,,,,,,,,,,,,,,,,,,,-13.271484375,-12.0703125,0,0,1,1.12181615829,,,2015_Sep_10_0937,G,facesParametric,3,59.8093483478,
./stim/MorphF8_07_orig.jpg,22,,,,,0,22,22,22,,,,,,,,,,,,,,,,,,,-3.69140625,-10.751953125,1,0,0,18.8009109497,,,2015_Sep_10_0937,G,facesParametric,3,59.8093483478,
./stim/MorphF6_02_orig.jpg,23,,,,,0,23,23,23,,,,,,,,,,,,,,,,,,,-3.69140625,-10.751953125,1,0,0,1.18891406059,,,2015_Sep_10_0937,G,facesParametric,3,59.8093483478,
./stim/MorphM2_08_orig.jpg,24,,,,,0,24,24,24,,,,,,,,,,,,,,,,,,,-3.486328125,-10.166015625,0,0,1,1.60775995255,,,2015_Sep_10_0937,G,facesParametric,3,59.8093483478,
./stim/MorphF9_05_orig.jpg,25,,,,,0,25,25,25,,,,,,,,,,,,,,,,,,,-4.189453125,-10.283203125,1,0,0,13.9582989216,,,2015_Sep_10_0937,G,facesParametric,3,59.8093483478,
./stim/MorphF1_08_orig.jpg,26,,,,,0,26,26,26,,,,,,,,,,,,,,,,,,,-3.662109375,-9.4921875,0,0,1,9.11426901817,,,2015_Sep_10_0937,G,facesParametric,3,59.8093483478,
./stim/MorphF6_09_orig.jpg,27,,,,,0,27,27,27,,,,,,,,,,,,,,,,,,,-3.662109375,-9.4921875,0,0,1,0.937361001968,,,2015_Sep_10_0937,G,facesParametric,3,59.8093483478,
./stim/MorphF2_09_orig.jpg,28,,,,,0,28,28,28,,,,,,,,,,,,,,,,,,,-3.603515625,-9.404296875,0,0,1,0.902772188187,,,2015_Sep_10_0937,G,facesParametric,3,59.8093483478,
./stim/MorphF1_04_orig.jpg,29,,,,,0,29,29,29,,,,,,,,,,,,,,,,,,,-3.046875,-8.994140625,1,0,0,2.19369482994,,,2015_Sep_10_0937,G,facesParametric,3,59.8093483478,
./stim/MorphM4_06_orig.jpg,30,,,,,0,30,30,30,,,,,,,,,,,,,,,,,,,-2.841796875,-8.759765625,0,0,1,1.27303504944,,,2015_Sep_10_0937,G,facesParametric,3,59.8093483478,
./stim/MorphM5_04_orig.jpg,31,,,,,0,31,31,31,,,,,,,,,,,,,,,,,,,-2.841796875,-8.759765625,1,0,0,1.70760798454,,,2015_Sep_10_0937,G,facesParametric,3,59.8093483478,
./stim/MorphF10_02_orig.jpg,32,,,,,0,32,32,32,,,,,,,,,,,,,,,,,,,-2.16796875,-8.291015625,1,0,0,4.18768906593,,,2015_Sep_10_0937,G,facesParametric,3,59.8093483478,
./stim/MorphF6_05_orig.jpg,33,,,,,0,33,33,33,,,,,,,,,,,,,,,,,,,-0.380859375,-10.576171875,1,0,0,8.31129097939,,,2015_Sep_10_0937,G,facesParametric,3,59.8093483478,
./stim/MorphF8_01_orig.jpg,34,,,,,0,34,34,34,,,,,,,,,,,,,,,,,,,-0.146484375,-10.1953125,1,0,0,3.78670096397,,,2015_Sep_10_0937,G,facesParametric,3,59.8093483478,
./stim/MorphM2_06_orig.jpg,35,,,,,0,35,35,35,,,,,,,,,,,,,,,,,,,3.955078125,-10.01953125,1,0,0,15.9539020061,,,2015_Sep_10_0937,G,facesParametric,3,59.8093483478,
./stim/MorphM9_02_orig.jpg,36,,,,,0,36,36,36,,,,,,,,,,,,,,,,,,,3.92578125,-10.048828125,1,0,0,3.43458485603,,,2015_Sep_10_0937,G,facesParametric,3,59.8093483478,
./stim/MorphM5_03_orig.jpg,37,,,,,0,37,37,37,,,,,,,,,,,,,,,,,,,3.92578125,-10.048828125,1,0,0,1.39006400108,,,2015_Sep_10_0937,G,facesParametric,3,59.8093483478,
./stim/MorphM4_01_orig.jpg,38,,,,,0,38,38,38,,,,,,,,,,,,,,,,,,,3.603515625,-9.814453125,1,0,0,3.80288004875,,,2015_Sep_10_0937,G,facesParametric,3,59.8093483478,
./stim/MorphM6_05_orig.jpg,39,,,,,0,39,39,39,,,,,,,,,,,,,,,,,,,2.87109375,-9.111328125,1,0,0,12.5347352028,,,2015_Sep_10_0937,G,facesParametric,3,59.8093483478,
./stim/MorphF4_02_orig.jpg,40,,,,,0,40,40,40,,,,,,,,,,,,,,,,,,,2.87109375,-9.111328125,1,0,0,1.03782606125,,,2015_Sep_10_0937,G,facesParametric,3,59.8093483478,
./stim/MorphM9_03_orig.jpg,41,,,,,0,41,41,41,,,,,,,,,,,,,,,,,,,2.87109375,-9.111328125,1,0,0,0.868693113327,,,2015_Sep_10_0937,G,facesParametric,3,59.8093483478,
./stim/MorphF4_06_orig.jpg,42,,,,,0,42,42,42,,,,,,,,,,,,,,,,,,,2.87109375,-9.111328125,1,0,0,4.00336313248,,,2015_Sep_10_0937,G,facesParametric,3,59.8093483478,
./stim/MorphF5_00_orig.jpg,43,,,,,0,43,43,43,,,,,,,,,,,,,,,,,,,2.607421875,-9.4921875,0,0,1,24.8032450676,,,2015_Sep_10_0937,G,facesParametric,3,59.8093483478,
./stim/MorphM7_04_orig.jpg,44,,,,,0,44,44,44,,,,,,,,,,,,,,,,,,,2.40234375,-9.228515625,0,0,1,1.60777187347,,,2015_Sep_10_0937,G,facesParametric,3,59.8093483478,
./stim/MorphF1_07_orig.jpg,45,,,,,0,45,45,45,,,,,,,,,,,,,,,,,,,2.40234375,-9.228515625,0,0,1,3.11596703529,,,2015_Sep_10_0937,G,facesParametric,3,59.8093483478,
./stim/MorphF7_02_orig.jpg,46,,,,,0,46,46,46,,,,,,,,,,,,,,,,,,,2.40234375,-9.169921875,1,0,0,1.37252688408,,,2015_Sep_10_0937,G,facesParametric,3,59.8093483478,
./stim/MorphF3_08_orig.jpg,47,,,,,0,47,47,47,,,,,,,,,,,,,,,,,,,2.373046875,-9.0234375,1,0,0,4.02154517174,,,2015_Sep_10_0937,G,facesParametric,3,59.8093483478,
./stim/MorphM4_03_orig.jpg,48,,,,,0,48,48,48,,,,,,,,,,,,,,,,,,,2.548828125,-8.935546875,0,0,1,1.80873703957,,,2015_Sep_10_0937,G,facesParametric,3,59.8093483478,
./stim/MorphM7_05_orig.jpg,49,,,,,0,49,49,49,,,,,,,,,,,,,,,,,,,2.75390625,-8.84765625,0,0,1,1.45713591576,,,2015_Sep_10_0937,G,facesParametric,3,59.8093483478,
./stim/MorphM4_08_orig.jpg,50,,,,,0,50,50,50,,,,,,,,,,,,,,,,,,,2.75390625,-8.84765625,0,0,1,0.801218032837,,,2015_Sep_10_0937,G,facesParametric,3,59.8093483478,
./stim/MorphM2_03_orig.jpg,51,,,,,0,51,51,51,,,,,,,,,,,,,,,,,,,2.98828125,-8.759765625,1,0,0,1.27243304253,,,2015_Sep_10_0937,G,facesParametric,3,59.8093483478,
./stim/MorphF3_10_orig.jpg,52,,,,,0,52,52,52,,,,,,,,,,,,,,,,,,,3.046875,-8.759765625,0,0,1,2.96547198296,,,2015_Sep_10_0937,G,facesParametric,3,59.8093483478,
./stim/MorphF6_08_orig.jpg,53,,,,,0,53,53,53,,,,,,,,,,,,,,,,,,,3.046875,-8.759765625,0,0,1,1.55741906166,,,2015_Sep_10_0937,G,facesParametric,3,59.8093483478,
./stim/MorphM3_10_orig.jpg,54,,,,,0,54,54,54,,,,,,,,,,,,,,,,,,,3.10546875,-8.73046875,0,0,1,0.918414831161,,,2015_Sep_10_0937,G,facesParametric,3,59.8093483478,
./stim/MorphM10_03_orig.jpg,55,,,,,0,55,55,55,,,,,,,,,,,,,,,,,,,3.45703125,-8.4375,1,0,0,4.12205410004,,,2015_Sep_10_0937,G,facesParametric,3,59.8093483478,
./stim/MorphF2_03_orig.jpg,56,,,,,0,56,56,56,,,,,,,,,,,,,,,,,,,3.955078125,-8.49609375,1,0,0,5.89617705345,,,2015_Sep_10_0937,G,facesParametric,3,59.8093483478,
./stim/MorphM7_10_orig.jpg,57,,,,,0,57,57,57,,,,,,,,,,,,,,,,,,,4.130859375,-8.466796875,0,0,1,2.19281101227,,,2015_Sep_10_0937,G,facesParametric,3,59.8093483478,
./stim/MorphF8_00_orig.jpg,58,,,,,0,58,58,58,,,,,,,,,,,,,,,,,,,4.21875,-8.466796875,1,0,0,1.62292194366,,,2015_Sep_10_0937,G,facesParametric,3,59.8093483478,
./stim/MorphF7_07_orig.jpg,59,,,,,0,59,59,59,,,,,,,,,,,,,,,,,,,4.658203125,-8.49609375,0,0,1,3.48465800285,,,2015_Sep_10_0937,G,facesParametric,3,59.8093483478,
./stim/MorphM8_09_orig.jpg,60,,,,,0,60,60,60,,,,,,,,,,,,,,,,,,,4.658203125,-8.466796875,0,0,1,0.920524120331,,,2015_Sep_10_0937,G,facesParametric,3,59.8093483478,
./stim/MorphF5_08_orig.jpg,61,,,,,0,61,61,61,,,,,,,,,,,,,,,,,,,4.716796875,-8.408203125,0,0,1,1.00450181961,,,2015_Sep_10_0937,G,facesParametric,3,59.8093483478,
./stim/MorphM8_00_orig.jpg,62,,,,,0,62,62,62,,,,,,,,,,,,,,,,,,,4.775390625,-8.37890625,0,0,1,1.52384305,,,2015_Sep_10_0937,G,facesParametric,3,59.8093483478,
./stim/MorphF4_04_orig.jpg,63,,,,,0,63,63,63,,,,,,,,,,,,,,,,,,,4.775390625,-8.37890625,1,0,0,4.52310204506,,,2015_Sep_10_0937,G,facesParametric,3,59.8093483478,
./stim/MorphM8_05_orig.jpg,64,,,,,0,64,64,64,,,,,,,,,,,,,,,,,,,4.775390625,-8.37890625,0,0,1,1.1887140274,,,2015_Sep_10_0937,G,facesParametric,3,59.8093483478,
./stim/MorphM1_09_orig.jpg,65,,,,,0,65,65,65,,,,,,,,,,,,,,,,,,,4.775390625,-8.37890625,0,0,1,1.00479412079,,,2015_Sep_10_0937,G,facesParametric,3,59.8093483478,
./stim/MorphF8_04_orig.jpg,66,,,,,0,66,66,66,,,,,,,,,,,,,,,,,,,4.775390625,-8.37890625,1,0,0,1.40420198441,,,2015_Sep_10_0937,G,facesParametric,3,59.8093483478,
./stim/MorphM10_07_orig.jpg,67,,,,,0,67,67,67,,,,,,,,,,,,,,,,,,,4.8046875,-8.349609375,0,0,1,0.952412128448,,,2015_Sep_10_0937,G,facesParametric,3,59.8093483478,
./stim/MorphM5_05_orig.jpg,68,,,,,0,68,68,68,,,,,,,,,,,,,,,,,,,5.0390625,-8.203125,1,0,0,4.75827407837,,,2015_Sep_10_0937,G,facesParametric,3,59.8093483478,
./stim/MorphM3_02_orig.jpg,69,,,,,0,69,69,69,,,,,,,,,,,,,,,,,,,5.33203125,-8.14453125,0,0,1,14.1101181507,,,2015_Sep_10_0937,G,facesParametric,3,59.8093483478,
./stim/MorphF2_08_orig.jpg,70,,,,,0,70,70,70,,,,,,,,,,,,,,,,,,,5.33203125,-8.14453125,0,0,1,1.3225069046,,,2015_Sep_10_0937,G,facesParametric,3,59.8093483478,
./stim/MorphM5_00_orig.jpg,71,,,,,0,71,71,71,,,,,,,,,,,,,,,,,,,5.33203125,-8.14453125,1,0,0,1.42313790321,,,2015_Sep_10_0937,G,facesParametric,3,59.8093483478,
./stim/MorphF6_07_orig.jpg,72,,,,,0,72,72,72,,,,,,,,,,,,,,,,,,,5.33203125,-8.14453125,0,0,1,2.86370491982,,,2015_Sep_10_0937,G,facesParametric,3,59.8093483478,
./stim/MorphM7_07_orig.jpg,73,,,,,0,73,73,73,,,,,,,,,,,,,,,,,,,5.33203125,-8.14453125,0,0,1,0.720067977905,,,2015_Sep_10_0937,G,facesParametric,3,59.8093483478,
./stim/MorphM4_05_orig.jpg,74,,,,,0,74,74,74,,,,,,,,,,,,,,,,,,,5.33203125,-8.14453125,0,0,1,6.66890382767,,,2015_Sep_10_0937,G,facesParametric,3,59.8093483478,
./stim/MorphF1_02_orig.jpg,75,,,,,0,75,75,75,,,,,,,,,,,,,,,,,,,5.33203125,-8.14453125,1,0,0,1.68964409828,,,2015_Sep_10_0937,G,facesParametric,3,59.8093483478,
./stim/MorphM1_03_orig.jpg,76,,,,,0,76,76,76,,,,,,,,,,,,,,,,,,,5.361328125,-8.115234375,1,0,0,2.88147091866,,,2015_Sep_10_0937,G,facesParametric,3,59.8093483478,
./stim/MorphM6_01_orig.jpg,77,,,,,0,77,77,77,,,,,,,,,,,,,,,,,,,5.361328125,-8.115234375,1,0,0,3.18167519569,,,2015_Sep_10_0937,G,facesParametric,3,59.8093483478,
./stim/MorphF5_05_orig.jpg,78,,,,,0,78,78,78,,,,,,,,,,,,,,,,,,,5.478515625,-8.0859375,1,0,0,2.49435901642,,,2015_Sep_10_0937,G,facesParametric,3,59.8093483478,
./stim/MorphF4_10_orig.jpg,79,,,,,0,79,79,79,,,,,,,,,,,,,,,,,,,5.595703125,-8.02734375,0,0,1,0.954345941544,,,2015_Sep_10_0937,G,facesParametric,3,59.8093483478,
./stim/MorphF9_03_orig.jpg,80,,,,,0,80,80,80,,,,,,,,,,,,,,,,,,,5.625,-8.02734375,1,0,0,5.27862596512,,,2015_Sep_10_0937,G,facesParametric,3,59.8093483478,
./stim/MorphM8_04_orig.jpg,81,,,,,0,81,81,81,,,,,,,,,,,,,,,,,,,6.416015625,-7.998046875,0,0,1,9.49904608727,,,2015_Sep_10_0937,G,facesParametric,3,59.8093483478,
./stim/MorphF2_04_orig.jpg,82,,,,,0,82,82,82,,,,,,,,,,,,,,,,,,,6.943359375,-8.349609375,0,0,1,15.0320467949,,,2015_Sep_10_0937,G,facesParametric,3,59.8093483478,
./stim/MorphM10_01_orig.jpg,83,,,,,0,83,83,83,,,,,,,,,,,,,,,,,,,6.97265625,-8.115234375,1,0,0,6.86950802803,,,2015_Sep_10_0937,G,facesParametric,3,59.8093483478,
./stim/MorphF6_10_orig.jpg,84,,,,,0,84,84,84,,,,,,,,,,,,,,,,,,,6.97265625,-8.0859375,0,0,1,1.35345101357,,,2015_Sep_10_0937,G,facesParametric,3,59.8093483478,
./stim/MorphF10_00_orig.jpg,85,,,,,0,85,85,85,,,,,,,,,,,,,,,,,,,7.001953125,-8.056640625,1,0,0,1.02135491371,,,2015_Sep_10_0937,G,facesParametric,3,59.8093483478,
./stim/MorphM10_04_orig.jpg,86,,,,,0,86,86,86,,,,,,,,,,,,,,,,,,,7.001953125,-8.056640625,0,0,1,1.00267720222,,,2015_Sep_10_0937,G,facesParametric,3,59.8093483478,
./stim/MorphM4_07_orig.jpg,87,,,,,0,87,87,87,,,,,,,,,,,,,,,,,,,7.001953125,-8.056640625,0,0,1,1.39034605026,,,2015_Sep_10_0937,G,facesParametric,3,59.8093483478,
./stim/MorphF10_07_orig.jpg,88,,,,,0,88,88,88,,,,,,,,,,,,,,,,,,,7.001953125,-8.056640625,0,0,1,1.11976408958,,,2015_Sep_10_0937,G,facesParametric,3,59.8093483478,
./stim/MorphF8_02_orig.jpg,89,,,,,0,89,89,89,,,,,,,,,,,,,,,,,,,7.001953125,-8.056640625,1,0,0,1.20487499237,,,2015_Sep_10_0937,G,facesParametric,3,59.8093483478,
./stim/MorphM10_06_orig.jpg,90,,,,,0,90,90,90,,,,,,,,,,,,,,,,,,,7.001953125,-8.056640625,0,0,1,1.18925523758,,,2015_Sep_10_0937,G,facesParametric,3,59.8093483478,
./stim/MorphF6_06_orig.jpg,91,,,,,0,91,91,91,,,,,,,,,,,,,,,,,,,7.001953125,-8.056640625,0,0,1,2.00767803192,,,2015_Sep_10_0937,G,facesParametric,3,59.8093483478,
./stim/MorphF2_07_orig.jpg,92,,,,,0,92,92,92,,,,,,,,,,,,,,,,,,,7.001953125,-8.056640625,0,0,1,0.886826992035,,,2015_Sep_10_0937,G,facesParametric,3,59.8093483478,
./stim/MorphF3_04_orig.jpg,93,,,,,0,93,93,93,,,,,,,,,,,,,,,,,,,7.001953125,-8.056640625,1,0,0,1.03804111481,,,2015_Sep_10_0937,G,facesParametric,3,59.8093483478,
./stim/MorphM10_10_orig.jpg,94,,,,,0,94,94,94,,,,,,,,,,,,,,,,,,,7.001953125,-8.056640625,0,0,1,1.62451004982,,,2015_Sep_10_0937,G,facesParametric,3,59.8093483478,
./stim/MorphF3_06_orig.jpg,95,,,,,0,95,95,95,,,,,,,,,,,,,,,,,,,7.001953125,-8.056640625,1,0,0,1.69015789032,,,2015_Sep_10_0937,G,facesParametric,3,59.8093483478,
./stim/MorphM8_06_orig.jpg,96,,,,,0,96,96,96,,,,,,,,,,,,,,,,,,,7.119140625,-8.0859375,0,0,1,7.77542495728,,,2015_Sep_10_0937,G,facesParametric,3,59.8093483478,
./stim/MorphM4_02_orig.jpg,97,,,,,0,97,97,97,,,,,,,,,,,,,,,,,,,7.119140625,-8.0859375,0,0,1,1.28882002831,,,2015_Sep_10_0937,G,facesParametric,3,59.8093483478,
./stim/MorphF9_08_orig.jpg,98,,,,,0,98,98,98,,,,,,,,,,,,,,,,,,,7.119140625,-8.0859375,0,0,1,0.970818042755,,,2015_Sep_10_0937,G,facesParametric,3,59.8093483478,
./stim/MorphF3_07_orig.jpg,99,,,,,0,99,99,99,,,,,,,,,,,,,,,,,,,7.119140625,-8.0859375,1,0,0,0.952349901199,,,2015_Sep_10_0937,G,facesParametric,3,59.8093483478,
./stim/MorphM10_09_orig.jpg,100,,,,,0,100,100,100,,,,,,,,,,,,,,,,,,,7.20703125,-8.056640625,0,0,1,1.03774380684,,,2015_Sep_10_0937,G,facesParametric,3,59.8093483478,
./stim/MorphM4_04_orig.jpg,101,,,,,0,101,101,101,,,,,,,,,,,,,,,,,,,7.20703125,-8.056640625,1,0,0,4.84200286865,,,2015_Sep_10_0937,G,facesParametric,3,59.8093483478,
./stim/MorphM6_07_orig.jpg,102,,,,,0,102,102,102,,,,,,,,,,,,,,,,,,,8.7890625,-8.525390625,1,0,0,9.93738889694,,,2015_Sep_10_0937,G,facesParametric,3,59.8093483478,
./stim/MorphF4_01_orig.jpg,103,,,,,0,103,103,103,,,,,,,,,,,,,,,,,,,8.84765625,-8.466796875,1,0,0,1.102850914,,,2015_Sep_10_0937,G,facesParametric,3,59.8093483478,
./stim/MorphF10_06_orig.jpg,104,,,,,0,104,104,104,,,,,,,,,,,,,,,,,,,9.78515625,-8.203125,0,0,1,2.09353590012,,,2015_Sep_10_0937,G,facesParametric,3,59.8093483478,
./stim/MorphM3_00_orig.jpg,105,,,,,0,105,105,105,,,,,,,,,,,,,,,,,,,10.107421875,-8.02734375,1,0,0,5.160779953,,,2015_Sep_10_0937,G,facesParametric,3,59.8093483478,
./stim/MorphF7_08_orig.jpg,106,,,,,0,106,106,106,,,,,,,,,,,,,,,,,,,10.341796875,-7.96875,0,0,1,1.77533698082,,,2015_Sep_10_0937,G,facesParametric,3,59.8093483478,
./stim/MorphF1_06_orig.jpg,107,,,,,0,107,107,107,,,,,,,,,,,,,,,,,,,10.341796875,-7.96875,0,0,1,1.97526502609,,,2015_Sep_10_0937,G,facesParametric,3,59.8093483478,
./stim/MorphM7_02_orig.jpg,108,,,,,0,108,108,108,,,,,,,,,,,,,,,,,,,10.341796875,-7.96875,0,0,1,1.18880295753,,,2015_Sep_10_0937,G,facesParametric,3,59.8093483478,
./stim/MorphM5_02_orig.jpg,109,,,,,0,109,109,109,,,,,,,,,,,,,,,,,,,10.37109375,-7.939453125,0,0,1,2.26079702377,,,2015_Sep_10_0937,G,facesParametric,3,59.8093483478,
./stim/MorphM6_08_orig.jpg,110,,,,,0,110,110,110,,,,,,,,,,,,,,,,,,,10.400390625,-7.91015625,0,0,1,4.08778810501,,,2015_Sep_10_0937,G,facesParametric,3,59.8093483478,
./stim/MorphF6_01_orig.jpg,111,,,,,0,111,111,111,,,,,,,,,,,,,,,,,,,10.400390625,-7.91015625,1,0,0,1.18837285042,,,2015_Sep_10_0937,G,facesParametric,3,59.8093483478,
./stim/MorphM3_08_orig.jpg,112,,,,,0,112,112,112,,,,,,,,,,,,,,,,,,,10.4296875,-7.880859375,0,0,1,1.17218804359,,,2015_Sep_10_0937,G,facesParametric,3,59.8093483478,
./stim/MorphF2_06_orig.jpg,113,,,,,0,113,113,113,,,,,,,,,,,,,,,,,,,10.4296875,-7.880859375,0,0,1,3.60196280479,,,2015_Sep_10_0937,G,facesParametric,3,59.8093483478,
./stim/MorphM9_05_orig.jpg,114,,,,,0,114,114,114,,,,,,,,,,,,,,,,,,,10.48828125,-7.939453125,1,0,0,2.06045198441,,,2015_Sep_10_0937,G,facesParametric,3,59.8093483478,
./stim/MorphM7_06_orig.jpg,115,,,,,0,115,115,115,,,,,,,,,,,,,,,,,,,10.60546875,-8.583984375,0,0,1,4.97552514076,,,2015_Sep_10_0937,G,facesParametric,3,59.8093483478,
./stim/MorphF7_00_orig.jpg,116,,,,,0,116,116,116,,,,,,,,,,,,,,,,,,,10.751953125,-8.0859375,1,0,0,1.65798211098,,,2015_Sep_10_0937,G,facesParametric,3,59.8093483478,
./stim/MorphM7_00_orig.jpg,117,,,,,0,117,117,117,,,,,,,,,,,,,,,,,,,10.751953125,-7.998046875,1,0,0,14.7790620327,,,2015_Sep_10_0937,G,facesParametric,3,59.8093483478,
./stim/MorphM6_02_orig.jpg,118,,,,,0,118,118,118,,,,,,,,,,,,,,,,,,,10.751953125,-7.998046875,1,0,0,1.75877094269,,,2015_Sep_10_0937,G,facesParametric,3,59.8093483478,
./stim/MorphF7_04_orig.jpg,119,,,,,0,119,119,119,,,,,,,,,,,,,,,,,,,10.751953125,-7.998046875,1,0,0,1.30595397949,,,2015_Sep_10_0937,G,facesParametric,3,59.8093483478,
./stim/MorphF4_00_orig.jpg,120,,,,,0,120,120,120,,,,,,,,,,,,,,,,,,,10.751953125,-7.998046875,1,0,0,0.8032310009,,,2015_Sep_10_0937,G,facesParametric,3,59.8093483478,
./stim/MorphF9_07_orig.jpg,121,,,,,0,121,121,121,,,,,,,,,,,,,,,,,,,10.751953125,-7.96875,0,0,1,1.90902900696,,,2015_Sep_10_0937,G,facesParametric,3,59.8093483478,
./stim/MorphF4_05_orig.jpg,122,,,,,0,122,122,122,,,,,,,,,,,,,,,,,,,10.751953125,-7.96875,1,0,0,2.09194803238,,,2015_Sep_10_0937,G,facesParametric,3,59.8093483478,
./stim/MorphF5_10_orig.jpg,123,,,,,0,123,123,123,,,,,,,,,,,,,,,,,,,10.751953125,-7.96875,0,0,1,1.32335805893,,,2015_Sep_10_0937,G,facesParametric,3,59.8093483478,
./stim/MorphM9_06_orig.jpg,124,,,,,0,124,124,124,,,,,,,,,,,,,,,,,,,10.6640625,-7.79296875,1,0,0,17.1262598038,,,2015_Sep_10_0937,G,facesParametric,3,59.8093483478,
./stim/MorphF1_00_orig.jpg,125,,,,,0,125,125,125,,,,,,,,,,,,,,,,,,,10.6640625,-7.79296875,1,0,0,0.936771154404,,,2015_Sep_10_0937,G,facesParametric,3,59.8093483478,
./stim/MorphF5_07_orig.jpg,126,,,,,0,126,126,126,,,,,,,,,,,,,,,,,,,10.693359375,-7.8515625,1,0,0,0.870512962341,,,2015_Sep_10_0937,G,facesParametric,3,59.8093483478,
./stim/MorphM6_06_orig.jpg,127,,,,,0,127,127,127,,,,,,,,,,,,,,,,,,,10.693359375,-7.8515625,1,0,0,4.02062797546,,,2015_Sep_10_0937,G,facesParametric,3,59.8093483478,
./stim/MorphF2_00_orig.jpg,128,,,,,0,128,128,128,,,,,,,,,,,,,,,,,,,10.693359375,-7.8515625,1,0,0,1.07051205635,,,2015_Sep_10_0937,G,facesParametric,3,59.8093483478,
./stim/MorphM6_03_orig.jpg,129,,,,,0,129,129,129,,,,,,,,,,,,,,,,,,,10.693359375,-7.8515625,1,0,0,1.02118802071,,,2015_Sep_10_0937,G,facesParametric,3,59.8093483478,
./stim/MorphM3_04_orig.jpg,130,,,,,0,130,130,130,,,,,,,,,,,,,,,,,,,10.693359375,-7.8515625,0,0,1,1.25573182106,,,2015_Sep_10_0937,G,facesParametric,3,59.8093483478,
./stim/MorphM8_01_orig.jpg,131,,,,,0,131,131,131,,,,,,,,,,,,,,,,,,,10.693359375,-7.8515625,0,0,1,0.71936917305,,,2015_Sep_10_0937,G,facesParametric,3,59.8093483478,
./stim/MorphM1_06_orig.jpg,132,,,,,0,132,132,132,,,,,,,,,,,,,,,,,,,10.72265625,-7.822265625,1,0,0,4.23696613312,,,2015_Sep_10_0937,G,facesParametric,3,59.8093483478,
./stim/MorphM2_09_orig.jpg,133,,,,,0,133,133,133,,,,,,,,,,,,,,,,,,,10.3125,-7.8515625,0,0,1,5.84794187546,,,2015_Sep_10_0937,G,facesParametric,3,59.8093483478,
./stim/MorphF2_01_orig.jpg,134,,,,,0,134,134,134,,,,,,,,,,,,,,,,,,,10.283203125,-7.3828125,1,0,0,3.76978898048,,,2015_Sep_10_0937,G,facesParametric,3,59.8093483478,
./stim/MorphM5_01_orig.jpg,135,,,,,0,135,135,135,,,,,,,,,,,,,,,,,,,10.283203125,-7.3828125,1,0,0,1.74142885208,,,2015_Sep_10_0937,G,facesParametric,3,59.8093483478,
./stim/MorphF8_03_orig.jpg,136,,,,,0,136,136,136,,,,,,,,,,,,,,,,,,,10.283203125,-7.3828125,1,0,0,0.953668832779,,,2015_Sep_10_0937,G,facesParametric,3,59.8093483478,
./stim/MorphF10_03_orig.jpg,137,,,,,0,137,137,137,,,,,,,,,,,,,,,,,,,10.283203125,-7.3828125,1,0,0,1.87571716309,,,2015_Sep_10_0937,G,facesParametric,3,59.8093483478,
./stim/MorphM7_09_orig.jpg,138,,,,,0,138,138,138,,,,,,,,,,,,,,,,,,,10.3125,-7.294921875,0,0,1,0.851816892624,,,2015_Sep_10_0937,G,facesParametric,3,59.8093483478,
./stim/MorphM9_00_orig.jpg,139,,,,,0,139,139,139,,,,,,,,,,,,,,,,,,,10.3125,-7.294921875,1,0,0,1.12068605423,,,2015_Sep_10_0937,G,facesParametric,3,59.8093483478,
./stim/MorphM3_05_orig.jpg,140,,,,,0,140,140,140,,,,,,,,,,,,,,,,,,,10.3125,-7.294921875,0,0,1,0.853307008743,,,2015_Sep_10_0937,G,facesParametric,3,59.8093483478,
./stim/MorphM1_07_orig.jpg,141,,,,,0,141,141,141,,,,,,,,,,,,,,,,,,,10.3125,-7.20703125,0,0,1,5.78114795685,,,2015_Sep_10_0937,G,facesParametric,3,59.8093483478,
./stim/MorphM9_07_orig.jpg,142,,,,,0,142,142,142,,,,,,,,,,,,,,,,,,,10.341796875,-7.91015625,1,0,0,9.76916885376,,,2015_Sep_10_0937,G,facesParametric,3,59.8093483478,
./stim/MorphF3_03_orig.jpg,143,,,,,0,143,143,143,,,,,,,,,,,,,,,,,,,10.341796875,-7.880859375,1,0,0,1.08814311028,,,2015_Sep_10_0937,G,facesParametric,3,59.8093483478,
./stim/MorphF4_07_orig.jpg,144,,,,,0,144,144,144,,,,,,,,,,,,,,,,,,,10.341796875,-7.880859375,0,0,1,1.03767108917,,,2015_Sep_10_0937,G,facesParametric,3,59.8093483478,
./stim/MorphM2_10_orig.jpg,145,,,,,0,145,145,145,,,,,,,,,,,,,,,,,,,10.341796875,-7.880859375,0,0,1,0.753328084946,,,2015_Sep_10_0937,G,facesParametric,3,59.8093483478,
./stim/MorphF7_06_orig.jpg,146,,,,,0,146,146,146,,,,,,,,,,,,,,,,,,,10.341796875,-7.880859375,0,0,1,0.733994007111,,,2015_Sep_10_0937,G,facesParametric,3,59.8093483478,
./stim/MorphM8_02_orig.jpg,147,,,,,0,147,147,147,,,,,,,,,,,,,,,,,,,10.341796875,-7.880859375,0,0,1,0.786445856094,,,2015_Sep_10_0937,G,facesParametric,3,59.8093483478,
./stim/MorphF3_05_orig.jpg,148,,,,,0,148,148,148,,,,,,,,,,,,,,,,,,,10.37109375,-7.55859375,1,0,0,4.50692796707,,,2015_Sep_10_0937,G,facesParametric,3,59.8093483478,
./stim/MorphF6_04_orig.jpg,149,,,,,0,149,149,149,,,,,,,,,,,,,,,,,,,10.37109375,-7.6171875,0,0,1,1.40673494339,,,2015_Sep_10_0937,G,facesParametric,3,59.8093483478,
./stim/MorphM4_10_orig.jpg,150,,,,,0,150,150,150,,,,,,,,,,,,,,,,,,,10.37109375,-7.6171875,0,0,1,1.08777499199,,,2015_Sep_10_0937,G,facesParametric,3,59.8093483478,
./stim/MorphF10_08_orig.jpg,151,,,,,0,151,151,151,,,,,,,,,,,,,,,,,,,10.37109375,-7.6171875,0,0,1,1.25567793846,,,2015_Sep_10_0937,G,facesParametric,3,59.8093483478,
./stim/MorphF5_02_orig.jpg,152,,,,,0,152,152,152,,,,,,,,,,,,,,,,,,,10.37109375,-7.6171875,1,0,0,1.08738207817,,,2015_Sep_10_0937,G,facesParametric,3,59.8093483478,
./stim/MorphF1_05_orig.jpg,153,,,,,0,153,153,153,,,,,,,,,,,,,,,,,,,10.4296875,-7.5,1,0,0,7.38955903053,,,2015_Sep_10_0937,G,facesParametric,3,59.8093483478,
./stim/MorphF9_09_orig.jpg,154,,,,,0,154,154,154,,,,,,,,,,,,,,,,,,,10.4296875,-7.5,0,0,1,2.46046614647,,,2015_Sep_10_0937,G,facesParametric,3,59.8093483478,
./stim/MorphF5_03_orig.jpg,155,,,,,0,155,155,155,,,,,,,,,,,,,,,,,,,10.341796875,-8.056640625,1,0,0,10.0869350433,,,2015_Sep_10_0937,G,facesParametric,3,59.8093483478,
./stim/MorphF4_03_orig.jpg,156,,,,,0,156,156,156,,,,,,,,,,,,,,,,,,,10.341796875,-7.998046875,1,0,0,4.90946006775,,,2015_Sep_10_0937,G,facesParametric,3,59.8093483478,
./stim/MorphF5_01_orig.jpg,157,,,,,0,157,157,157,,,,,,,,,,,,,,,,,,,10.3125,-8.173828125,1,0,0,5.02491807938,,,2015_Sep_10_0937,G,facesParametric,3,59.8093483478,
./stim/MorphM1_01_orig.jpg,158,,,,,0,158,158,158,,,,,,,,,,,,,,,,,,,10.3125,-8.115234375,1,0,0,5.59460496902,,,2015_Sep_10_0937,G,facesParametric,3,59.8093483478,
./stim/MorphF9_02_orig.jpg,159,,,,,0,159,159,159,,,,,,,,,,,,,,,,,,,10.3125,-8.115234375,1,0,0,2.12723302841,,,2015_Sep_10_0937,G,facesParametric,3,59.8093483478,
./stim/MorphF2_02_orig.jpg,160,,,,,0,160,160,160,,,,,,,,,,,,,,,,,,,10.3125,-8.115234375,1,0,0,1.0710849762,,,2015_Sep_10_0937,G,facesParametric,3,59.8093483478,
./stim/MorphM8_10_orig.jpg,161,,,,,0,161,161,161,,,,,,,,,,,,,,,,,,,10.37109375,-7.91015625,0,0,1,0.820203065872,,,2015_Sep_10_0937,G,facesParametric,3,59.8093483478,
./stim/MorphM1_10_orig.jpg,162,,,,,0,162,162,162,,,,,,,,,,,,,,,,,,,10.37109375,-7.91015625,0,0,1,1.48946213722,,,2015_Sep_10_0937,G,facesParametric,3,59.8093483478,
./stim/MorphF10_04_orig.jpg,163,,,,,0,163,163,163,,,,,,,,,,,,,,,,,,,10.400390625,-7.880859375,1,0,0,3.76865005493,,,2015_Sep_10_0937,G,facesParametric,3,59.8093483478,
./stim/MorphF3_00_orig.jpg,164,,,,,0,164,164,164,,,,,,,,,,,,,,,,,,,10.400390625,-7.880859375,1,0,0,1.17173409462,,,2015_Sep_10_0937,G,facesParametric,3,59.8093483478,
./stim/MorphM2_07_orig.jpg,165,,,,,0,165,165,165,,,,,,,,,,,,,,,,,,,10.400390625,-7.880859375,0,0,1,4.89180779457,,,2015_Sep_10_0937,G,facesParametric,3,59.8093483478,
./stim/MorphF7_05_orig.jpg,166,,,,,0,166,166,166,,,,,,,,,,,,,,,,,,,10.4296875,-7.8515625,0,0,1,6.46818709373,,,2015_Sep_10_0937,G,facesParametric,3,59.8093483478,
./stim/MorphF6_03_orig.jpg,167,,,,,0,167,167,167,,,,,,,,,,,,,,,,,,,10.4296875,-7.8515625,1,0,0,1.45704007149,,,2015_Sep_10_0937,G,facesParametric,3,59.8093483478,
./stim/MorphF3_02_orig.jpg,168,,,,,0,168,168,168,,,,,,,,,,,,,,,,,,,10.4296875,-7.8515625,1,0,0,1.00414896011,,,2015_Sep_10_0937,G,facesParametric,3,59.8093483478,
./stim/MorphF1_01_orig.jpg,169,,,,,0,169,169,169,,,,,,,,,,,,,,,,,,,10.400390625,-7.880859375,1,0,0,0.652402877808,,,2015_Sep_10_0937,G,facesParametric,3,59.8093483478,
./stim/MorphM1_04_orig.jpg,170,,,,,0,170,170,170,,,,,,,,,,,,,,,,,,,10.400390625,-7.880859375,1,0,0,2.76204895973,,,2015_Sep_10_0937,G,facesParametric,3,59.8093483478,
./stim/MorphF4_09_orig.jpg,171,,,,,0,171,171,171,,,,,,,,,,,,,,,,,,,10.400390625,-7.880859375,0,0,1,0.970597028732,,,2015_Sep_10_0937,G,facesParametric,3,59.8093483478,
./stim/MorphM6_00_orig.jpg,172,,,,,0,172,172,172,,,,,,,,,,,,,,,,,,,10.400390625,-7.880859375,1,0,0,1.32294797897,,,2015_Sep_10_0937,G,facesParametric,3,59.8093483478,
./stim/MorphM5_09_orig.jpg,173,,,,,0,173,173,173,,,,,,,,,,,,,,,,,,,10.400390625,-7.880859375,0,0,1,1.20549488068,,,2015_Sep_10_0937,G,facesParametric,3,59.8093483478,
./stim/MorphF5_06_orig.jpg,174,,,,,0,174,174,174,,,,,,,,,,,,,,,,,,,10.37109375,-7.8515625,0,0,1,1.63964009285,,,2015_Sep_10_0937,G,facesParametric,3,59.8093483478,
./stim/MorphF9_01_orig.jpg,175,,,,,0,175,175,175,,,,,,,,,,,,,,,,,,,9.375,-8.3203125,1,0,0,7.07126617432,,,2015_Sep_10_0937,G,facesParametric,3,59.8093483478,
./stim/MorphM5_07_orig.jpg,176,,,,,0,176,176,176,,,,,,,,,,,,,,,,,,,9.521484375,-8.583984375,0,0,1,4.97642707825,,,2015_Sep_10_0937,G,facesParametric,3,59.8093483478,
./stim/MorphM2_01_orig.jpg,177,,,,,0,177,177,177,,,,,,,,,,,,,,,,,,,10.4296875,-7.5,1,0,0,6.5181350708,,,2015_Sep_10_0937,G,facesParametric,3,59.8093483478,
./stim/MorphM7_03_orig.jpg,178,,,,,0,178,178,178,,,,,,,,,,,,,,,,,,,10.4296875,-7.5,0,0,1,1.05317211151,,,2015_Sep_10_0937,G,facesParametric,3,59.8093483478,
./stim/MorphM9_09_orig.jpg,179,,,,,0,179,179,179,,,,,,,,,,,,,,,,,,,10.4296875,-7.5,0,0,1,1.05303788185,,,2015_Sep_10_0937,G,facesParametric,3,59.8093483478,
./stim/MorphF9_10_orig.jpg,180,,,,,0,180,180,180,,,,,,,,,,,,,,,,,,,10.4296875,-7.5,0,0,1,2.82969403267,,,2015_Sep_10_0937,G,facesParametric,3,59.8093483478,
./stim/MorphF8_10_orig.jpg,181,,,,,0,181,181,181,,,,,,,,,,,,,,,,,,,10.4296875,-7.5,0,0,1,3.51845407486,,,2015_Sep_10_0937,G,facesParametric,3,59.8093483478,
./stim/MorphF10_10_orig.jpg,182,,,,,0,182,182,182,,,,,,,,,,,,,,,,,,,10.4296875,-7.5,0,0,1,0.735502004623,,,2015_Sep_10_0937,G,facesParametric,3,59.8093483478,
./stim/MorphM3_09_orig.jpg,183,,,,,0,183,183,183,,,,,,,,,,,,,,,,,,,10.4296875,-7.5,0,0,1,0.735375165939,,,2015_Sep_10_0937,G,facesParametric,3,59.8093483478,
./stim/MorphF10_05_orig.jpg,184,,,,,0,184,184,184,,,,,,,,,,,,,,,,,,,10.4296875,-7.5,1,0,0,1.45657801628,,,2015_Sep_10_0937,G,facesParametric,3,59.8093483478,
./stim/MorphF6_00_orig.jpg,185,,,,,0,185,185,185,,,,,,,,,,,,,,,,,,,10.4296875,-7.5,1,0,0,1.03773498535,,,2015_Sep_10_0937,G,facesParametric,3,59.8093483478,
./stim/MorphF8_08_orig.jpg,186,,,,,0,186,186,186,,,,,,,,,,,,,,,,,,,10.4296875,-7.5,0,0,1,3.36601805687,,,2015_Sep_10_0937,G,facesParametric,3,59.8093483478,
./stim/MorphF7_10_orig.jpg,187,,,,,0,187,187,187,,,,,,,,,,,,,,,,,,,10.4296875,-7.5,0,0,1,1.30630898476,,,2015_Sep_10_0937,G,facesParametric,3,59.8093483478,
./stim/MorphM9_10_orig.jpg,188,,,,,0,188,188,188,,,,,,,,,,,,,,,,,,,10.4296875,-7.5,0,0,1,0.801099061966,,,2015_Sep_10_0937,G,facesParametric,3,59.8093483478,
./stim/MorphM10_05_orig.jpg,189,,,,,0,189,189,189,,,,,,,,,,,,,,,,,,,10.4296875,-7.5,0,0,1,0.719580173492,,,2015_Sep_10_0937,G,facesParametric,3,59.8093483478,
./stim/MorphM8_03_orig.jpg,190,,,,,0,190,190,190,,,,,,,,,,,,,,,,,,,10.72265625,-7.705078125,1,0,0,5.94819903374,,,2015_Sep_10_0937,G,facesParametric,3,59.8093483478,
./stim/MorphF2_10_orig.jpg,191,,,,,0,191,191,191,,,,,,,,,,,,,,,,,,,10.634765625,-7.587890625,0,0,1,1.3730070591,,,2015_Sep_10_0937,G,facesParametric,3,59.8093483478,
./stim/MorphM1_02_orig.jpg,192,,,,,0,192,192,192,,,,,,,,,,,,,,,,,,,10.517578125,-10.166015625,1,0,0,6.90414595604,,,2015_Sep_10_0937,G,facesParametric,3,59.8093483478,
./stim/MorphM4_09_orig.jpg,193,,,,,0,193,193,193,,,,,,,,,,,,,,,,,,,10.517578125,-9.78515625,0,0,1,3.23318696022,,,2015_Sep_10_0937,G,facesParametric,3,59.8093483478,
./stim/MorphM8_07_orig.jpg,194,,,,,0,194,194,194,,,,,,,,,,,,,,,,,,,7.880859375,-10.72265625,0,0,1,2.99813008308,,,2015_Sep_10_0937,G,facesParametric,3,59.8093483478,
./stim/MorphM1_08_orig.jpg,195,,,,,0,195,195,195,,,,,,,,,,,,,,,,,,,7.880859375,-10.72265625,0,0,1,1.43838810921,,,2015_Sep_10_0937,G,facesParametric,3,59.8093483478,
./stim/MorphF4_08_orig.jpg,196,,,,,0,196,196,196,,,,,,,,,,,,,,,,,,,7.8515625,-10.693359375,0,0,1,0.970316886902,,,2015_Sep_10_0937,G,facesParametric,3,59.8093483478,
./stim/MorphM9_04_orig.jpg,197,,,,,0,197,197,197,,,,,,,,,,,,,,,,,,,7.822265625,-10.6640625,1,0,0,0.987543821335,,,2015_Sep_10_0937,G,facesParametric,3,59.8093483478,
./stim/MorphF1_09_orig.jpg,198,,,,,0,198,198,198,,,,,,,,,,,,,,,,,,,7.67578125,-10.4296875,0,0,1,5.42925000191,,,2015_Sep_10_0937,G,facesParametric,3,59.8093483478,
./stim/MorphM9_08_orig.jpg,199,,,,,0,199,199,199,,,,,,,,,,,,,,,,,,,7.119140625,-12.041015625,1,0,0,15.217208147,,,2015_Sep_10_0937,G,facesParametric,3,59.8093483478,
./stim/MorphF10_01_orig.jpg,200,,,,,0,200,200,200,,,,,,,,,,,,,,,,,,,7.060546875,-11.806640625,1,0,0,0.986439943314,,,2015_Sep_10_0937,G,facesParametric,3,59.8093483478,
./stim/MorphM10_00_orig.jpg,201,,,,,0,201,201,201,,,,,,,,,,,,,,,,,,,7.03125,-11.220703125,1,0,0,0.751117944717,,,2015_Sep_10_0937,G,facesParametric,3,59.8093483478,
./stim/MorphM2_00_orig.jpg,202,,,,,0,202,202,202,,,,,,,,,,,,,,,,,,,7.03125,-11.19140625,1,0,0,0.71836400032,,,2015_Sep_10_0937,G,facesParametric,3,59.8093483478,
./stim/MorphM9_01_orig.jpg,203,,,,,0,203,203,203,,,,,,,,,,,,,,,,,,,7.03125,-11.19140625,1,0,0,0.803488969803,,,2015_Sep_10_0937,G,facesParametric,3,59.8093483478,
./stim/MorphF7_09_orig.jpg,204,,,,,0,204,204,204,,,,,,,,,,,,,,,,,,,7.03125,-11.103515625,0,0,1,1.3733420372,,,2015_Sep_10_0937,G,facesParametric,3,59.8093483478,
./stim/MorphF9_00_orig.jpg,205,,,,,0,205,205,205,,,,,,,,,,,,,,,,,,,11.572265625,-12.7734375,1,0,0,12.2998709679,,,2015_Sep_10_0937,G,facesParametric,3,59.8093483478,
./stim/MorphM2_02_orig.jpg,206,,,,,0,206,206,206,,,,,,,,,,,,,,,,,,,9.169921875,3.017578125,1,0,0,14.2614431381,,,2015_Sep_10_0937,G,facesParametric,3,59.8093483478,
./stim/MorphF8_05_orig.jpg,207,,,,,0,207,207,207,,,,,,,,,,,,,,,,,,,8.935546875,2.2265625,1,0,0,5.14377403259,,,2015_Sep_10_0937,G,facesParametric,3,59.8093483478,
./stim/MorphF3_09_orig.jpg,208,,,,,0,208,208,208,,,,,,,,,,,,,,,,,,,7.294921875,-1.083984375,1,0,0,7.54016780853,,,2015_Sep_10_0937,G,facesParametric,3,59.8093483478,
./stim/MorphM5_10_orig.jpg,209,,,,,0,209,209,209,,,,,,,,,,,,,,,,,,,8.61328125,-0.17578125,0,0,1,3.26756000519,,,2015_Sep_10_0937,G,facesParametric,3,59.8093483478,
./stim/MorphM8_08_orig.jpg,210,,,,,0,210,210,210,,,,,,,,,,,,,,,,,,,8.759765625,-0.087890625,0,0,1,3.11513900757,,,2015_Sep_10_0937,G,facesParametric,3,59.8093483478,
./stim/MorphM3_07_orig.jpg,211,,,,,0,211,211,211,,,,,,,,,,,,,,,,,,,8.759765625,-0.087890625,0,0,1,0.686226844788,,,2015_Sep_10_0937,G,facesParametric,3,59.8093483478,
./stim/MorphM5_06_orig.jpg,212,,,,,0,212,212,212,,,,,,,,,,,,,,,,,,,9.052734375,0.087890625,1,0,0,1.52391695976,,,2015_Sep_10_0937,G,facesParametric,3,59.8093483478,
./stim/MorphF5_09_orig.jpg,213,,,,,0,213,213,213,,,,,,,,,,,,,,,,,,,9.375,0.322265625,0,0,1,1.35660600662,,,2015_Sep_10_0937,G,facesParametric,3,59.8093483478,
./stim/MorphF8_06_orig.jpg,214,,,,,0,214,214,214,,,,,,,,,,,,,,,,,,,11.30859375,-4.1015625,1,0,0,3.5663728714,,,2015_Sep_10_0937,G,facesParametric,3,59.8093483478,
./stim/MorphF5_04_orig.jpg,215,,,,,0,215,215,215,,,,,,,,,,,,,,,,,,,11.396484375,-3.984375,1,0,0,6.28383398056,,,2015_Sep_10_0937,G,facesParametric,3,59.8093483478,
./stim/MorphM2_04_orig.jpg,216,,,,,0,216,216,216,,,,,,,,,,,,,,,,,,,11.396484375,-3.984375,1,0,0,0.819856882095,,,2015_Sep_10_0937,G,facesParametric,3,59.8093483478,
./stim/MorphF2_05_orig.jpg,217,,,,,0,217,217,217,,,,,,,,,,,,,,,,,,,11.3671875,-3.92578125,0,0,1,2.41129803658,,,2015_Sep_10_0937,G,facesParametric,3,59.8093483478,
./stim/MorphM7_01_orig.jpg,218,,,,,0,218,218,218,,,,,,,,,,,,,,,,,,,11.279296875,-3.955078125,0,0,1,0.802628040314,,,2015_Sep_10_0937,G,facesParametric,3,59.8093483478,
./stim/MorphF10_09_orig.jpg,219,,,,,0,219,219,219,,,,,,,,,,,,,,,,,,,11.279296875,-3.955078125,0,0,1,0.736375808716,,,2015_Sep_10_0937,G,facesParametric,3,59.8093483478,
,,,,,,,,,,,,,,,,,,,,,,,,,,,,,,,,,,return,51.9718399048,2015_Sep_10_0937,G,facesParametric,3,59.8093483478,
./stim/MorphM6_10_orig.jpg,0,,,,,,,,,0,0,0,0,,,,,,,,,,,,,,,-19.5703125,-11.66015625,0,0,1,9.86152601242,,,2015_Sep_10_0937,G,facesParametric,3,59.8093483478,
./stim/MorphF9_04_orig.jpg,1,,,,,,,,,0,1,1,1,,,,,,,,,,,,,,,-19.5703125,-11.66015625,1,0,0,0.919730901718,,,2015_Sep_10_0937,G,facesParametric,3,59.8093483478,
./stim/MorphM3_03_orig.jpg,2,,,,,,,,,0,2,2,2,,,,,,,,,,,,,,,-19.482421875,-11.54296875,1,0,0,1.18864798546,,,2015_Sep_10_0937,G,facesParametric,3,59.8093483478,
./stim/MorphM1_00_orig.jpg,3,,,,,,,,,0,3,3,3,,,,,,,,,,,,,,,-19.482421875,-11.54296875,1,0,0,1.30590510368,,,2015_Sep_10_0937,G,facesParametric,3,59.8093483478,
./stim/MorphM6_09_orig.jpg,4,,,,,,,,,0,4,4,4,,,,,,,,,,,,,,,-19.453125,-11.484375,0,0,1,10.9596087933,,,2015_Sep_10_0937,G,facesParametric,3,59.8093483478,
./stim/MorphM10_02_orig.jpg,5,,,,,,,,,0,5,5,5,,,,,,,,,,,,,,,-19.423828125,-11.455078125,0,0,1,1.3224670887,,,2015_Sep_10_0937,G,facesParametric,3,59.8093483478,
./stim/MorphM3_06_orig.jpg,6,,,,,,,,,0,6,6,6,,,,,,,,,,,,,,,-19.951171875,-11.455078125,0,0,1,5.64699482918,,,2015_Sep_10_0937,G,facesParametric,3,59.8093483478,
./stim/MorphM7_08_orig.jpg,7,,,,,,,,,0,7,7,7,,,,,,,,,,,,,,,-19.951171875,-11.455078125,0,0,1,0.903847932816,,,2015_Sep_10_0937,G,facesParametric,3,59.8093483478,
./stim/MorphM6_04_orig.jpg,8,,,,,,,,,0,8,8,8,,,,,,,,,,,,,,,-19.951171875,-11.455078125,1,0,0,1.1027739048,,,2015_Sep_10_0937,G,facesParametric,3,59.8093483478,
./stim/MorphM2_05_orig.jpg,9,,,,,,,,,0,9,9,9,,,,,,,,,,,,,,,-19.951171875,-11.455078125,1,0,0,0.769211053848,,,2015_Sep_10_0937,G,facesParametric,3,59.8093483478,
./stim/MorphM3_01_orig.jpg,10,,,,,,,,,0,10,10,10,,,,,,,,,,,,,,,-19.951171875,-11.455078125,1,0,0,1.23943996429,,,2015_Sep_10_0937,G,facesParametric,3,59.8093483478,
./stim/MorphF1_03_orig.jpg,11,,,,,,,,,0,11,11,11,,,,,,,,,,,,,,,-19.951171875,-11.455078125,1,0,0,0.752598047256,,,2015_Sep_10_0937,G,facesParametric,3,59.8093483478,
./stim/MorphF8_09_orig.jpg,12,,,,,,,,,0,12,12,12,,,,,,,,,,,,,,,-19.951171875,-11.455078125,0,0,1,1.07085084915,,,2015_Sep_10_0937,G,facesParametric,3,59.8093483478,
./stim/MorphF3_01_orig.jpg,13,,,,,,,,,0,13,13,13,,,,,,,,,,,,,,,-19.951171875,-11.455078125,1,0,0,1.52180409431,,,2015_Sep_10_0937,G,facesParametric,3,59.8093483478,
./stim/MorphF7_03_orig.jpg,14,,,,,,,,,0,14,14,14,,,,,,,,,,,,,,,-19.951171875,-11.455078125,1,0,0,2.89847517014,,,2015_Sep_10_0937,G,facesParametric,3,59.8093483478,
./stim/MorphM1_05_orig.jpg,15,,,,,,,,,0,15,15,15,,,,,,,,,,,,,,,-20.0390625,-11.396484375,1,0,0,13.1213610172,,,2015_Sep_10_0937,G,facesParametric,3,59.8093483478,
./stim/MorphM5_08_orig.jpg,16,,,,,,,,,0,16,16,16,,,,,,,,,,,,,,,-20.0390625,-11.396484375,0,0,1,1.54054188728,,,2015_Sep_10_0937,G,facesParametric,3,59.8093483478,
./stim/MorphF7_01_orig.jpg,17,,,,,,,,,0,17,17,17,,,,,,,,,,,,,,,-20.009765625,-11.396484375,1,0,0,1.42358899117,,,2015_Sep_10_0937,G,facesParametric,3,59.8093483478,
./stim/MorphF1_10_orig.jpg,18,,,,,,,,,0,18,18,18,,,,,,,,,,,,,,,-6.064453125,-12.333984375,1,0,0,19.7079648972,,,2015_Sep_10_0937,G,facesParametric,3,59.8093483478,
./stim/MorphF9_06_orig.jpg,19,,,,,,,,,0,19,19,19,,,,,,,,,,,,,,,-6.064453125,-12.3046875,1,0,0,1.32295203209,,,2015_Sep_10_0937,G,facesParametric,3,59.8093483478,
./stim/MorphM4_00_orig.jpg,20,,,,,,,,,0,20,20,20,,,,,,,,,,,,,,,-6.73828125,-12.041015625,1,0,0,3.90221190453,,,2015_Sep_10_0937,G,facesParametric,3,59.8093483478,
./stim/MorphM10_08_orig.jpg,21,,,,,,,,,0,21,21,21,,,,,,,,,,,,,,,-6.73828125,-12.041015625,0,0,1,1.17050504684,,,2015_Sep_10_0937,G,facesParametric,3,59.8093483478,
./stim/MorphF8_07_orig.jpg,22,,,,,,,,,0,22,22,22,,,,,,,,,,,,,,,-7.646484375,-12.568359375,1,0,0,2.96505498886,,,2015_Sep_10_0937,G,facesParametric,3,59.8093483478,
./stim/MorphF6_02_orig.jpg,23,,,,,,,,,0,23,23,23,,,,,,,,,,,,,,,-7.646484375,-12.568359375,1,0,0,1.05299115181,,,2015_Sep_10_0937,G,facesParametric,3,59.8093483478,
./stim/MorphM2_08_orig.jpg,24,,,,,,,,,0,24,24,24,,,,,,,,,,,,,,,-7.646484375,-12.568359375,1,0,0,10.0694379807,,,2015_Sep_10_0937,G,facesParametric,3,59.8093483478,
./stim/MorphF9_05_orig.jpg,25,,,,,,,,,0,25,25,25,,,,,,,,,,,,,,,-7.646484375,-12.568359375,1,0,0,2.56311988831,,,2015_Sep_10_0937,G,facesParametric,3,59.8093483478,
./stim/MorphF1_08_orig.jpg,26,,,,,,,,,0,26,26,26,,,,,,,,,,,,,,,-7.646484375,-12.568359375,1,0,0,1.47496795654,,,2015_Sep_10_0937,G,facesParametric,3,59.8093483478,
./stim/MorphF6_09_orig.jpg,27,,,,,,,,,0,27,27,27,,,,,,,,,,,,,,,-7.646484375,-12.568359375,0,0,1,1.11990594864,,,2015_Sep_10_0937,G,facesParametric,3,59.8093483478,
./stim/MorphF2_09_orig.jpg,28,,,,,,,,,0,28,28,28,,,,,,,,,,,,,,,-7.646484375,-12.568359375,0,0,1,0.920196056366,,,2015_Sep_10_0937,G,facesParametric,3,59.8093483478,
./stim/MorphF1_04_orig.jpg,29,,,,,,,,,0,29,29,29,,,,,,,,,,,,,,,-7.6171875,-12.59765625,1,0,0,1.15560507774,,,2015_Sep_10_0937,G,facesParametric,3,59.8093483478,
./stim/MorphM4_06_orig.jpg,30,,,,,,,,,0,30,30,30,,,,,,,,,,,,,,,-7.6171875,-12.59765625,0,0,1,0.920839071274,,,2015_Sep_10_0937,G,facesParametric,3,59.8093483478,
./stim/MorphM5_04_orig.jpg,31,,,,,,,,,0,31,31,31,,,,,,,,,,,,,,,-7.6171875,-12.59765625,1,0,0,3.46882200241,,,2015_Sep_10_0937,G,facesParametric,3,59.8093483478,
./stim/MorphF10_02_orig.jpg,32,,,,,,,,,0,32,32,32,,,,,,,,,,,,,,,-7.6171875,-12.59765625,1,0,0,6.38352799416,,,2015_Sep_10_0937,G,facesParametric,3,59.8093483478,
./stim/MorphF6_05_orig.jpg,33,,,,,,,,,0,33,33,33,,,,,,,,,,,,,,,-7.6171875,-12.59765625,1,0,0,6.61910295486,,,2015_Sep_10_0937,G,facesParametric,3,59.8093483478,
./stim/MorphF8_01_orig.jpg,34,,,,,,,,,0,34,34,34,,,,,,,,,,,,,,,-7.646484375,-12.59765625,1,0,0,2.26134896278,,,2015_Sep_10_0937,G,facesParametric,3,59.8093483478,
./stim/MorphM2_06_orig.jpg,35,,,,,,,,,0,35,35,35,,,,,,,,,,,,,,,-2.109375,-13.154296875,1,0,0,19.0870800018,,,2015_Sep_10_0937,G,facesParametric,3,59.8093483478,
./stim/MorphM9_02_orig.jpg,36,,,,,,,,,0,36,36,36,,,,,,,,,,,,,,,-2.109375,-13.154296875,1,0,0,1.22153782845,,,2015_Sep_10_0937,G,facesParametric,3,59.8093483478,
./stim/MorphM5_03_orig.jpg,37,,,,,,,,,0,37,37,37,,,,,,,,,,,,,,,-2.109375,-13.125,1,0,0,0.986179113388,,,2015_Sep_10_0937,G,facesParametric,3,59.8093483478,
./stim/MorphM4_01_orig.jpg,38,,,,,,,,,0,38,38,38,,,,,,,,,,,,,,,-0.205078125,-10.693359375,1,0,0,4.27335000038,,,2015_Sep_10_0937,G,facesParametric,3,59.8093483478,
./stim/MorphM6_05_orig.jpg,39,,,,,,,,,0,39,39,39,,,,,,,,,,,,,,,4.98046875,-10.3125,1,0,0,5.20852017403,,,2015_Sep_10_0937,G,facesParametric,3,59.8093483478,
./stim/MorphF4_02_orig.jpg,40,,,,,,,,,0,40,40,40,,,,,,,,,,,,,,,5.44921875,-10.13671875,1,0,0,6.88667798042,,,2015_Sep_10_0937,G,facesParametric,3,59.8093483478,
./stim/MorphM9_03_orig.jpg,41,,,,,,,,,0,41,41,41,,,,,,,,,,,,,,,1.46484375,-9.287109375,1,0,0,12.9538390636,,,2015_Sep_10_0937,G,facesParametric,3,59.8093483478,
./stim/MorphF4_06_orig.jpg,42,,,,,,,,,0,42,42,42,,,,,,,,,,,,,,,1.494140625,-9.2578125,0,0,1,1.55747485161,,,2015_Sep_10_0937,G,facesParametric,3,59.8093483478,
./stim/MorphF5_00_orig.jpg,43,,,,,,,,,0,43,43,43,,,,,,,,,,,,,,,1.494140625,-9.2578125,1,0,0,0.987876176834,,,2015_Sep_10_0937,G,facesParametric,3,59.8093483478,
./stim/MorphM7_04_orig.jpg,44,,,,,,,,,0,44,44,44,,,,,,,,,,,,,,,1.611328125,-9.2578125,0,0,1,2.34526777267,,,2015_Sep_10_0937,G,facesParametric,3,59.8093483478,
./stim/MorphF1_07_orig.jpg,45,,,,,,,,,0,45,45,45,,,,,,,,,,,,,,,2.87109375,-11.044921875,1,0,0,24.5852189064,,,2015_Sep_10_0937,G,facesParametric,3,59.8093483478,
./stim/MorphF7_02_orig.jpg,46,,,,,,,,,0,46,46,46,,,,,,,,,,,,,,,2.87109375,-11.044921875,1,0,0,1.12138605118,,,2015_Sep_10_0937,G,facesParametric,3,59.8093483478,
./stim/MorphF3_08_orig.jpg,47,,,,,,,,,0,47,47,47,,,,,,,,,,,,,,,3.076171875,-10.283203125,1,0,0,13.3061289787,,,2015_Sep_10_0937,G,facesParametric,3,59.8093483478,
./stim/MorphM4_03_orig.jpg,48,,,,,,,,,0,48,48,48,,,,,,,,,,,,,,,3.251953125,-10.13671875,1,0,0,1.79206991196,,,2015_Sep_10_0937,G,facesParametric,3,59.8093483478,
./stim/MorphM7_05_orig.jpg,49,,,,,,,,,0,49,49,49,,,,,,,,,,,,,,,4.04296875,-8.90625,0,0,1,3.11577296257,,,2015_Sep_10_0937,G,facesParametric,3,59.8093483478,
./stim/MorphM4_08_orig.jpg,50,,,,,,,,,0,50,50,50,,,,,,,,,,,,,,,4.3359375,-8.671875,0,0,1,2.21008896828,,,2015_Sep_10_0937,G,facesParametric,3,59.8093483478,
./stim/MorphM2_03_orig.jpg,51,,,,,,,,,0,51,51,51,,,,,,,,,,,,,,,4.39453125,-8.61328125,1,0,0,1.08736085892,,,2015_Sep_10_0937,G,facesParametric,3,59.8093483478,
./stim/MorphF3_10_orig.jpg,52,,,,,,,,,0,52,52,52,,,,,,,,,,,,,,,23.203125,-12.744140625,0,0,1,36.6021010876,,,2015_Sep_10_0937,G,facesParametric,3,59.8093483478,
./stim/MorphF6_08_orig.jpg,53,,,,,,,,,0,53,53,53,,,,,,,,,,,,,,,23.408203125,3.10546875,0,0,1,22.3898608685,,,2015_Sep_10_0937,G,facesParametric,3,59.8093483478,
./stim/MorphM3_10_orig.jpg,54,,,,,,,,,0,54,54,54,,,,,,,,,,,,,,,23.408203125,3.1640625,0,0,1,1.06995916367,,,2015_Sep_10_0937,G,facesParametric,3,59.8093483478,
./stim/MorphM10_03_orig.jpg,55,,,,,,,,,0,55,55,55,,,,,,,,,,,,,,,23.37890625,4.98046875,1,0,0,1.60577392578,,,2015_Sep_10_0937,G,facesParametric,3,59.8093483478,
./stim/MorphF2_03_orig.jpg,56,,,,,,,,,0,56,56,56,,,,,,,,,,,,,,,23.408203125,5.185546875,1,0,0,3.80332803726,,,2015_Sep_10_0937,G,facesParametric,3,59.8093483478,
./stim/MorphM7_10_orig.jpg,57,,,,,,,,,0,57,57,57,,,,,,,,,,,,,,,23.408203125,5.21484375,0,0,1,1.12164497375,,,2015_Sep_10_0937,G,facesParametric,3,59.8093483478,
./stim/MorphF8_00_orig.jpg,58,,,,,,,,,0,58,58,58,,,,,,,,,,,,,,,23.349609375,5.244140625,1,0,0,1.30557107925,,,2015_Sep_10_0937,G,facesParametric,3,59.8093483478,
./stim/MorphF7_07_orig.jpg,59,,,,,,,,,0,59,59,59,,,,,,,,,,,,,,,23.3203125,5.33203125,1,0,0,4.82553005219,,,2015_Sep_10_0937,G,facesParametric,3,59.8093483478,
./stim/MorphM8_09_orig.jpg,60,,,,,,,,,0,60,60,60,,,,,,,,,,,,,,,23.26171875,5.361328125,0,0,1,1.42338705063,,,2015_Sep_10_0937,G,facesParametric,3,59.8093483478,
./stim/MorphF5_08_orig.jpg,61,,,,,,,,,0,61,61,61,,,,,,,,,,,,,,,23.26171875,5.361328125,0,0,1,1.25564599037,,,2015_Sep_10_0937,G,facesParametric,3,59.8093483478,
./stim/MorphM8_00_orig.jpg,62,,,,,,,,,0,62,62,62,,,,,,,,,,,,,,,23.115234375,5.44921875,1,0,0,3.83667707443,,,2015_Sep_10_0937,G,facesParametric,3,59.8093483478,
./stim/MorphF4_04_orig.jpg,63,,,,,,,,,0,63,63,63,,,,,,,,,,,,,,,23.408203125,5.56640625,1,0,0,9.08254218102,,,2015_Sep_10_0937,G,facesParametric,3,59.8093483478,
./stim/MorphM8_05_orig.jpg,64,,,,,,,,,0,64,64,64,,,,,,,,,,,,,,,23.408203125,5.56640625,0,0,1,4.85904192924,,,2015_Sep_10_0937,G,facesParametric,3,59.8093483478,
./stim/MorphM1_09_orig.jpg,65,,,,,,,,,0,65,65,65,,,,,,,,,,,,,,,23.408203125,5.56640625,0,0,1,0.937355995178,,,2015_Sep_10_0937,G,facesParametric,3,59.8093483478,
./stim/MorphF8_04_orig.jpg,66,,,,,,,,,0,66,66,66,,,,,,,,,,,,,,,23.232421875,6.09375,1,0,0,1.47353601456,,,2015_Sep_10_0937,G,facesParametric,3,59.8093483478,
./stim/MorphM10_07_orig.jpg,67,,,,,,,,,0,67,67,67,,,,,,,,,,,,,,,5.244140625,-4.98046875,0,0,1,17.4944930077,,,2015_Sep_10_0937,G,facesParametric,3,59.8093483478,
./stim/MorphM5_05_orig.jpg,68,,,,,,,,,0,68,68,68,,,,,,,,,,,,,,,-2.75390625,-9.814453125,1,0,0,15.8703768253,,,2015_Sep_10_0937,G,facesParametric,3,59.8093483478,
./stim/MorphM3_02_orig.jpg,69,,,,,,,,,0,69,69,69,,,,,,,,,,,,,,,-3.779296875,-11.953125,1,0,0,17.812379837,,,2015_Sep_10_0937,G,facesParametric,3,59.8093483478,
./stim/MorphF2_08_orig.jpg,70,,,,,,,,,0,70,70,70,,,,,,,,,,,,,,,-3.779296875,-11.953125,0,0,1,1.27109408379,,,2015_Sep_10_0937,G,facesParametric,3,59.8093483478,
./stim/MorphM5_00_orig.jpg,71,,,,,,,,,0,71,71,71,,,,,,,,,,,,,,,-3.80859375,-11.8359375,1,0,0,1.28920602798,,,2015_Sep_10_0937,G,facesParametric,3,59.8093483478,
./stim/MorphF6_07_orig.jpg,72,,,,,,,,,0,72,72,72,,,,,,,,,,,,,,,-3.779296875,-11.806640625,0,0,1,1.25455904007,,,2015_Sep_10_0937,G,facesParametric,3,59.8093483478,
./stim/MorphM7_07_orig.jpg,73,,,,,,,,,0,73,73,73,,,,,,,,,,,,,,,-3.779296875,-11.806640625,0,0,1,0.853217840195,,,2015_Sep_10_0937,G,facesParametric,3,59.8093483478,
./stim/MorphM4_05_orig.jpg,74,,,,,,,,,0,74,74,74,,,,,,,,,,,,,,,-1.435546875,-13.154296875,1,0,0,11.6136779785,,,2015_Sep_10_0937,G,facesParametric,3,59.8093483478,
./stim/MorphF1_02_orig.jpg,75,,,,,,,,,0,75,75,75,,,,,,,,,,,,,,,-1.435546875,-13.154296875,1,0,0,3.95365405083,,,2015_Sep_10_0937,G,facesParametric,3,59.8093483478,
./stim/MorphM1_03_orig.jpg,76,,,,,,,,,0,76,76,76,,,,,,,,,,,,,,,-1.435546875,-13.154296875,1,0,0,3.66961598396,,,2015_Sep_10_0937,G,facesParametric,3,59.8093483478,
./stim/MorphM6_01_orig.jpg,77,,,,,,,,,0,77,77,77,,,,,,,,,,,,,,,-1.435546875,-13.154296875,1,0,0,4.1366519928,,,2015_Sep_10_0937,G,facesParametric,3,59.8093483478,
./stim/MorphF5_05_orig.jpg,78,,,,,,,,,0,78,78,78,,,,,,,,,,,,,,,-0.5859375,-12.509765625,0,0,1,2.21064996719,,,2015_Sep_10_0937,G,facesParametric,3,59.8093483478,
./stim/MorphF4_10_orig.jpg,79,,,,,,,,,0,79,79,79,,,,,,,,,,,,,,,-0.17578125,-12.509765625,0,0,1,0.869319915771,,,2015_Sep_10_0937,G,facesParametric,3,59.8093483478,
./stim/MorphF9_03_orig.jpg,80,,,,,,,,,0,80,80,80,,,,,,,,,,,,,,,-11.337890625,-11.66015625,1,0,0,38.3449130058,,,2015_Sep_10_0937,G,facesParametric,3,59.8093483478,
./stim/MorphM8_04_orig.jpg,81,,,,,,,,,0,81,81,81,,,,,,,,,,,,,,,-11.30859375,-11.630859375,0,0,1,1.97650504112,,,2015_Sep_10_0937,G,facesParametric,3,59.8093483478,
./stim/MorphF2_04_orig.jpg,82,,,,,,,,,0,82,82,82,,,,,,,,,,,,,,,-11.30859375,-11.630859375,1,0,0,1.62456393242,,,2015_Sep_10_0937,G,facesParametric,3,59.8093483478,
./stim/MorphM10_01_orig.jpg,83,,,,,,,,,0,83,83,83,,,,,,,,,,,,,,,-7.705078125,-11.42578125,1,0,0,5.88132691383,,,2015_Sep_10_0937,G,facesParametric,3,59.8093483478,
./stim/MorphF6_10_orig.jpg,84,,,,,,,,,0,84,84,84,,,,,,,,,,,,,,,-7.6171875,-11.3671875,0,0,1,1.28874182701,,,2015_Sep_10_0937,G,facesParametric,3,59.8093483478,
./stim/MorphF10_00_orig.jpg,85,,,,,,,,,0,85,85,85,,,,,,,,,,,,,,,-7.6171875,-11.3671875,1,0,0,2.44669604301,,,2015_Sep_10_0937,G,facesParametric,3,59.8093483478,
./stim/MorphM10_04_orig.jpg,86,,,,,,,,,0,86,86,86,,,,,,,,,,,,,,,-7.587890625,-11.337890625,0,0,1,1.01998996735,,,2015_Sep_10_0937,G,facesParametric,3,59.8093483478,
./stim/MorphM4_07_orig.jpg,87,,,,,,,,,0,87,87,87,,,,,,,,,,,,,,,-7.55859375,-11.220703125,0,0,1,1.08786201477,,,2015_Sep_10_0937,G,facesParametric,3,59.8093483478,
./stim/MorphF10_07_orig.jpg,88,,,,,,,,,0,88,88,88,,,,,,,,,,,,,,,-3.369140625,-13.154296875,0,0,1,9.24776101112,,,2015_Sep_10_0937,G,facesParametric,3,59.8093483478,
./stim/MorphF8_02_orig.jpg,89,,,,,,,,,0,89,89,89,,,,,,,,,,,,,,,-3.486328125,-12.626953125,1,0,0,1.02021384239,,,2015_Sep_10_0937,G,facesParametric,3,59.8093483478,
./stim/MorphM10_06_orig.jpg,90,,,,,,,,,0,90,90,90,,,,,,,,,,,,,,,-3.486328125,-12.626953125,0,0,1,3.73623204231,,,2015_Sep_10_0937,G,facesParametric,3,59.8093483478,
./stim/MorphF6_06_orig.jpg,91,,,,,,,,,0,91,91,91,,,,,,,,,,,,,,,-12.94921875,-11.279296875,0,0,1,9.29904294014,,,2015_Sep_10_0937,G,facesParametric,3,59.8093483478,
./stim/MorphF2_07_orig.jpg,92,,,,,,,,,0,92,92,92,,,,,,,,,,,,,,,-12.919921875,-11.25,0,0,1,10.5403950214,,,2015_Sep_10_0937,G,facesParametric,3,59.8093483478,
./stim/MorphF3_04_orig.jpg,93,,,,,,,,,0,93,93,93,,,,,,,,,,,,,,,-6.796875,-12.421875,1,0,0,19.5906488895,,,2015_Sep_10_0937,G,facesParametric,3,59.8093483478,
./stim/MorphM10_10_orig.jpg,94,,,,,,,,,0,94,94,94,,,,,,,,,,,,,,,-6.50390625,-11.337890625,0,0,1,5.11037421227,,,2015_Sep_10_0937,G,facesParametric,3,59.8093483478,
./stim/MorphF3_06_orig.jpg,95,,,,,,,,,0,95,95,95,,,,,,,,,,,,,,,-6.73828125,-11.015625,1,0,0,4.37240099907,,,2015_Sep_10_0937,G,facesParametric,3,59.8093483478,
./stim/MorphM8_06_orig.jpg,96,,,,,,,,,0,96,96,96,,,,,,,,,,,,,,,-7.1484375,-11.162109375,1,0,0,19.9430580139,,,2015_Sep_10_0937,G,facesParametric,3,59.8093483478,
./stim/MorphM4_02_orig.jpg,97,,,,,,,,,0,97,97,97,,,,,,,,,,,,,,,-17.34375,8.96484375,1,0,0,109.03721714,,,2015_Sep_10_0937,G,facesParametric,3,59.8093483478,
./stim/MorphF9_08_orig.jpg,98,,,,,,,,,0,98,98,98,,,,,,,,,,,,,,,-17.34375,8.96484375,0,0,1,1.53902006149,,,2015_Sep_10_0937,G,facesParametric,3,59.8093483478,
./stim/MorphF3_07_orig.jpg,99,,,,,,,,,0,99,99,99,,,,,,,,,,,,,,,-17.34375,9.0234375,1,0,0,4.40649795532,,,2015_Sep_10_0937,G,facesParametric,3,59.8093483478,
./stim/MorphM10_09_orig.jpg,100,,,,,,,,,0,100,100,100,,,,,,,,,,,,,,,-17.34375,9.052734375,0,0,1,2.26093912125,,,2015_Sep_10_0937,G,facesParametric,3,59.8093483478,
./stim/MorphM4_04_orig.jpg,101,,,,,,,,,0,101,101,101,,,,,,,,,,,,,,,-17.34375,9.052734375,0,0,1,2.6289730072,,,2015_Sep_10_0937,G,facesParametric,3,59.8093483478,
./stim/MorphM6_07_orig.jpg,102,,,,,,,,,0,102,102,102,,,,,,,,,,,,,,,-14.736328125,10.517578125,1,0,0,8.91425800323,,,2015_Sep_10_0937,G,facesParametric,3,59.8093483478,
./stim/MorphF4_01_orig.jpg,103,,,,,,,,,0,103,103,103,,,,,,,,,,,,,,,-14.765625,10.517578125,1,0,0,2.04229784012,,,2015_Sep_10_0937,G,facesParametric,3,59.8093483478,
./stim/MorphF10_06_orig.jpg,104,,,,,,,,,0,104,104,104,,,,,,,,,,,,,,,-14.765625,10.517578125,0,0,1,1.52179598808,,,2015_Sep_10_0937,G,facesParametric,3,59.8093483478,
./stim/MorphM3_00_orig.jpg,105,,,,,,,,,0,105,105,105,,,,,,,,,,,,,,,-14.765625,10.517578125,1,0,0,2.64644789696,,,2015_Sep_10_0937,G,facesParametric,3,59.8093483478,
./stim/MorphF7_08_orig.jpg,106,,,,,,,,,0,106,106,106,,,,,,,,,,,,,,,-14.765625,10.517578125,0,0,1,1.07076621056,,,2015_Sep_10_0937,G,facesParametric,3,59.8093483478,
./stim/MorphF1_06_orig.jpg,107,,,,,,,,,0,107,107,107,,,,,,,,,,,,,,,-15.263671875,9.755859375,0,0,1,5.62962293625,,,2015_Sep_10_0937,G,facesParametric,3,59.8093483478,
./stim/MorphM7_02_orig.jpg,108,,,,,,,,,0,108,108,108,,,,,,,,,,,,,,,-15.263671875,9.755859375,0,0,1,0.8533680439,,,2015_Sep_10_0937,G,facesParametric,3,59.8093483478,
./stim/MorphM5_02_orig.jpg,109,,,,,,,,,0,109,109,109,,,,,,,,,,,,,,,-15.380859375,9.814453125,0,0,1,4.33621692657,,,2015_Sep_10_0937,G,facesParametric,3,59.8093483478,
./stim/MorphM6_08_orig.jpg,110,,,,,,,,,0,110,110,110,,,,,,,,,,,,,,,-15.380859375,9.814453125,0,0,1,2.99837493896,,,2015_Sep_10_0937,G,facesParametric,3,59.8093483478,
./stim/MorphF6_01_orig.jpg,111,,,,,,,,,0,111,111,111,,,,,,,,,,,,,,,-15.41015625,9.84375,1,0,0,1.07121109962,,,2015_Sep_10_0937,G,facesParametric,3,59.8093483478,
./stim/MorphM3_08_orig.jpg,112,,,,,,,,,0,112,112,112,,,,,,,,,,,,,,,-15.3515625,9.873046875,0,0,1,1.02085399628,,,2015_Sep_10_0937,G,facesParametric,3,59.8093483478,
./stim/MorphF2_06_orig.jpg,113,,,,,,,,,0,113,113,113,,,,,,,,,,,,,,,-6.767578125,7.265625,0,0,1,9.86933803558,,,2015_Sep_10_0937,G,facesParametric,3,59.8093483478,
./stim/MorphM9_05_orig.jpg,114,,,,,,,,,0,114,114,114,,,,,,,,,,,,,,,-3.369140625,-4.482421875,1,0,0,22.3524739742,,,2015_Sep_10_0937,G,facesParametric,3,59.8093483478,
./stim/MorphM7_06_orig.jpg,115,,,,,,,,,0,115,115,115,,,,,,,,,,,,,,,-3.33984375,-4.51171875,0,0,1,4.00394201279,,,2015_Sep_10_0937,G,facesParametric,3,59.8093483478,
./stim/MorphF7_00_orig.jpg,116,,,,,,,,,0,116,116,116,,,,,,,,,,,,,,,-3.662109375,-4.248046875,1,0,0,1.47311401367,,,2015_Sep_10_0937,G,facesParametric,3,59.8093483478,
./stim/MorphM7_00_orig.jpg,117,,,,,,,,,0,117,117,117,,,,,,,,,,,,,,,-3.69140625,-4.27734375,0,0,1,0.869473934174,,,2015_Sep_10_0937,G,facesParametric,3,59.8093483478,
./stim/MorphM6_02_orig.jpg,118,,,,,,,,,0,118,118,118,,,,,,,,,,,,,,,-3.720703125,-4.248046875,1,0,0,2.14232301712,,,2015_Sep_10_0937,G,facesParametric,3,59.8093483478,
./stim/MorphF7_04_orig.jpg,119,,,,,,,,,0,119,119,119,,,,,,,,,,,,,,,-3.837890625,-4.27734375,1,0,0,8.5794839859,,,2015_Sep_10_0937,G,facesParametric,3,59.8093483478,
./stim/MorphF4_00_orig.jpg,120,,,,,,,,,0,120,120,120,,,,,,,,,,,,,,,-3.8671875,-4.306640625,1,0,0,1.0382039547,,,2015_Sep_10_0937,G,facesParametric,3,59.8093483478,
./stim/MorphF9_07_orig.jpg,121,,,,,,,,,0,121,121,121,,,,,,,,,,,,,,,-3.837890625,-4.3359375,0,0,1,2.04339885712,,,2015_Sep_10_0937,G,facesParametric,3,59.8093483478,
./stim/MorphF4_05_orig.jpg,122,,,,,,,,,0,122,122,122,,,,,,,,,,,,,,,-2.63671875,-3.515625,1,0,0,18.2834420204,,,2015_Sep_10_0937,G,facesParametric,3,59.8093483478,
./stim/MorphF5_10_orig.jpg,123,,,,,,,,,0,123,123,123,,,,,,,,,,,,,,,-2.63671875,-3.515625,0,0,1,1.20501589775,,,2015_Sep_10_0937,G,facesParametric,3,59.8093483478,
./stim/MorphM9_06_orig.jpg,124,,,,,,,,,0,124,124,124,,,,,,,,,,,,,,,-2.607421875,-0.966796875,0,0,1,5.78075504303,,,2015_Sep_10_0937,G,facesParametric,3,59.8093483478,
./stim/MorphF1_00_orig.jpg,125,,,,,,,,,0,125,125,125,,,,,,,,,,,,,,,-2.607421875,-0.966796875,1,0,0,2.64458799362,,,2015_Sep_10_0937,G,facesParametric,3,59.8093483478,
./stim/MorphF5_07_orig.jpg,126,,,,,,,,,0,126,126,126,,,,,,,,,,,,,,,-2.63671875,-0.9375,0,0,1,2.21020007133,,,2015_Sep_10_0937,G,facesParametric,3,59.8093483478,
./stim/MorphM6_06_orig.jpg,127,,,,,,,,,0,127,127,127,,,,,,,,,,,,,,,-2.63671875,-0.9375,0,0,1,2.14229607582,,,2015_Sep_10_0937,G,facesParametric,3,59.8093483478,
./stim/MorphF2_00_orig.jpg,128,,,,,,,,,0,128,128,128,,,,,,,,,,,,,,,-2.578125,-0.87890625,0,0,1,2.44558811188,,,2015_Sep_10_0937,G,facesParametric,3,59.8093483478,
./stim/MorphM6_03_orig.jpg,129,,,,,,,,,0,129,129,129,,,,,,,,,,,,,,,-2.548828125,-0.849609375,1,0,0,2.57993197441,,,2015_Sep_10_0937,G,facesParametric,3,59.8093483478,
./stim/MorphM3_04_orig.jpg,130,,,,,,,,,0,130,130,130,,,,,,,,,,,,,,,-0.99609375,-6.884765625,0,0,1,15.6187109947,,,2015_Sep_10_0937,G,facesParametric,3,59.8093483478,
./stim/MorphM8_01_orig.jpg,131,,,,,,,,,0,131,131,131,,,,,,,,,,,,,,,-0.99609375,-6.884765625,0,0,1,13.2888450623,,,2015_Sep_10_0937,G,facesParametric,3,59.8093483478,
./stim/MorphM1_06_orig.jpg,132,,,,,,,,,0,132,132,132,,,,,,,,,,,,,,,-0.99609375,-6.884765625,1,0,0,7.84057378769,,,2015_Sep_10_0937,G,facesParametric,3,59.8093483478,
./stim/MorphM2_09_orig.jpg,133,,,,,,,,,0,133,133,133,,,,,,,,,,,,,,,-0.99609375,-6.884765625,0,0,1,1.2548520565,,,2015_Sep_10_0937,G,facesParametric,3,59.8093483478,
./stim/MorphF2_01_orig.jpg,134,,,,,,,,,0,134,134,134,,,,,,,,,,,,,,,-1.025390625,-6.85546875,1,0,0,1.95967102051,,,2015_Sep_10_0937,G,facesParametric,3,59.8093483478,
./stim/MorphM5_01_orig.jpg,135,,,,,,,,,0,135,135,135,,,,,,,,,,,,,,,-1.025390625,-6.85546875,1,0,0,1.64121103287,,,2015_Sep_10_0937,G,facesParametric,3,59.8093483478,
./stim/MorphF8_03_orig.jpg,136,,,,,,,,,0,136,136,136,,,,,,,,,,,,,,,-1.025390625,-6.85546875,1,0,0,0.801648855209,,,2015_Sep_10_0937,G,facesParametric,3,59.8093483478,
./stim/MorphF10_03_orig.jpg,137,,,,,,,,,0,137,137,137,,,,,,,,,,,,,,,-0.9375,-6.650390625,1,0,0,5.5460588932,,,2015_Sep_10_0937,G,facesParametric,3,59.8093483478,
./stim/MorphM7_09_orig.jpg,138,,,,,,,,,0,138,138,138,,,,,,,,,,,,,,,-0.9375,-6.650390625,0,0,1,0.818933963776,,,2015_Sep_10_0937,G,facesParametric,3,59.8093483478,
./stim/MorphM9_00_orig.jpg,139,,,,,,,,,0,139,139,139,,,,,,,,,,,,,,,6.328125,-10.25390625,1,0,0,17.5629000664,,,2015_Sep_10_0937,G,facesParametric,3,59.8093483478,
./stim/MorphM3_05_orig.jpg,140,,,,,,,,,0,140,140,140,,,,,,,,,,,,,,,5.91796875,-6.474609375,0,0,1,2.84780097008,,,2015_Sep_10_0937,G,facesParametric,3,59.8093483478,
./stim/MorphM1_07_orig.jpg,141,,,,,,,,,0,141,141,141,,,,,,,,,,,,,,,5.888671875,-6.474609375,0,0,1,1.49072909355,,,2015_Sep_10_0937,G,facesParametric,3,59.8093483478,
./stim/MorphM9_07_orig.jpg,142,,,,,,,,,0,142,142,142,,,,,,,,,,,,,,,5.859375,-6.4453125,0,0,1,1.60800600052,,,2015_Sep_10_0937,G,facesParametric,3,59.8093483478,
./stim/MorphF3_03_orig.jpg,143,,,,,,,,,0,143,143,143,,,,,,,,,,,,,,,5.09765625,-7.08984375,1,0,0,2.8975520134,,,2015_Sep_10_0937,G,facesParametric,3,59.8093483478,
./stim/MorphF4_07_orig.jpg,144,,,,,,,,,0,144,144,144,,,,,,,,,,,,,,,8.02734375,-3.369140625,0,0,1,1.35647106171,,,2015_Sep_10_0937,G,facesParametric,3,59.8093483478,
./stim/MorphM2_10_orig.jpg,145,,,,,,,,,0,145,145,145,,,,,,,,,,,,,,,8.056640625,-3.33984375,0,0,1,0.969122886658,,,2015_Sep_10_0937,G,facesParametric,3,59.8093483478,
./stim/MorphF7_06_orig.jpg,146,,,,,,,,,0,146,146,146,,,,,,,,,,,,,,,7.939453125,-2.34375,0,0,1,1.62245798111,,,2015_Sep_10_0937,G,facesParametric,3,59.8093483478,
./stim/MorphM8_02_orig.jpg,147,,,,,,,,,0,147,147,147,,,,,,,,,,,,,,,7.294921875,-2.138671875,0,0,1,1.70826101303,,,2015_Sep_10_0937,G,facesParametric,3,59.8093483478,
./stim/MorphF3_05_orig.jpg,148,,,,,,,,,0,148,148,148,,,,,,,,,,,,,,,6.38671875,-1.9921875,1,0,0,1.17219996452,,,2015_Sep_10_0937,G,facesParametric,3,59.8093483478,
./stim/MorphF6_04_orig.jpg,149,,,,,,,,,0,149,149,149,,,,,,,,,,,,,,,6.38671875,-1.9921875,1,0,0,1.0541138649,,,2015_Sep_10_0937,G,facesParametric,3,59.8093483478,
./stim/MorphM4_10_orig.jpg,150,,,,,,,,,0,150,150,150,,,,,,,,,,,,,,,6.357421875,-1.962890625,0,0,1,1.1547358036,,,2015_Sep_10_0937,G,facesParametric,3,59.8093483478,
./stim/MorphF10_08_orig.jpg,151,,,,,,,,,0,151,151,151,,,,,,,,,,,,,,,6.357421875,-1.962890625,0,0,1,1.2565639019,,,2015_Sep_10_0937,G,facesParametric,3,59.8093483478,
./stim/MorphF5_02_orig.jpg,152,,,,,,,,,0,152,152,152,,,,,,,,,,,,,,,6.38671875,-1.904296875,1,0,0,1.10484480858,,,2015_Sep_10_0937,G,facesParametric,3,59.8093483478,
./stim/MorphF1_05_orig.jpg,153,,,,,,,,,0,153,153,153,,,,,,,,,,,,,,,5.654296875,-0.17578125,0,0,1,10.8240208626,,,2015_Sep_10_0937,G,facesParametric,3,59.8093483478,
./stim/MorphF9_09_orig.jpg,154,,,,,,,,,0,154,154,154,,,,,,,,,,,,,,,-6.796875,-9.755859375,0,0,1,6.31715703011,,,2015_Sep_10_0937,G,facesParametric,3,59.8093483478,
./stim/MorphF5_03_orig.jpg,155,,,,,,,,,0,155,155,155,,,,,,,,,,,,,,,3.486328125,-9.873046875,0,0,1,7.64141321182,,,2015_Sep_10_0937,G,facesParametric,3,59.8093483478,
./stim/MorphF4_03_orig.jpg,156,,,,,,,,,0,156,156,156,,,,,,,,,,,,,,,3.8671875,-9.2578125,1,0,0,1.17223501205,,,2015_Sep_10_0937,G,facesParametric,3,59.8093483478,
./stim/MorphF5_01_orig.jpg,157,,,,,,,,,0,157,157,157,,,,,,,,,,,,,,,3.8671875,-9.2578125,0,0,1,1.35420084,,,2015_Sep_10_0937,G,facesParametric,3,59.8093483478,
./stim/MorphM1_01_orig.jpg,158,,,,,,,,,0,158,158,158,,,,,,,,,,,,,,,4.306640625,-8.994140625,1,0,0,2.6300330162,,,2015_Sep_10_0937,G,facesParametric,3,59.8093483478,
./stim/MorphF9_02_orig.jpg,159,,,,,,,,,0,159,159,159,,,,,,,,,,,,,,,4.306640625,-8.994140625,1,0,0,2.27825903893,,,2015_Sep_10_0937,G,facesParametric,3,59.8093483478,
./stim/MorphF2_02_orig.jpg,160,,,,,,,,,0,160,160,160,,,,,,,,,,,,,,,4.3359375,-8.96484375,1,0,0,1.44003820419,,,2015_Sep_10_0937,G,facesParametric,3,59.8093483478,
./stim/MorphM8_10_orig.jpg,161,,,,,,,,,0,161,161,161,,,,,,,,,,,,,,,4.5703125,-9.08203125,0,0,1,2.89798092842,,,2015_Sep_10_0937,G,facesParametric,3,59.8093483478,
./stim/MorphM1_10_orig.jpg,162,,,,,,,,,0,162,162,162,,,,,,,,,,,,,,,4.5703125,-9.08203125,0,0,1,1.02124810219,,,2015_Sep_10_0937,G,facesParametric,3,59.8093483478,
./stim/MorphF10_04_orig.jpg,163,,,,,,,,,0,163,163,163,,,,,,,,,,,,,,,4.5703125,-9.08203125,0,0,1,3.26544499397,,,2015_Sep_10_0937,G,facesParametric,3,59.8093483478,
./stim/MorphF3_00_orig.jpg,164,,,,,,,,,0,164,164,164,,,,,,,,,,,,,,,4.423828125,-8.818359375,1,0,0,1.22203803062,,,2015_Sep_10_0937,G,facesParametric,3,59.8093483478,
./stim/MorphM2_07_orig.jpg,165,,,,,,,,,0,165,165,165,,,,,,,,,,,,,,,4.27734375,-8.466796875,1,0,0,5.2109978199,,,2015_Sep_10_0937,G,facesParametric,3,59.8093483478,
./stim/MorphF7_05_orig.jpg,166,,,,,,,,,0,166,166,166,,,,,,,,,,,,,,,4.27734375,-8.349609375,0,0,1,1.33884191513,,,2015_Sep_10_0937,G,facesParametric,3,59.8093483478,
./stim/MorphF6_03_orig.jpg,167,,,,,,,,,0,167,167,167,,,,,,,,,,,,,,,4.27734375,-8.349609375,1,0,0,1.13637304306,,,2015_Sep_10_0937,G,facesParametric,3,59.8093483478,
./stim/MorphF3_02_orig.jpg,168,,,,,,,,,0,168,168,168,,,,,,,,,,,,,,,4.248046875,-8.3203125,1,0,0,5.242800951,,,2015_Sep_10_0937,G,facesParametric,3,59.8093483478,
./stim/MorphF1_01_orig.jpg,169,,,,,,,,,0,169,169,169,,,,,,,,,,,,,,,1.23046875,-8.291015625,1,0,0,5.00990581512,,,2015_Sep_10_0937,G,facesParametric,3,59.8093483478,
./stim/MorphM1_04_orig.jpg,170,,,,,,,,,0,170,170,170,,,,,,,,,,,,,,,1.025390625,-8.408203125,1,0,0,8.04316496849,,,2015_Sep_10_0937,G,facesParametric,3,59.8093483478,
./stim/MorphF4_09_orig.jpg,171,,,,,,,,,0,171,171,171,,,,,,,,,,,,,,,0.732421875,-8.583984375,0,0,1,8.83132886887,,,2015_Sep_10_0937,G,facesParametric,3,59.8093483478,
./stim/MorphM6_00_orig.jpg,172,,,,,,,,,0,172,172,172,,,,,,,,,,,,,,,0.5859375,-8.642578125,1,0,0,1.07170319557,,,2015_Sep_10_0937,G,facesParametric,3,59.8093483478,
./stim/MorphM5_09_orig.jpg,173,,,,,,,,,0,173,173,173,,,,,,,,,,,,,,,0.5859375,-8.642578125,0,0,1,1.17164611816,,,2015_Sep_10_0937,G,facesParametric,3,59.8093483478,
./stim/MorphF5_06_orig.jpg,174,,,,,,,,,0,174,174,174,,,,,,,,,,,,,,,0.5859375,-8.642578125,0,0,1,1.03646707535,,,2015_Sep_10_0937,G,facesParametric,3,59.8093483478,
./stim/MorphF9_01_orig.jpg,175,,,,,,,,,0,175,175,175,,,,,,,,,,,,,,,0.556640625,-8.642578125,1,0,0,5.68043279648,,,2015_Sep_10_0937,G,facesParametric,3,59.8093483478,
./stim/MorphM5_07_orig.jpg,176,,,,,,,,,0,176,176,176,,,,,,,,,,,,,,,0.498046875,-8.37890625,0,0,1,1.45686388016,,,2015_Sep_10_0937,G,facesParametric,3,59.8093483478,
./stim/MorphM2_01_orig.jpg,177,,,,,,,,,0,177,177,177,,,,,,,,,,,,,,,0.322265625,-8.14453125,1,0,0,1.39058303833,,,2015_Sep_10_0937,G,facesParametric,3,59.8093483478,
./stim/MorphM7_03_orig.jpg,178,,,,,,,,,0,178,178,178,,,,,,,,,,,,,,,0.29296875,-8.115234375,0,0,1,0.88618683815,,,2015_Sep_10_0937,G,facesParametric,3,59.8093483478,
./stim/MorphM9_09_orig.jpg,179,,,,,,,,,0,179,179,179,,,,,,,,,,,,,,,-0.380859375,-8.26171875,0,0,1,2.21097016335,,,2015_Sep_10_0937,G,facesParametric,3,59.8093483478,
./stim/MorphF9_10_orig.jpg,180,,,,,,,,,0,180,180,180,,,,,,,,,,,,,,,-0.439453125,-8.173828125,0,0,1,0.736326932907,,,2015_Sep_10_0937,G,facesParametric,3,59.8093483478,
./stim/MorphF8_10_orig.jpg,181,,,,,,,,,0,181,181,181,,,,,,,,,,,,,,,-0.439453125,-8.173828125,0,0,1,0.701329946518,,,2015_Sep_10_0937,G,facesParametric,3,59.8093483478,
./stim/MorphF10_10_orig.jpg,182,,,,,,,,,0,182,182,182,,,,,,,,,,,,,,,-0.439453125,-8.173828125,0,0,1,0.819410085678,,,2015_Sep_10_0937,G,facesParametric,3,59.8093483478,
./stim/MorphM3_09_orig.jpg,183,,,,,,,,,0,183,183,183,,,,,,,,,,,,,,,-0.498046875,-7.8515625,0,0,1,1.13861083984,,,2015_Sep_10_0937,G,facesParametric,3,59.8093483478,
./stim/MorphF10_05_orig.jpg,184,,,,,,,,,0,184,184,184,,,,,,,,,,,,,,,-0.498046875,-7.79296875,1,0,0,3.97043800354,,,2015_Sep_10_0937,G,facesParametric,3,59.8093483478,
./stim/MorphF6_00_orig.jpg,185,,,,,,,,,0,185,185,185,,,,,,,,,,,,,,,-0.52734375,-7.734375,1,0,0,0.936371088028,,,2015_Sep_10_0937,G,facesParametric,3,59.8093483478,
./stim/MorphF8_08_orig.jpg,186,,,,,,,,,0,186,186,186,,,,,,,,,,,,,,,-0.556640625,-7.734375,0,0,1,1.69136595726,,,2015_Sep_10_0937,G,facesParametric,3,59.8093483478,
./stim/MorphF7_10_orig.jpg,187,,,,,,,,,0,187,187,187,,,,,,,,,,,,,,,-0.52734375,-7.705078125,0,0,1,1.50545907021,,,2015_Sep_10_0937,G,facesParametric,3,59.8093483478,
./stim/MorphM9_10_orig.jpg,188,,,,,,,,,0,188,188,188,,,,,,,,,,,,,,,-0.52734375,-7.705078125,0,0,1,0.785346984863,,,2015_Sep_10_0937,G,facesParametric,3,59.8093483478,
./stim/MorphM10_05_orig.jpg,189,,,,,,,,,0,189,189,189,,,,,,,,,,,,,,,-0.5859375,-7.67578125,0,0,1,5.64602994919,,,2015_Sep_10_0937,G,facesParametric,3,59.8093483478,
./stim/MorphM8_03_orig.jpg,190,,,,,,,,,0,190,190,190,,,,,,,,,,,,,,,-0.5859375,-7.79296875,0,0,1,4.57327389717,,,2015_Sep_10_0937,G,facesParametric,3,59.8093483478,
./stim/MorphF2_10_orig.jpg,191,,,,,,,,,0,191,191,191,,,,,,,,,,,,,,,-0.5859375,-7.79296875,0,0,1,4.38919711113,,,2015_Sep_10_0937,G,facesParametric,3,59.8093483478,
./stim/MorphM1_02_orig.jpg,192,,,,,,,,,0,192,192,192,,,,,,,,,,,,,,,-0.615234375,-7.822265625,1,0,0,2.44629597664,,,2015_Sep_10_0937,G,facesParametric,3,59.8093483478,
./stim/MorphM4_09_orig.jpg,193,,,,,,,,,0,193,193,193,,,,,,,,,,,,,,,-0.673828125,-7.822265625,0,0,1,1.45626497269,,,2015_Sep_10_0937,G,facesParametric,3,59.8093483478,
./stim/MorphM8_07_orig.jpg,194,,,,,,,,,0,194,194,194,,,,,,,,,,,,,,,-0.673828125,-7.822265625,0,0,1,1.00322198868,,,2015_Sep_10_0937,G,facesParametric,3,59.8093483478,
./stim/MorphM1_08_orig.jpg,195,,,,,,,,,0,195,195,195,,,,,,,,,,,,,,,-0.673828125,-7.822265625,0,0,1,1.54045200348,,,2015_Sep_10_0937,G,facesParametric,3,59.8093483478,
./stim/MorphF4_08_orig.jpg,196,,,,,,,,,0,196,196,196,,,,,,,,,,,,,,,-0.673828125,-7.822265625,0,0,1,2.57985806465,,,2015_Sep_10_0937,G,facesParametric,3,59.8093483478,
./stim/MorphM9_04_orig.jpg,197,,,,,,,,,0,197,197,197,,,,,,,,,,,,,,,-0.673828125,-7.822265625,1,0,0,0.986065864563,,,2015_Sep_10_0937,G,facesParametric,3,59.8093483478,
./stim/MorphF1_09_orig.jpg,198,,,,,,,,,0,198,198,198,,,,,,,,,,,,,,,2.431640625,-6.85546875,0,0,1,24.115653038,,,2015_Sep_10_0937,G,facesParametric,3,59.8093483478,
./stim/MorphM9_08_orig.jpg,199,,,,,,,,,0,199,199,199,,,,,,,,,,,,,,,2.431640625,-6.85546875,0,0,1,1.33946204185,,,2015_Sep_10_0937,G,facesParametric,3,59.8093483478,
./stim/MorphF10_01_orig.jpg,200,,,,,,,,,0,200,200,200,,,,,,,,,,,,,,,2.4609375,-6.826171875,1,0,0,1.02109909058,,,2015_Sep_10_0937,G,facesParametric,3,59.8093483478,
./stim/MorphM10_00_orig.jpg,201,,,,,,,,,0,201,201,201,,,,,,,,,,,,,,,2.490234375,-6.796875,1,0,0,0.786440134048,,,2015_Sep_10_0937,G,facesParametric,3,59.8093483478,
./stim/MorphM2_00_orig.jpg,202,,,,,,,,,0,202,202,202,,,,,,,,,,,,,,,2.490234375,-6.796875,1,0,0,0.633480072021,,,2015_Sep_10_0937,G,facesParametric,3,59.8093483478,
./stim/MorphM9_01_orig.jpg,203,,,,,,,,,0,203,203,203,,,,,,,,,,,,,,,2.490234375,-6.796875,1,0,0,1.05522894859,,,2015_Sep_10_0937,G,facesParametric,3,59.8093483478,
./stim/MorphF7_09_orig.jpg,204,,,,,,,,,0,204,204,204,,,,,,,,,,,,,,,2.490234375,-6.796875,0,0,1,1.00380516052,,,2015_Sep_10_0937,G,facesParametric,3,59.8093483478,
./stim/MorphF9_00_orig.jpg,205,,,,,,,,,0,205,205,205,,,,,,,,,,,,,,,2.4609375,-6.826171875,1,0,0,1.23893809319,,,2015_Sep_10_0937,G,facesParametric,3,59.8093483478,
./stim/MorphM2_02_orig.jpg,206,,,,,,,,,0,206,206,206,,,,,,,,,,,,,,,2.28515625,-7.03125,1,0,0,4.94221401215,,,2015_Sep_10_0937,G,facesParametric,3,59.8093483478,
./stim/MorphF8_05_orig.jpg,207,,,,,,,,,0,207,207,207,,,,,,,,,,,,,,,2.314453125,-7.03125,1,0,0,0.988032102585,,,2015_Sep_10_0937,G,facesParametric,3,59.8093483478,
./stim/MorphF3_09_orig.jpg,208,,,,,,,,,0,208,208,208,,,,,,,,,,,,,,,2.314453125,-7.03125,1,0,0,2.05785989761,,,2015_Sep_10_0937,G,facesParametric,3,59.8093483478,
./stim/MorphM5_10_orig.jpg,209,,,,,,,,,0,209,209,209,,,,,,,,,,,,,,,2.34375,-7.060546875,0,0,1,1.70849108696,,,2015_Sep_10_0937,G,facesParametric,3,59.8093483478,
./stim/MorphM8_08_orig.jpg,210,,,,,,,,,0,210,210,210,,,,,,,,,,,,,,,2.255859375,-6.943359375,0,0,1,2.16114997864,,,2015_Sep_10_0937,G,facesParametric,3,59.8093483478,
./stim/MorphM3_07_orig.jpg,211,,,,,,,,,0,211,211,211,,,,,,,,,,,,,,,2.197265625,-6.826171875,0,0,1,0.88637304306,,,2015_Sep_10_0937,G,facesParametric,3,59.8093483478,
./stim/MorphM5_06_orig.jpg,212,,,,,,,,,0,212,212,212,,,,,,,,,,,,,,,2.197265625,-6.826171875,1,0,0,1.70858001709,,,2015_Sep_10_0937,G,facesParametric,3,59.8093483478,
./stim/MorphF5_09_orig.jpg,213,,,,,,,,,0,213,213,213,,,,,,,,,,,,,,,2.197265625,-6.796875,0,0,1,1.22195386887,,,2015_Sep_10_0937,G,facesParametric,3,59.8093483478,
./stim/MorphF8_06_orig.jpg,214,,,,,,,,,0,214,214,214,,,,,,,,,,,,,,,2.2265625,-6.767578125,1,0,0,1.6414039135,,,2015_Sep_10_0937,G,facesParametric,3,59.8093483478,
./stim/MorphF5_04_orig.jpg,215,,,,,,,,,0,215,215,215,,,,,,,,,,,,,,,2.138671875,-6.708984375,1,0,0,20.3282868862,,,2015_Sep_10_0937,G,facesParametric,3,59.8093483478,
./stim/MorphM2_04_orig.jpg,216,,,,,,,,,0,216,216,216,,,,,,,,,,,,,,,2.138671875,-6.708984375,1,0,0,0.954386949539,,,2015_Sep_10_0937,G,facesParametric,3,59.8093483478,
./stim/MorphF2_05_orig.jpg,217,,,,,,,,,0,217,217,217,,,,,,,,,,,,,,,2.138671875,-6.708984375,1,0,0,0.836625099182,,,2015_Sep_10_0937,G,facesParametric,3,59.8093483478,
./stim/MorphM7_01_orig.jpg,218,,,,,,,,,0,218,218,218,,,,,,,,,,,,,,,2.138671875,-6.708984375,0,0,1,0.886159896851,,,2015_Sep_10_0937,G,facesParametric,3,59.8093483478,
./stim/MorphF10_09_orig.jpg,219,,,,,,,,,0,219,219,219,,,,,,,,,,,,,,,1.9921875,-6.591796875,0,0,1,2.39454388618,,,2015_Sep_10_0937,G,facesParametric,3,59.8093483478,
