img,num,basicLoop.thisRepN,basicLoop.thisTrialN,basicLoop.thisN,basicLoop.thisIndex,trials.thisRepN,trials.thisTrialN,trials.thisN,trials.thisIndex,trials2.thisRepN,trials2.thisTrialN,trials2.thisN,trials2.thisIndex,key_resp_2.keys,key_resp_2.rt,basicRating1.response,basicRating1.rt,basicRating2.response,basicRating2.rt,basicRating3.response,basicRating3.rt,basicRating4.response,basicRating4.rt,key_resp_3.keys,key_resp_3.rt,key_resp_4.keys,key_resp_4.rt,mouseResp.x,mouseResp.y,mouseResp.leftButton,mouseResp.midButton,mouseResp.rightButton,mouseResp.time,key_resp_5.keys,key_resp_5.rt,date,group,expName,participant,frameRate,
,,,,,,,,,,,,,,return,64.0065159798,,,,,,,,,,,,,,,,,,,,,2015_Sep_10_1221,G,facesParametric,4,59.629595404,
./basicStim/36M_SP_O.jpg,,0,0,0,82,,,,,,,,,,,None,None,None,None,SUP,9.155,None,None,,,,,,,,,,,,,2015_Sep_10_1221,G,facesParametric,4,59.629595404,
./basicStim/09F_AN_O.jpg,,0,1,1,35,,,,,,,,,,,None,None,ANG,4.598,None,None,None,None,,,,,,,,,,,,,2015_Sep_10_1221,G,facesParametric,4,59.629595404,
./basicStim/02F_NE_C.jpg,,0,2,2,13,,,,,,,,,,,None,None,None,None,None,None,NTR,8.049,,,,,,,,,,,,,2015_Sep_10_1221,G,facesParametric,4,59.629595404,
./basicStim/06F_HA_O.jpg,,0,3,3,24,,,,,,,,,,,HAP,4.635,None,None,None,None,None,None,,,,,,,,,,,,,2015_Sep_10_1221,G,facesParametric,4,59.629595404,
./basicStim/21M_NE_C.jpg,,0,4,4,48,,,,,,,,,,,None,None,None,None,None,None,NTR,4.128,,,,,,,,,,,,,2015_Sep_10_1221,G,facesParametric,4,59.629595404,
./basicStim/21M_DI_O.jpg,,0,5,5,43,,,,,,,,,,,None,None,None,None,DIS,2.331,None,None,,,,,,,,,,,,,2015_Sep_10_1221,G,facesParametric,4,59.629595404,
./basicStim/23M_FE_O.jpg,,0,6,6,51,,,,,,,,,,,None,None,ANG,6.978,None,None,None,None,,,,,,,,,,,,,2015_Sep_10_1221,G,facesParametric,4,59.629595404,
./basicStim/03F_HA_O.jpg,,0,7,7,17,,,,,,,,,,,HAP,2.235,None,None,None,None,None,None,,,,,,,,,,,,,2015_Sep_10_1221,G,facesParametric,4,59.629595404,
./basicStim/06F_DI_O.jpg,,0,8,8,22,,,,,,,,,,,None,None,None,None,DIS,1.799,None,None,,,,,,,,,,,,,2015_Sep_10_1221,G,facesParametric,4,59.629595404,
./basicStim/02F_AN_O.jpg,,0,9,9,7,,,,,,,,,,,None,None,ANG,4.983,None,None,None,None,,,,,,,,,,,,,2015_Sep_10_1221,G,facesParametric,4,59.629595404,
./basicStim/07F_DI_O.jpg,,0,10,10,29,,,,,,,,,,,None,None,None,None,DIS,2.15,None,None,,,,,,,,,,,,,2015_Sep_10_1221,G,facesParametric,4,59.629595404,
./basicStim/23M_SA_C.jpg,,0,11,11,53,,,,,,,,,,,None,None,None,None,DIS,1.416,None,None,,,,,,,,,,,,,2015_Sep_10_1221,G,facesParametric,4,59.629595404,
./basicStim/23M_SP_O.jpg,,0,12,12,54,,,,,,,,,,,None,None,None,None,SUP,3.637,None,None,,,,,,,,,,,,,2015_Sep_10_1221,G,facesParametric,4,59.629595404,
./basicStim/01F_SP_O.jpg,,0,13,13,5,,,,,,,,,,,None,None,None,None,SUP,5.397,None,None,,,,,,,,,,,,,2015_Sep_10_1221,G,facesParametric,4,59.629595404,
./basicStim/23M_DI_O.jpg,,0,14,14,50,,,,,,,,,,,None,None,None,None,DIS,2.348,None,None,,,,,,,,,,,,,2015_Sep_10_1221,G,facesParametric,4,59.629595404,
./basicStim/01F_HA_O.jpg,,0,15,15,3,,,,,,,,,,,HAP,2.506,None,None,None,None,None,None,,,,,,,,,,,,,2015_Sep_10_1221,G,facesParametric,4,59.629595404,
./basicStim/02F_SP_O.jpg,,0,16,16,12,,,,,,,,,,,None,None,None,None,SUP,3.723,None,None,,,,,,,,,,,,,2015_Sep_10_1221,G,facesParametric,4,59.629595404,
./basicStim/28M_AN_O.jpg,,0,17,17,63,,,,,,,,,,,None,None,None,None,DIS,6.286,None,None,,,,,,,,,,,,,2015_Sep_10_1221,G,facesParametric,4,59.629595404,
./basicStim/28M_DI_O.jpg,,0,18,18,64,,,,,,,,,,,None,None,None,None,DIS,1.759,None,None,,,,,,,,,,,,,2015_Sep_10_1221,G,facesParametric,4,59.629595404,
./basicStim/01F_SA_C.jpg,,0,19,19,4,,,,,,,,,,,SAD,5.568,None,None,None,None,None,None,,,,,,,,,,,,,2015_Sep_10_1221,G,facesParametric,4,59.629595404,
./basicStim/03F_DI_O.jpg,,0,20,20,15,,,,,,,,,,,None,None,None,None,DIS,1.614,None,None,,,,,,,,,,,,,2015_Sep_10_1221,G,facesParametric,4,59.629595404,
./basicStim/09F_SA_C.jpg,,0,21,21,39,,,,,,,,,,,SAD,3.678,None,None,None,None,None,None,,,,,,,,,,,,,2015_Sep_10_1221,G,facesParametric,4,59.629595404,
./basicStim/24M_SP_O.jpg,,0,22,22,61,,,,,,,,,,,None,None,None,None,SUP,4.474,None,None,,,,,,,,,,,,,2015_Sep_10_1221,G,facesParametric,4,59.629595404,
./basicStim/28M_HA_O.jpg,,0,23,23,66,,,,,,,,,,,HAP,2.303,None,None,None,None,None,None,,,,,,,,,,,,,2015_Sep_10_1221,G,facesParametric,4,59.629595404,
./basicStim/24M_DI_O.jpg,,0,24,24,57,,,,,,,,,,,None,None,None,None,DIS,2.585,None,None,,,,,,,,,,,,,2015_Sep_10_1221,G,facesParametric,4,59.629595404,
./basicStim/23M_AN_O.jpg,,0,25,25,49,,,,,,,,,,,None,None,ANG,3.224,None,None,None,None,,,,,,,,,,,,,2015_Sep_10_1221,G,facesParametric,4,59.629595404,
./basicStim/02F_SA_C.jpg,,0,26,26,11,,,,,,,,,,,SAD,2.476,None,None,None,None,None,None,,,,,,,,,,,,,2015_Sep_10_1221,G,facesParametric,4,59.629595404,
./basicStim/21M_AN_O.jpg,,0,27,27,42,,,,,,,,,,,None,None,ANG,2.402,None,None,None,None,,,,,,,,,,,,,2015_Sep_10_1221,G,facesParametric,4,59.629595404,
./basicStim/28M_NE_C.jpg,,0,28,28,69,,,,,,,,,,,None,None,None,None,SUP,4.01,None,None,,,,,,,,,,,,,2015_Sep_10_1221,G,facesParametric,4,59.629595404,
./basicStim/34M_FE_O.jpg,,0,29,29,72,,,,,,,,,,,None,None,None,None,SUP,3.864,None,None,,,,,,,,,,,,,2015_Sep_10_1221,G,facesParametric,4,59.629595404,
./basicStim/36M_DI_O.jpg,,0,30,30,78,,,,,,,,,,,None,None,None,None,DIS,3.252,None,None,,,,,,,,,,,,,2015_Sep_10_1221,G,facesParametric,4,59.629595404,
./basicStim/07F_HA_O.jpg,,0,31,31,31,,,,,,,,,,,HAP,2.101,None,None,None,None,None,None,,,,,,,,,,,,,2015_Sep_10_1221,G,facesParametric,4,59.629595404,
./basicStim/03F_SP_O.jpg,,0,32,32,19,,,,,,,,,,,None,None,None,None,SUP,2.989,None,None,,,,,,,,,,,,,2015_Sep_10_1221,G,facesParametric,4,59.629595404,
./basicStim/34M_SA_C.jpg,,0,33,33,74,,,,,,,,,,,SAD,2.135,None,None,None,None,None,None,,,,,,,,,,,,,2015_Sep_10_1221,G,facesParametric,4,59.629595404,
./basicStim/07F_NE_C.jpg,,0,34,34,34,,,,,,,,,,,None,None,None,None,None,None,NTR,2.548,,,,,,,,,,,,,2015_Sep_10_1221,G,facesParametric,4,59.629595404,
./basicStim/01F_FE_O.jpg,,0,35,35,2,,,,,,,,,,,None,None,None,None,SUP,5.062,None,None,,,,,,,,,,,,,2015_Sep_10_1221,G,facesParametric,4,59.629595404,
./basicStim/34M_AN_O.jpg,,0,36,36,70,,,,,,,,,,,None,None,ANG,3.658,None,None,None,None,,,,,,,,,,,,,2015_Sep_10_1221,G,facesParametric,4,59.629595404,
./basicStim/28M_SA_C.jpg,,0,37,37,67,,,,,,,,,,,SAD,4.797,None,None,None,None,None,None,,,,,,,,,,,,,2015_Sep_10_1221,G,facesParametric,4,59.629595404,
./basicStim/21M_HA_O.jpg,,0,38,38,45,,,,,,,,,,,HAP,2.676,None,None,None,None,None,None,,,,,,,,,,,,,2015_Sep_10_1221,G,facesParametric,4,59.629595404,
./basicStim/01F_AN_O.jpg,,0,39,39,0,,,,,,,,,,,None,None,ANG,1.431,None,None,None,None,,,,,,,,,,,,,2015_Sep_10_1221,G,facesParametric,4,59.629595404,
./basicStim/36M_NE_C.jpg,,0,40,40,83,,,,,,,,,,,None,None,None,None,None,None,NTR,4.211,,,,,,,,,,,,,2015_Sep_10_1221,G,facesParametric,4,59.629595404,
./basicStim/07F_FE_O.jpg,,0,41,41,30,,,,,,,,,,,None,None,ANG,6.838,None,None,None,None,,,,,,,,,,,,,2015_Sep_10_1221,G,facesParametric,4,59.629595404,
./basicStim/34M_DI_O.jpg,,0,42,42,71,,,,,,,,,,,None,None,None,None,DIS,2.431,None,None,,,,,,,,,,,,,2015_Sep_10_1221,G,facesParametric,4,59.629595404,
./basicStim/01F_NE_C.jpg,,0,43,43,6,,,,,,,,,,,None,None,None,None,None,None,NTR,2.717,,,,,,,,,,,,,2015_Sep_10_1221,G,facesParametric,4,59.629595404,
./basicStim/21M_SA_C.jpg,,0,44,44,46,,,,,,,,,,,SAD,4.317,None,None,None,None,None,None,,,,,,,,,,,,,2015_Sep_10_1221,G,facesParametric,4,59.629595404,
./basicStim/06F_FE_O.jpg,,0,45,45,23,,,,,,,,,,,None,None,None,None,SUP,2.821,None,None,,,,,,,,,,,,,2015_Sep_10_1221,G,facesParametric,4,59.629595404,
./basicStim/06F_SA_C.jpg,,0,46,46,25,,,,,,,,,,,SAD,3.224,None,None,None,None,None,None,,,,,,,,,,,,,2015_Sep_10_1221,G,facesParametric,4,59.629595404,
./basicStim/23M_HA_O.jpg,,0,47,47,52,,,,,,,,,,,HAP,2.253,None,None,None,None,None,None,,,,,,,,,,,,,2015_Sep_10_1221,G,facesParametric,4,59.629595404,
./basicStim/01F_DI_O.jpg,,0,48,48,1,,,,,,,,,,,None,None,None,None,DIS,1.715,None,None,,,,,,,,,,,,,2015_Sep_10_1221,G,facesParametric,4,59.629595404,
./basicStim/07F_SA_C.jpg,,0,49,49,32,,,,,,,,,,,SAD,5.401,None,None,None,None,None,None,,,,,,,,,,,,,2015_Sep_10_1221,G,facesParametric,4,59.629595404,
./basicStim/34M_NE_C.jpg,,0,50,50,76,,,,,,,,,,,None,None,None,None,None,None,NTR,2.582,,,,,,,,,,,,,2015_Sep_10_1221,G,facesParametric,4,59.629595404,
./basicStim/28M_SP_O.jpg,,0,51,51,68,,,,,,,,,,,None,None,None,None,SUP,2.218,None,None,,,,,,,,,,,,,2015_Sep_10_1221,G,facesParametric,4,59.629595404,
./basicStim/34M_SP_O.jpg,,0,52,52,75,,,,,,,,,,,None,None,None,None,SUP,2.103,None,None,,,,,,,,,,,,,2015_Sep_10_1221,G,facesParametric,4,59.629595404,
./basicStim/03F_FE_O.jpg,,0,53,53,16,,,,,,,,,,,None,None,None,None,SUP,5.152,None,None,,,,,,,,,,,,,2015_Sep_10_1221,G,facesParametric,4,59.629595404,
./basicStim/03F_NE_C.jpg,,0,54,54,20,,,,,,,,,,,None,None,None,None,None,None,NTR,2.184,,,,,,,,,,,,,2015_Sep_10_1221,G,facesParametric,4,59.629595404,
./basicStim/24M_FE_O.jpg,,0,55,55,58,,,,,,,,,,,SAD,5.485,None,None,None,None,None,None,,,,,,,,,,,,,2015_Sep_10_1221,G,facesParametric,4,59.629595404,
./basicStim/09F_FE_O.jpg,,0,56,56,37,,,,,,,,,,,None,None,None,None,SUP,3.273,None,None,,,,,,,,,,,,,2015_Sep_10_1221,G,facesParametric,4,59.629595404,
./basicStim/02F_DI_O.jpg,,0,57,57,8,,,,,,,,,,,None,None,ANG,3.895,None,None,None,None,,,,,,,,,,,,,2015_Sep_10_1221,G,facesParametric,4,59.629595404,
./basicStim/06F_AN_O.jpg,,0,58,58,21,,,,,,,,,,,None,None,ANG,1.559,None,None,None,None,,,,,,,,,,,,,2015_Sep_10_1221,G,facesParametric,4,59.629595404,
./basicStim/24M_AN_O.jpg,,0,59,59,56,,,,,,,,,,,None,None,ANG,0.875,None,None,None,None,,,,,,,,,,,,,2015_Sep_10_1221,G,facesParametric,4,59.629595404,
./basicStim/36M_AN_O.jpg,,0,60,60,77,,,,,,,,,,,None,None,ANG,0.572,None,None,None,None,,,,,,,,,,,,,2015_Sep_10_1221,G,facesParametric,4,59.629595404,
./basicStim/28M_FE_O.jpg,,0,61,61,65,,,,,,,,,,,None,None,None,None,SUP,1.297,None,None,,,,,,,,,,,,,2015_Sep_10_1221,G,facesParametric,4,59.629595404,
./basicStim/07F_AN_O.jpg,,0,62,62,28,,,,,,,,,,,None,None,ANG,1.513,None,None,None,None,,,,,,,,,,,,,2015_Sep_10_1221,G,facesParametric,4,59.629595404,
./basicStim/21M_SP_O.jpg,,0,63,63,47,,,,,,,,,,,None,None,None,None,SUP,1.595,None,None,,,,,,,,,,,,,2015_Sep_10_1221,G,facesParametric,4,59.629595404,
./basicStim/36M_HA_O.jpg,,0,64,64,80,,,,,,,,,,,HAP,2.1,None,None,None,None,None,None,,,,,,,,,,,,,2015_Sep_10_1221,G,facesParametric,4,59.629595404,
./basicStim/02F_HA_O.jpg,,0,65,65,10,,,,,,,,,,,HAP,2.403,None,None,None,None,None,None,,,,,,,,,,,,,2015_Sep_10_1221,G,facesParametric,4,59.629595404,
./basicStim/24M_SA_C.jpg,,0,66,66,60,,,,,,,,,,,SAD,2.067,None,None,None,None,None,None,,,,,,,,,,,,,2015_Sep_10_1221,G,facesParametric,4,59.629595404,
./basicStim/23M_NE_C.jpg,,0,67,67,55,,,,,,,,,,,None,None,None,None,None,None,NTR,1.996,,,,,,,,,,,,,2015_Sep_10_1221,G,facesParametric,4,59.629595404,
./basicStim/34M_HA_O.jpg,,0,68,68,73,,,,,,,,,,,HAP,1.446,None,None,None,None,None,None,,,,,,,,,,,,,2015_Sep_10_1221,G,facesParametric,4,59.629595404,
./basicStim/36M_SA_C.jpg,,0,69,69,81,,,,,,,,,,,SAD,1.917,None,None,None,None,None,None,,,,,,,,,,,,,2015_Sep_10_1221,G,facesParametric,4,59.629595404,
./basicStim/36M_FE_O.jpg,,0,70,70,79,,,,,,,,,,,SAD,6.33,None,None,None,None,None,None,,,,,,,,,,,,,2015_Sep_10_1221,G,facesParametric,4,59.629595404,
./basicStim/24M_NE_C.jpg,,0,71,71,62,,,,,,,,,,,None,None,None,None,None,None,NTR,2.065,,,,,,,,,,,,,2015_Sep_10_1221,G,facesParametric,4,59.629595404,
./basicStim/06F_SP_O.jpg,,0,72,72,26,,,,,,,,,,,None,None,None,None,SUP,2.098,None,None,,,,,,,,,,,,,2015_Sep_10_1221,G,facesParametric,4,59.629595404,
./basicStim/02F_FE_O.jpg,,0,73,73,9,,,,,,,,,,,None,None,None,None,SUP,3.021,None,None,,,,,,,,,,,,,2015_Sep_10_1221,G,facesParametric,4,59.629595404,
./basicStim/09F_SP_O.jpg,,0,74,74,40,,,,,,,,,,,None,None,None,None,SUP,0.839,None,None,,,,,,,,,,,,,2015_Sep_10_1221,G,facesParametric,4,59.629595404,
./basicStim/09F_NE_C.jpg,,0,75,75,41,,,,,,,,,,,None,None,None,None,None,None,NTR,1.247,,,,,,,,,,,,,2015_Sep_10_1221,G,facesParametric,4,59.629595404,
./basicStim/09F_DI_O.jpg,,0,76,76,36,,,,,,,,,,,None,None,None,None,DIS,2.365,None,None,,,,,,,,,,,,,2015_Sep_10_1221,G,facesParametric,4,59.629595404,
./basicStim/06F_NE_C.jpg,,0,77,77,27,,,,,,,,,,,None,None,None,None,None,None,NTR,1.931,,,,,,,,,,,,,2015_Sep_10_1221,G,facesParametric,4,59.629595404,
./basicStim/03F_AN_O.jpg,,0,78,78,14,,,,,,,,,,,None,None,ANG,2.468,None,None,None,None,,,,,,,,,,,,,2015_Sep_10_1221,G,facesParametric,4,59.629595404,
./basicStim/24M_HA_O.jpg,,0,79,79,59,,,,,,,,,,,HAP,1.598,None,None,None,None,None,None,,,,,,,,,,,,,2015_Sep_10_1221,G,facesParametric,4,59.629595404,
./basicStim/07F_SP_O.jpg,,0,80,80,33,,,,,,,,,,,None,None,None,None,SUP,3.368,None,None,,,,,,,,,,,,,2015_Sep_10_1221,G,facesParametric,4,59.629595404,
./basicStim/09F_HA_O.jpg,,0,81,81,38,,,,,,,,,,,HAP,1.446,None,None,None,None,None,None,,,,,,,,,,,,,2015_Sep_10_1221,G,facesParametric,4,59.629595404,
./basicStim/03F_SA_C.jpg,,0,82,82,18,,,,,,,,,,,SAD,1.564,None,None,None,None,None,None,,,,,,,,,,,,,2015_Sep_10_1221,G,facesParametric,4,59.629595404,
./basicStim/21M_FE_O.jpg,,0,83,83,44,,,,,,,,,,,None,None,None,None,SUP,1.617,None,None,,,,,,,,,,,,,2015_Sep_10_1221,G,facesParametric,4,59.629595404,
,,,,,,,,,,,,,,,,,,,,,,,,return,11.0236229897,,,,,,,,,,,2015_Sep_10_1221,G,facesParametric,4,59.629595404,
,,,,,,,,,,,,,,return,18.9715671539,,,,,,,,,,,,,,,,,,,,,2015_Sep_10_1221,G,facesParametric,4,59.629595404,
,,,,,,,,,,,,,,,,,,,,,,,,return,13.8767111301,,,,,,,,,,,2015_Sep_10_1221,G,facesParametric,4,59.629595404,
,,,,,,,,,,,,,,,,,,,,,,,,,,return,3.0834300518,,,,,,,,,2015_Sep_10_1221,G,facesParametric,4,59.629595404,
./stim/MorphM6_10_orig.jpg,0,,,,,0,0,0,0,,,,,,,,,,,,,,,,,,,-2.9296875,12.509765625,1,0,0,14.1582789421,,,2015_Sep_10_1221,G,facesParametric,4,59.629595404,
./stim/MorphF9_04_orig.jpg,1,,,,,0,1,1,1,,,,,,,,,,,,,,,,,,,-2.98828125,12.568359375,0,0,1,2.14326405525,,,2015_Sep_10_1221,G,facesParametric,4,59.629595404,
./stim/MorphM3_03_orig.jpg,2,,,,,0,2,2,2,,,,,,,,,,,,,,,,,,,-2.87109375,12.65625,1,0,0,1.45687294006,,,2015_Sep_10_1221,G,facesParametric,4,59.629595404,
./stim/MorphM1_00_orig.jpg,3,,,,,0,3,3,3,,,,,,,,,,,,,,,,,,,-2.724609375,12.7734375,0,0,1,2.61334300041,,,2015_Sep_10_1221,G,facesParametric,4,59.629595404,
./stim/MorphM6_09_orig.jpg,4,,,,,0,4,4,4,,,,,,,,,,,,,,,,,,,-2.724609375,12.83203125,1,0,0,6.38264393806,,,2015_Sep_10_1221,G,facesParametric,4,59.629595404,
./stim/MorphM10_02_orig.jpg,5,,,,,0,5,5,5,,,,,,,,,,,,,,,,,,,-2.6953125,12.861328125,0,0,1,2.07684493065,,,2015_Sep_10_1221,G,facesParametric,4,59.629595404,
./stim/MorphM3_06_orig.jpg,6,,,,,0,6,6,6,,,,,,,,,,,,,,,,,,,-2.6953125,12.861328125,1,0,0,1.3895919323,,,2015_Sep_10_1221,G,facesParametric,4,59.629595404,
./stim/MorphM7_08_orig.jpg,7,,,,,0,7,7,7,,,,,,,,,,,,,,,,,,,-2.724609375,12.890625,1,0,0,2.94875097275,,,2015_Sep_10_1221,G,facesParametric,4,59.629595404,
./stim/MorphM6_04_orig.jpg,8,,,,,0,8,8,8,,,,,,,,,,,,,,,,,,,-2.6953125,12.94921875,0,0,1,1.35545015335,,,2015_Sep_10_1221,G,facesParametric,4,59.629595404,
./stim/MorphM2_05_orig.jpg,9,,,,,0,9,9,9,,,,,,,,,,,,,,,,,,,-2.63671875,13.037109375,0,0,1,3.06587100029,,,2015_Sep_10_1221,G,facesParametric,4,59.629595404,
./stim/MorphM3_01_orig.jpg,10,,,,,0,10,10,10,,,,,,,,,,,,,,,,,,,-2.63671875,13.037109375,0,0,1,1.97614407539,,,2015_Sep_10_1221,G,facesParametric,4,59.629595404,
./stim/MorphF1_03_orig.jpg,11,,,,,0,11,11,11,,,,,,,,,,,,,,,,,,,-2.63671875,13.037109375,0,0,1,2.7974460125,,,2015_Sep_10_1221,G,facesParametric,4,59.629595404,
./stim/MorphF8_09_orig.jpg,12,,,,,0,12,12,12,,,,,,,,,,,,,,,,,,,-2.63671875,13.037109375,1,0,0,1.0883731842,,,2015_Sep_10_1221,G,facesParametric,4,59.629595404,
./stim/MorphF3_01_orig.jpg,13,,,,,0,13,13,13,,,,,,,,,,,,,,,,,,,-2.63671875,13.037109375,0,0,1,2.32856416702,,,2015_Sep_10_1221,G,facesParametric,4,59.629595404,
./stim/MorphF7_03_orig.jpg,14,,,,,0,14,14,14,,,,,,,,,,,,,,,,,,,-2.63671875,13.037109375,0,0,1,1.45446705818,,,2015_Sep_10_1221,G,facesParametric,4,59.629595404,
./stim/MorphM1_05_orig.jpg,15,,,,,0,15,15,15,,,,,,,,,,,,,,,,,,,-2.63671875,13.037109375,0,0,1,1.17215704918,,,2015_Sep_10_1221,G,facesParametric,4,59.629595404,
./stim/MorphM5_08_orig.jpg,16,,,,,0,16,16,16,,,,,,,,,,,,,,,,,,,-2.63671875,13.037109375,0,0,1,1.859126091,,,2015_Sep_10_1221,G,facesParametric,4,59.629595404,
./stim/MorphF7_01_orig.jpg,17,,,,,0,17,17,17,,,,,,,,,,,,,,,,,,,-2.607421875,13.06640625,0,0,1,1.03673100471,,,2015_Sep_10_1221,G,facesParametric,4,59.629595404,
./stim/MorphF1_10_orig.jpg,18,,,,,0,18,18,18,,,,,,,,,,,,,,,,,,,-2.607421875,13.06640625,1,0,0,6.28362107277,,,2015_Sep_10_1221,G,facesParametric,4,59.629595404,
./stim/MorphF9_06_orig.jpg,19,,,,,0,19,19,19,,,,,,,,,,,,,,,,,,,-2.578125,13.095703125,0,0,1,5.07532000542,,,2015_Sep_10_1221,G,facesParametric,4,59.629595404,
./stim/MorphM4_00_orig.jpg,20,,,,,0,20,20,20,,,,,,,,,,,,,,,,,,,-2.490234375,13.18359375,0,0,1,4.52367401123,,,2015_Sep_10_1221,G,facesParametric,4,59.629595404,
./stim/MorphM10_08_orig.jpg,21,,,,,0,21,21,21,,,,,,,,,,,,,,,,,,,-2.373046875,13.18359375,1,0,0,6.16650104523,,,2015_Sep_10_1221,G,facesParametric,4,59.629595404,
./stim/MorphF8_07_orig.jpg,22,,,,,0,22,22,22,,,,,,,,,,,,,,,,,,,-2.373046875,13.18359375,0,0,1,2.84892010689,,,2015_Sep_10_1221,G,facesParametric,4,59.629595404,
./stim/MorphF6_02_orig.jpg,23,,,,,0,23,23,23,,,,,,,,,,,,,,,,,,,-2.373046875,13.18359375,0,0,1,1.63783788681,,,2015_Sep_10_1221,G,facesParametric,4,59.629595404,
./stim/MorphM2_08_orig.jpg,24,,,,,0,24,24,24,,,,,,,,,,,,,,,,,,,-2.373046875,13.18359375,1,0,0,1.75890898705,,,2015_Sep_10_1221,G,facesParametric,4,59.629595404,
./stim/MorphF9_05_orig.jpg,25,,,,,0,25,25,25,,,,,,,,,,,,,,,,,,,-2.28515625,13.18359375,0,0,1,3.18291592598,,,2015_Sep_10_1221,G,facesParametric,4,59.629595404,
./stim/MorphF1_08_orig.jpg,26,,,,,0,26,26,26,,,,,,,,,,,,,,,,,,,-2.28515625,13.18359375,1,0,0,7.6916179657,,,2015_Sep_10_1221,G,facesParametric,4,59.629595404,
./stim/MorphF6_09_orig.jpg,27,,,,,0,27,27,27,,,,,,,,,,,,,,,,,,,-2.28515625,13.18359375,1,0,0,1.35561203957,,,2015_Sep_10_1221,G,facesParametric,4,59.629595404,
./stim/MorphF2_09_orig.jpg,28,,,,,0,28,28,28,,,,,,,,,,,,,,,,,,,-2.16796875,13.18359375,1,0,0,1.97453403473,,,2015_Sep_10_1221,G,facesParametric,4,59.629595404,
./stim/MorphF1_04_orig.jpg,29,,,,,0,29,29,29,,,,,,,,,,,,,,,,,,,-2.138671875,13.154296875,0,0,1,7.75841808319,,,2015_Sep_10_1221,G,facesParametric,4,59.629595404,
./stim/MorphM4_06_orig.jpg,30,,,,,0,30,30,30,,,,,,,,,,,,,,,,,,,-2.109375,13.18359375,1,0,0,1.92620587349,,,2015_Sep_10_1221,G,facesParametric,4,59.629595404,
./stim/MorphM5_04_orig.jpg,31,,,,,0,31,31,31,,,,,,,,,,,,,,,,,,,-2.109375,13.18359375,0,0,1,1.90943598747,,,2015_Sep_10_1221,G,facesParametric,4,59.629595404,
./stim/MorphF10_02_orig.jpg,32,,,,,0,32,32,32,,,,,,,,,,,,,,,,,,,-2.109375,13.18359375,0,0,1,1.79041194916,,,2015_Sep_10_1221,G,facesParametric,4,59.629595404,
./stim/MorphF6_05_orig.jpg,33,,,,,0,33,33,33,,,,,,,,,,,,,,,,,,,-2.109375,13.18359375,0,0,1,1.07102608681,,,2015_Sep_10_1221,G,facesParametric,4,59.629595404,
./stim/MorphF8_01_orig.jpg,34,,,,,0,34,34,34,,,,,,,,,,,,,,,,,,,-2.109375,13.18359375,0,0,1,1.1720597744,,,2015_Sep_10_1221,G,facesParametric,4,59.629595404,
./stim/MorphM2_06_orig.jpg,35,,,,,0,35,35,35,,,,,,,,,,,,,,,,,,,-2.05078125,13.18359375,1,0,0,4.37309193611,,,2015_Sep_10_1221,G,facesParametric,4,59.629595404,
./stim/MorphM9_02_orig.jpg,36,,,,,0,36,36,36,,,,,,,,,,,,,,,,,,,-1.9921875,13.18359375,0,0,1,1.02076411247,,,2015_Sep_10_1221,G,facesParametric,4,59.629595404,
./stim/MorphM5_03_orig.jpg,37,,,,,0,37,37,37,,,,,,,,,,,,,,,,,,,-1.93359375,13.154296875,0,0,1,1.94187688828,,,2015_Sep_10_1221,G,facesParametric,4,59.629595404,
./stim/MorphM4_01_orig.jpg,38,,,,,0,38,38,38,,,,,,,,,,,,,,,,,,,-1.93359375,13.154296875,0,0,1,2.9484140873,,,2015_Sep_10_1221,G,facesParametric,4,59.629595404,
./stim/MorphM6_05_orig.jpg,39,,,,,0,39,39,39,,,,,,,,,,,,,,,,,,,-1.93359375,13.154296875,1,0,0,4.00415205956,,,2015_Sep_10_1221,G,facesParametric,4,59.629595404,
./stim/MorphF4_02_orig.jpg,40,,,,,0,40,40,40,,,,,,,,,,,,,,,,,,,-1.875,13.18359375,0,0,1,1.87605786324,,,2015_Sep_10_1221,G,facesParametric,4,59.629595404,
./stim/MorphM9_03_orig.jpg,41,,,,,0,41,41,41,,,,,,,,,,,,,,,,,,,-1.845703125,13.18359375,0,0,1,0.817986011505,,,2015_Sep_10_1221,G,facesParametric,4,59.629595404,
./stim/MorphF4_06_orig.jpg,42,,,,,0,42,42,42,,,,,,,,,,,,,,,,,,,-1.845703125,13.18359375,1,0,0,4.30613422394,,,2015_Sep_10_1221,G,facesParametric,4,59.629595404,
./stim/MorphF5_00_orig.jpg,43,,,,,0,43,43,43,,,,,,,,,,,,,,,,,,,-1.7578125,13.18359375,1,0,0,6.18298888206,,,2015_Sep_10_1221,G,facesParametric,4,59.629595404,
./stim/MorphM7_04_orig.jpg,44,,,,,0,44,44,44,,,,,,,,,,,,,,,,,,,-1.7578125,13.18359375,1,0,0,5.64650702477,,,2015_Sep_10_1221,G,facesParametric,4,59.629595404,
./stim/MorphF1_07_orig.jpg,45,,,,,0,45,45,45,,,,,,,,,,,,,,,,,,,-1.7578125,13.18359375,1,0,0,1.59128808975,,,2015_Sep_10_1221,G,facesParametric,4,59.629595404,
./stim/MorphF7_02_orig.jpg,46,,,,,0,46,46,46,,,,,,,,,,,,,,,,,,,-1.728515625,13.18359375,0,0,1,2.34496688843,,,2015_Sep_10_1221,G,facesParametric,4,59.629595404,
./stim/MorphF3_08_orig.jpg,47,,,,,0,47,47,47,,,,,,,,,,,,,,,,,,,-1.728515625,13.18359375,0,0,1,4.38906502724,,,2015_Sep_10_1221,G,facesParametric,4,59.629595404,
./stim/MorphM4_03_orig.jpg,48,,,,,0,48,48,48,,,,,,,,,,,,,,,,,,,-1.728515625,13.18359375,0,0,1,1.82565999031,,,2015_Sep_10_1221,G,facesParametric,4,59.629595404,
./stim/MorphM7_05_orig.jpg,49,,,,,0,49,49,49,,,,,,,,,,,,,,,,,,,-1.728515625,13.18359375,1,0,0,1.99331712723,,,2015_Sep_10_1221,G,facesParametric,4,59.629595404,
./stim/MorphM4_08_orig.jpg,50,,,,,0,50,50,50,,,,,,,,,,,,,,,,,,,-1.728515625,13.18359375,1,0,0,1.00273704529,,,2015_Sep_10_1221,G,facesParametric,4,59.629595404,
./stim/MorphM2_03_orig.jpg,51,,,,,0,51,51,51,,,,,,,,,,,,,,,,,,,-1.69921875,13.18359375,0,0,1,1.30625796318,,,2015_Sep_10_1221,G,facesParametric,4,59.629595404,
./stim/MorphF3_10_orig.jpg,52,,,,,0,52,52,52,,,,,,,,,,,,,,,,,,,-1.69921875,13.18359375,1,0,0,5.29280495644,,,2015_Sep_10_1221,G,facesParametric,4,59.629595404,
./stim/MorphF6_08_orig.jpg,53,,,,,0,53,53,53,,,,,,,,,,,,,,,,,,,-1.69921875,13.18359375,0,0,1,1.13818693161,,,2015_Sep_10_1221,G,facesParametric,4,59.629595404,
./stim/MorphM3_10_orig.jpg,54,,,,,0,54,54,54,,,,,,,,,,,,,,,,,,,-1.69921875,13.18359375,1,0,0,1.94102597237,,,2015_Sep_10_1221,G,facesParametric,4,59.629595404,
./stim/MorphM10_03_orig.jpg,55,,,,,0,55,55,55,,,,,,,,,,,,,,,,,,,-1.611328125,13.18359375,0,0,1,1.11931705475,,,2015_Sep_10_1221,G,facesParametric,4,59.629595404,
./stim/MorphF2_03_orig.jpg,56,,,,,0,56,56,56,,,,,,,,,,,,,,,,,,,-1.611328125,13.18359375,0,0,1,1.28834700584,,,2015_Sep_10_1221,G,facesParametric,4,59.629595404,
./stim/MorphM7_10_orig.jpg,57,,,,,0,57,57,57,,,,,,,,,,,,,,,,,,,-1.611328125,13.18359375,1,0,0,1.20554494858,,,2015_Sep_10_1221,G,facesParametric,4,59.629595404,
./stim/MorphF8_00_orig.jpg,58,,,,,0,58,58,58,,,,,,,,,,,,,,,,,,,-1.611328125,13.18359375,0,0,1,1.87320804596,,,2015_Sep_10_1221,G,facesParametric,4,59.629595404,
./stim/MorphF7_07_orig.jpg,59,,,,,0,59,59,59,,,,,,,,,,,,,,,,,,,-1.611328125,13.18359375,1,0,0,2.16140294075,,,2015_Sep_10_1221,G,facesParametric,4,59.629595404,
./stim/MorphM8_09_orig.jpg,60,,,,,0,60,60,60,,,,,,,,,,,,,,,,,,,-1.611328125,13.18359375,1,0,0,0.952276945114,,,2015_Sep_10_1221,G,facesParametric,4,59.629595404,
./stim/MorphF5_08_orig.jpg,61,,,,,0,61,61,61,,,,,,,,,,,,,,,,,,,-1.611328125,13.18359375,1,0,0,0.954001903534,,,2015_Sep_10_1221,G,facesParametric,4,59.629595404,
./stim/MorphM8_00_orig.jpg,62,,,,,0,62,62,62,,,,,,,,,,,,,,,,,,,-1.58203125,13.18359375,0,0,1,1.52399897575,,,2015_Sep_10_1221,G,facesParametric,4,59.629595404,
./stim/MorphF4_04_orig.jpg,63,,,,,0,63,63,63,,,,,,,,,,,,,,,,,,,-1.58203125,13.18359375,0,0,1,1.30467820168,,,2015_Sep_10_1221,G,facesParametric,4,59.629595404,
./stim/MorphM8_05_orig.jpg,64,,,,,0,64,64,64,,,,,,,,,,,,,,,,,,,-1.58203125,13.18359375,1,0,0,3.68587994576,,,2015_Sep_10_1221,G,facesParametric,4,59.629595404,
./stim/MorphM1_09_orig.jpg,65,,,,,0,65,65,65,,,,,,,,,,,,,,,,,,,-1.58203125,13.18359375,0,0,1,3.23334789276,,,2015_Sep_10_1221,G,facesParametric,4,59.629595404,
./stim/MorphF8_04_orig.jpg,66,,,,,0,66,66,66,,,,,,,,,,,,,,,,,,,-1.58203125,13.18359375,0,0,1,1.0522608757,,,2015_Sep_10_1221,G,facesParametric,4,59.629595404,
./stim/MorphM10_07_orig.jpg,67,,,,,0,67,67,67,,,,,,,,,,,,,,,,,,,-1.611328125,13.18359375,1,0,0,1.03680801392,,,2015_Sep_10_1221,G,facesParametric,4,59.629595404,
./stim/MorphM5_05_orig.jpg,68,,,,,0,68,68,68,,,,,,,,,,,,,,,,,,,-1.611328125,13.18359375,0,0,1,2.99754285812,,,2015_Sep_10_1221,G,facesParametric,4,59.629595404,
./stim/MorphM3_02_orig.jpg,69,,,,,0,69,69,69,,,,,,,,,,,,,,,,,,,-1.611328125,13.18359375,0,0,1,2.19430112839,,,2015_Sep_10_1221,G,facesParametric,4,59.629595404,
./stim/MorphF2_08_orig.jpg,70,,,,,0,70,70,70,,,,,,,,,,,,,,,,,,,-1.611328125,13.18359375,1,0,0,1.57412099838,,,2015_Sep_10_1221,G,facesParametric,4,59.629595404,
./stim/MorphM5_00_orig.jpg,71,,,,,0,71,71,71,,,,,,,,,,,,,,,,,,,-1.611328125,13.18359375,0,0,1,1.85928487778,,,2015_Sep_10_1221,G,facesParametric,4,59.629595404,
./stim/MorphF6_07_orig.jpg,72,,,,,0,72,72,72,,,,,,,,,,,,,,,,,,,-1.611328125,13.18359375,1,0,0,1.37301015854,,,2015_Sep_10_1221,G,facesParametric,4,59.629595404,
./stim/MorphM7_07_orig.jpg,73,,,,,0,73,73,73,,,,,,,,,,,,,,,,,,,-1.611328125,13.18359375,1,0,0,1.35615897179,,,2015_Sep_10_1221,G,facesParametric,4,59.629595404,
./stim/MorphM4_05_orig.jpg,74,,,,,0,74,74,74,,,,,,,,,,,,,,,,,,,-1.611328125,13.18359375,1,0,0,3.08222222328,,,2015_Sep_10_1221,G,facesParametric,4,59.629595404,
./stim/MorphF1_02_orig.jpg,75,,,,,0,75,75,75,,,,,,,,,,,,,,,,,,,-1.552734375,13.18359375,0,0,1,2.49602913857,,,2015_Sep_10_1221,G,facesParametric,4,59.629595404,
./stim/MorphM1_03_orig.jpg,76,,,,,0,76,76,76,,,,,,,,,,,,,,,,,,,-1.552734375,13.18359375,0,0,1,1.30468392372,,,2015_Sep_10_1221,G,facesParametric,4,59.629595404,
./stim/MorphM6_01_orig.jpg,77,,,,,0,77,77,77,,,,,,,,,,,,,,,,,,,-1.5234375,13.18359375,0,0,1,3.40135216713,,,2015_Sep_10_1221,G,facesParametric,4,59.629595404,
./stim/MorphF5_05_orig.jpg,78,,,,,0,78,78,78,,,,,,,,,,,,,,,,,,,-1.5234375,13.18359375,1,0,0,1.49056506157,,,2015_Sep_10_1221,G,facesParametric,4,59.629595404,
./stim/MorphF4_10_orig.jpg,79,,,,,0,79,79,79,,,,,,,,,,,,,,,,,,,-1.435546875,13.18359375,1,0,0,3.75034093857,,,2015_Sep_10_1221,G,facesParametric,4,59.629595404,
./stim/MorphF9_03_orig.jpg,80,,,,,0,80,80,80,,,,,,,,,,,,,,,,,,,-1.40625,13.18359375,0,0,1,4.72518897057,,,2015_Sep_10_1221,G,facesParametric,4,59.629595404,
./stim/MorphM8_04_orig.jpg,81,,,,,0,81,81,81,,,,,,,,,,,,,,,,,,,-1.40625,13.18359375,1,0,0,3.19961905479,,,2015_Sep_10_1221,G,facesParametric,4,59.629595404,
./stim/MorphF2_04_orig.jpg,82,,,,,0,82,82,82,,,,,,,,,,,,,,,,,,,-1.376953125,13.18359375,1,0,0,18.250617981,,,2015_Sep_10_1221,G,facesParametric,4,59.629595404,
./stim/MorphM10_01_orig.jpg,83,,,,,0,83,83,83,,,,,,,,,,,,,,,,,,,-1.376953125,13.18359375,0,0,1,1.9756000042,,,2015_Sep_10_1221,G,facesParametric,4,59.629595404,
./stim/MorphF6_10_orig.jpg,84,,,,,0,84,84,84,,,,,,,,,,,,,,,,,,,-1.376953125,13.18359375,1,0,0,2.96554207802,,,2015_Sep_10_1221,G,facesParametric,4,59.629595404,
./stim/MorphF10_00_orig.jpg,85,,,,,0,85,85,85,,,,,,,,,,,,,,,,,,,-1.376953125,13.18359375,0,0,1,1.33917999268,,,2015_Sep_10_1221,G,facesParametric,4,59.629595404,
./stim/MorphM10_04_orig.jpg,86,,,,,0,86,86,86,,,,,,,,,,,,,,,,,,,-1.40625,13.18359375,1,0,0,1.99379611015,,,2015_Sep_10_1221,G,facesParametric,4,59.629595404,
./stim/MorphM4_07_orig.jpg,87,,,,,0,87,87,87,,,,,,,,,,,,,,,,,,,-1.40625,13.18359375,1,0,0,1.40600681305,,,2015_Sep_10_1221,G,facesParametric,4,59.629595404,
./stim/MorphF10_07_orig.jpg,88,,,,,0,88,88,88,,,,,,,,,,,,,,,,,,,-1.40625,13.18359375,0,0,1,4.11943697929,,,2015_Sep_10_1221,G,facesParametric,4,59.629595404,
./stim/MorphF8_02_orig.jpg,89,,,,,0,89,89,89,,,,,,,,,,,,,,,,,,,-1.435546875,13.154296875,0,0,1,2.57866406441,,,2015_Sep_10_1221,G,facesParametric,4,59.629595404,
./stim/MorphM10_06_orig.jpg,90,,,,,0,90,90,90,,,,,,,,,,,,,,,,,,,-1.435546875,13.18359375,1,0,0,0.919010877609,,,2015_Sep_10_1221,G,facesParametric,4,59.629595404,
./stim/MorphF6_06_orig.jpg,91,,,,,0,91,91,91,,,,,,,,,,,,,,,,,,,-1.40625,13.18359375,0,0,1,2.94858717918,,,2015_Sep_10_1221,G,facesParametric,4,59.629595404,
./stim/MorphF2_07_orig.jpg,92,,,,,0,92,92,92,,,,,,,,,,,,,,,,,,,-1.40625,13.18359375,1,0,0,1.11977696419,,,2015_Sep_10_1221,G,facesParametric,4,59.629595404,
./stim/MorphF3_04_orig.jpg,93,,,,,0,93,93,93,,,,,,,,,,,,,,,,,,,-1.40625,13.18359375,0,0,1,1.23984622955,,,2015_Sep_10_1221,G,facesParametric,4,59.629595404,
./stim/MorphM10_10_orig.jpg,94,,,,,0,94,94,94,,,,,,,,,,,,,,,,,,,-1.40625,13.18359375,1,0,0,1.30485606194,,,2015_Sep_10_1221,G,facesParametric,4,59.629595404,
./stim/MorphF3_06_orig.jpg,95,,,,,0,95,95,95,,,,,,,,,,,,,,,,,,,-1.40625,13.18359375,0,0,1,1.55749201775,,,2015_Sep_10_1221,G,facesParametric,4,59.629595404,
./stim/MorphM8_06_orig.jpg,96,,,,,0,96,96,96,,,,,,,,,,,,,,,,,,,-1.40625,13.18359375,1,0,0,1.85874295235,,,2015_Sep_10_1221,G,facesParametric,4,59.629595404,
./stim/MorphM4_02_orig.jpg,97,,,,,0,97,97,97,,,,,,,,,,,,,,,,,,,-1.376953125,13.18359375,0,0,1,1.54087305069,,,2015_Sep_10_1221,G,facesParametric,4,59.629595404,
./stim/MorphF9_08_orig.jpg,98,,,,,0,98,98,98,,,,,,,,,,,,,,,,,,,-1.376953125,13.18359375,1,0,0,1.1879529953,,,2015_Sep_10_1221,G,facesParametric,4,59.629595404,
./stim/MorphF3_07_orig.jpg,99,,,,,0,99,99,99,,,,,,,,,,,,,,,,,,,-1.376953125,13.18359375,0,0,1,1.5413608551,,,2015_Sep_10_1221,G,facesParametric,4,59.629595404,
./stim/MorphM10_09_orig.jpg,100,,,,,0,100,100,100,,,,,,,,,,,,,,,,,,,-1.376953125,13.18359375,1,0,0,1.13667702675,,,2015_Sep_10_1221,G,facesParametric,4,59.629595404,
./stim/MorphM4_04_orig.jpg,101,,,,,0,101,101,101,,,,,,,,,,,,,,,,,,,-1.376953125,13.18359375,0,0,1,3.65274906158,,,2015_Sep_10_1221,G,facesParametric,4,59.629595404,
./stim/MorphM6_07_orig.jpg,102,,,,,0,102,102,102,,,,,,,,,,,,,,,,,,,-1.376953125,13.18359375,0,0,1,1.85726618767,,,2015_Sep_10_1221,G,facesParametric,4,59.629595404,
./stim/MorphF4_01_orig.jpg,103,,,,,0,103,103,103,,,,,,,,,,,,,,,,,,,-1.376953125,13.18359375,0,0,1,1.10447907448,,,2015_Sep_10_1221,G,facesParametric,4,59.629595404,
./stim/MorphF10_06_orig.jpg,104,,,,,0,104,104,104,,,,,,,,,,,,,,,,,,,-1.640625,11.630859375,0,0,1,5.26180791855,,,2015_Sep_10_1221,G,facesParametric,4,59.629595404,
./stim/MorphM3_00_orig.jpg,105,,,,,0,105,105,105,,,,,,,,,,,,,,,,,,,-1.69921875,11.689453125,0,0,1,0.970721960068,,,2015_Sep_10_1221,G,facesParametric,4,59.629595404,
./stim/MorphF7_08_orig.jpg,106,,,,,0,106,106,106,,,,,,,,,,,,,,,,,,,-1.69921875,11.689453125,1,0,0,1.42336201668,,,2015_Sep_10_1221,G,facesParametric,4,59.629595404,
./stim/MorphF1_06_orig.jpg,107,,,,,0,107,107,107,,,,,,,,,,,,,,,,,,,-1.69921875,11.71875,1,0,0,1.74181604385,,,2015_Sep_10_1221,G,facesParametric,4,59.629595404,
./stim/MorphM7_02_orig.jpg,108,,,,,0,108,108,108,,,,,,,,,,,,,,,,,,,-1.552734375,11.89453125,1,0,0,5.46270298958,,,2015_Sep_10_1221,G,facesParametric,4,59.629595404,
./stim/MorphM5_02_orig.jpg,109,,,,,0,109,109,109,,,,,,,,,,,,,,,,,,,-1.552734375,11.89453125,0,0,1,1.53902888298,,,2015_Sep_10_1221,G,facesParametric,4,59.629595404,
./stim/MorphM6_08_orig.jpg,110,,,,,0,110,110,110,,,,,,,,,,,,,,,,,,,-1.46484375,11.89453125,1,0,0,1.18841099739,,,2015_Sep_10_1221,G,facesParametric,4,59.629595404,
./stim/MorphF6_01_orig.jpg,111,,,,,0,111,111,111,,,,,,,,,,,,,,,,,,,-1.40625,11.953125,0,0,1,1.06891703606,,,2015_Sep_10_1221,G,facesParametric,4,59.629595404,
./stim/MorphM3_08_orig.jpg,112,,,,,0,112,112,112,,,,,,,,,,,,,,,,,,,-1.376953125,11.982421875,1,0,0,0.987558841705,,,2015_Sep_10_1221,G,facesParametric,4,59.629595404,
./stim/MorphF2_06_orig.jpg,113,,,,,0,113,113,113,,,,,,,,,,,,,,,,,,,-1.318359375,12.01171875,1,0,0,1.69140195847,,,2015_Sep_10_1221,G,facesParametric,4,59.629595404,
./stim/MorphM9_05_orig.jpg,114,,,,,0,114,114,114,,,,,,,,,,,,,,,,,,,-1.2890625,12.01171875,0,0,1,1.23980808258,,,2015_Sep_10_1221,G,facesParametric,4,59.629595404,
./stim/MorphM7_06_orig.jpg,115,,,,,0,115,115,115,,,,,,,,,,,,,,,,,,,-1.2890625,12.01171875,1,0,0,0.920464992523,,,2015_Sep_10_1221,G,facesParametric,4,59.629595404,
./stim/MorphF7_00_orig.jpg,116,,,,,0,116,116,116,,,,,,,,,,,,,,,,,,,-1.2890625,12.01171875,0,0,1,1.10254406929,,,2015_Sep_10_1221,G,facesParametric,4,59.629595404,
./stim/MorphM7_00_orig.jpg,117,,,,,0,117,117,117,,,,,,,,,,,,,,,,,,,-1.2890625,12.01171875,1,0,0,1.0713789463,,,2015_Sep_10_1221,G,facesParametric,4,59.629595404,
./stim/MorphM6_02_orig.jpg,118,,,,,0,118,118,118,,,,,,,,,,,,,,,,,,,-1.259765625,12.01171875,0,0,1,1.75770998001,,,2015_Sep_10_1221,G,facesParametric,4,59.629595404,
./stim/MorphF7_04_orig.jpg,119,,,,,0,119,119,119,,,,,,,,,,,,,,,,,,,-1.259765625,12.01171875,1,0,0,2.41263794899,,,2015_Sep_10_1221,G,facesParametric,4,59.629595404,
./stim/MorphF4_00_orig.jpg,120,,,,,0,120,120,120,,,,,,,,,,,,,,,,,,,-1.23046875,12.041015625,0,0,1,1.65548086166,,,2015_Sep_10_1221,G,facesParametric,4,59.629595404,
./stim/MorphF9_07_orig.jpg,121,,,,,0,121,121,121,,,,,,,,,,,,,,,,,,,-1.23046875,12.041015625,1,0,0,0.902940988541,,,2015_Sep_10_1221,G,facesParametric,4,59.629595404,
./stim/MorphF4_05_orig.jpg,122,,,,,0,122,122,122,,,,,,,,,,,,,,,,,,,-1.23046875,12.041015625,0,0,1,2.66181492805,,,2015_Sep_10_1221,G,facesParametric,4,59.629595404,
./stim/MorphF5_10_orig.jpg,123,,,,,0,123,123,123,,,,,,,,,,,,,,,,,,,-1.23046875,12.041015625,1,0,0,1.64104294777,,,2015_Sep_10_1221,G,facesParametric,4,59.629595404,
./stim/MorphM9_06_orig.jpg,124,,,,,0,124,124,124,,,,,,,,,,,,,,,,,,,-1.23046875,12.041015625,0,0,1,1.5892469883,,,2015_Sep_10_1221,G,facesParametric,4,59.629595404,
./stim/MorphF1_00_orig.jpg,125,,,,,0,125,125,125,,,,,,,,,,,,,,,,,,,-1.23046875,12.041015625,0,0,1,1.06998205185,,,2015_Sep_10_1221,G,facesParametric,4,59.629595404,
./stim/MorphF5_07_orig.jpg,126,,,,,0,126,126,126,,,,,,,,,,,,,,,,,,,-1.23046875,12.041015625,1,0,0,0.937412023544,,,2015_Sep_10_1221,G,facesParametric,4,59.629595404,
./stim/MorphM6_06_orig.jpg,127,,,,,0,127,127,127,,,,,,,,,,,,,,,,,,,-1.23046875,12.041015625,1,0,0,2.46145892143,,,2015_Sep_10_1221,G,facesParametric,4,59.629595404,
./stim/MorphF2_00_orig.jpg,128,,,,,0,128,128,128,,,,,,,,,,,,,,,,,,,-1.23046875,12.041015625,0,0,1,0.870590925217,,,2015_Sep_10_1221,G,facesParametric,4,59.629595404,
./stim/MorphM6_03_orig.jpg,129,,,,,0,129,129,129,,,,,,,,,,,,,,,,,,,-1.23046875,12.041015625,0,0,1,4.38906908035,,,2015_Sep_10_1221,G,facesParametric,4,59.629595404,
./stim/MorphM3_04_orig.jpg,130,,,,,0,130,130,130,,,,,,,,,,,,,,,,,,,-1.23046875,12.041015625,1,0,0,3.68621897697,,,2015_Sep_10_1221,G,facesParametric,4,59.629595404,
./stim/MorphM8_01_orig.jpg,131,,,,,0,131,131,131,,,,,,,,,,,,,,,,,,,-1.259765625,12.0703125,0,0,1,1.11967515945,,,2015_Sep_10_1221,G,facesParametric,4,59.629595404,
./stim/MorphM1_06_orig.jpg,132,,,,,0,132,132,132,,,,,,,,,,,,,,,,,,,-1.259765625,12.0703125,0,0,1,0.835759162903,,,2015_Sep_10_1221,G,facesParametric,4,59.629595404,
./stim/MorphM2_09_orig.jpg,133,,,,,0,133,133,133,,,,,,,,,,,,,,,,,,,-1.2890625,12.0703125,1,0,0,0.887249946594,,,2015_Sep_10_1221,G,facesParametric,4,59.629595404,
./stim/MorphF2_01_orig.jpg,134,,,,,0,134,134,134,,,,,,,,,,,,,,,,,,,-1.34765625,12.099609375,0,0,1,2.32803988457,,,2015_Sep_10_1221,G,facesParametric,4,59.629595404,
./stim/MorphM5_01_orig.jpg,135,,,,,0,135,135,135,,,,,,,,,,,,,,,,,,,-1.34765625,12.099609375,0,0,1,0.903753995895,,,2015_Sep_10_1221,G,facesParametric,4,59.629595404,
./stim/MorphF8_03_orig.jpg,136,,,,,0,136,136,136,,,,,,,,,,,,,,,,,,,-1.34765625,12.099609375,0,0,1,1.28731298447,,,2015_Sep_10_1221,G,facesParametric,4,59.629595404,
./stim/MorphF10_03_orig.jpg,137,,,,,0,137,137,137,,,,,,,,,,,,,,,,,,,-1.34765625,12.099609375,0,0,1,2.71409797668,,,2015_Sep_10_1221,G,facesParametric,4,59.629595404,
./stim/MorphM7_09_orig.jpg,138,,,,,0,138,138,138,,,,,,,,,,,,,,,,,,,-1.34765625,12.099609375,1,0,0,1.18858194351,,,2015_Sep_10_1221,G,facesParametric,4,59.629595404,
./stim/MorphM9_00_orig.jpg,139,,,,,0,139,139,139,,,,,,,,,,,,,,,,,,,-1.34765625,12.099609375,0,0,1,1.63977885246,,,2015_Sep_10_1221,G,facesParametric,4,59.629595404,
./stim/MorphM3_05_orig.jpg,140,,,,,0,140,140,140,,,,,,,,,,,,,,,,,,,-1.318359375,12.0703125,1,0,0,1.20514297485,,,2015_Sep_10_1221,G,facesParametric,4,59.629595404,
./stim/MorphM1_07_orig.jpg,141,,,,,0,141,141,141,,,,,,,,,,,,,,,,,,,-1.5234375,11.865234375,0,0,1,1.8765130043,,,2015_Sep_10_1221,G,facesParametric,4,59.629595404,
./stim/MorphM9_07_orig.jpg,142,,,,,0,142,142,142,,,,,,,,,,,,,,,,,,,-1.5234375,11.865234375,0,0,1,0.819446086884,,,2015_Sep_10_1221,G,facesParametric,4,59.629595404,
./stim/MorphF3_03_orig.jpg,143,,,,,0,143,143,143,,,,,,,,,,,,,,,,,,,-1.5234375,11.865234375,0,0,1,0.903668165207,,,2015_Sep_10_1221,G,facesParametric,4,59.629595404,
./stim/MorphF4_07_orig.jpg,144,,,,,0,144,144,144,,,,,,,,,,,,,,,,,,,-1.5234375,11.865234375,1,0,0,1.23723292351,,,2015_Sep_10_1221,G,facesParametric,4,59.629595404,
./stim/MorphM2_10_orig.jpg,145,,,,,0,145,145,145,,,,,,,,,,,,,,,,,,,-1.5234375,11.865234375,1,0,0,0.85129404068,,,2015_Sep_10_1221,G,facesParametric,4,59.629595404,
./stim/MorphF7_06_orig.jpg,146,,,,,0,146,146,146,,,,,,,,,,,,,,,,,,,-1.46484375,11.953125,1,0,0,1.12153601646,,,2015_Sep_10_1221,G,facesParametric,4,59.629595404,
./stim/MorphM8_02_orig.jpg,147,,,,,0,147,147,147,,,,,,,,,,,,,,,,,,,-1.40625,12.01171875,1,0,0,2.44615292549,,,2015_Sep_10_1221,G,facesParametric,4,59.629595404,
./stim/MorphF3_05_orig.jpg,148,,,,,0,148,148,148,,,,,,,,,,,,,,,,,,,-1.34765625,12.0703125,0,0,1,1.92648100853,,,2015_Sep_10_1221,G,facesParametric,4,59.629595404,
./stim/MorphF6_04_orig.jpg,149,,,,,0,149,149,149,,,,,,,,,,,,,,,,,,,-1.2890625,12.0703125,0,0,1,1.4545109272,,,2015_Sep_10_1221,G,facesParametric,4,59.629595404,
./stim/MorphM4_10_orig.jpg,150,,,,,0,150,150,150,,,,,,,,,,,,,,,,,,,-1.2890625,12.0703125,1,0,0,1.08823394775,,,2015_Sep_10_1221,G,facesParametric,4,59.629595404,
./stim/MorphF10_08_orig.jpg,151,,,,,0,151,151,151,,,,,,,,,,,,,,,,,,,-1.171875,12.12890625,0,0,1,3.01335978508,,,2015_Sep_10_1221,G,facesParametric,4,59.629595404,
./stim/MorphF5_02_orig.jpg,152,,,,,0,152,152,152,,,,,,,,,,,,,,,,,,,-1.142578125,12.12890625,0,0,1,1.33984088898,,,2015_Sep_10_1221,G,facesParametric,4,59.629595404,
./stim/MorphF1_05_orig.jpg,153,,,,,0,153,153,153,,,,,,,,,,,,,,,,,,,-1.11328125,12.158203125,0,0,1,0.85351896286,,,2015_Sep_10_1221,G,facesParametric,4,59.629595404,
./stim/MorphF9_09_orig.jpg,154,,,,,0,154,154,154,,,,,,,,,,,,,,,,,,,-1.11328125,12.158203125,1,0,0,0.867872953415,,,2015_Sep_10_1221,G,facesParametric,4,59.629595404,
./stim/MorphF5_03_orig.jpg,155,,,,,0,155,155,155,,,,,,,,,,,,,,,,,,,-1.083984375,12.158203125,0,0,1,1.25562310219,,,2015_Sep_10_1221,G,facesParametric,4,59.629595404,
./stim/MorphF4_03_orig.jpg,156,,,,,0,156,156,156,,,,,,,,,,,,,,,,,,,-1.025390625,12.1875,0,0,1,1.07124614716,,,2015_Sep_10_1221,G,facesParametric,4,59.629595404,
./stim/MorphF5_01_orig.jpg,157,,,,,0,157,157,157,,,,,,,,,,,,,,,,,,,-1.025390625,12.1875,0,0,1,0.987118959427,,,2015_Sep_10_1221,G,facesParametric,4,59.629595404,
./stim/MorphM1_01_orig.jpg,158,,,,,0,158,158,158,,,,,,,,,,,,,,,,,,,-1.025390625,12.1875,0,0,1,1.72512197495,,,2015_Sep_10_1221,G,facesParametric,4,59.629595404,
./stim/MorphF9_02_orig.jpg,159,,,,,0,159,159,159,,,,,,,,,,,,,,,,,,,-1.025390625,12.158203125,0,0,1,2.31029701233,,,2015_Sep_10_1221,G,facesParametric,4,59.629595404,
./stim/MorphF2_02_orig.jpg,160,,,,,0,160,160,160,,,,,,,,,,,,,,,,,,,-0.99609375,12.12890625,0,0,1,3.08277988434,,,2015_Sep_10_1221,G,facesParametric,4,59.629595404,
./stim/MorphM8_10_orig.jpg,161,,,,,0,161,161,161,,,,,,,,,,,,,,,,,,,-0.99609375,12.12890625,1,0,0,1.00406098366,,,2015_Sep_10_1221,G,facesParametric,4,59.629595404,
./stim/MorphM1_10_orig.jpg,162,,,,,0,162,162,162,,,,,,,,,,,,,,,,,,,-0.87890625,12.1875,1,0,0,2.6638109684,,,2015_Sep_10_1221,G,facesParametric,4,59.629595404,
./stim/MorphF10_04_orig.jpg,163,,,,,0,163,163,163,,,,,,,,,,,,,,,,,,,-0.87890625,12.1875,0,0,1,2.32658600807,,,2015_Sep_10_1221,G,facesParametric,4,59.629595404,
./stim/MorphF3_00_orig.jpg,164,,,,,0,164,164,164,,,,,,,,,,,,,,,,,,,-0.87890625,12.1875,0,0,1,2.8650701046,,,2015_Sep_10_1221,G,facesParametric,4,59.629595404,
./stim/MorphM2_07_orig.jpg,165,,,,,0,165,165,165,,,,,,,,,,,,,,,,,,,-0.849609375,12.216796875,1,0,0,0.970691919327,,,2015_Sep_10_1221,G,facesParametric,4,59.629595404,
./stim/MorphF7_05_orig.jpg,166,,,,,0,166,166,166,,,,,,,,,,,,,,,,,,,-0.849609375,12.216796875,1,0,0,1.1386320591,,,2015_Sep_10_1221,G,facesParametric,4,59.629595404,
./stim/MorphF6_03_orig.jpg,167,,,,,0,167,167,167,,,,,,,,,,,,,,,,,,,-0.791015625,12.24609375,0,0,1,2.0265109539,,,2015_Sep_10_1221,G,facesParametric,4,59.629595404,
./stim/MorphF3_02_orig.jpg,168,,,,,0,168,168,168,,,,,,,,,,,,,,,,,,,-0.791015625,12.24609375,0,0,1,1.95949196815,,,2015_Sep_10_1221,G,facesParametric,4,59.629595404,
./stim/MorphF1_01_orig.jpg,169,,,,,0,169,169,169,,,,,,,,,,,,,,,,,,,-0.8203125,12.275390625,0,0,1,1.02123785019,,,2015_Sep_10_1221,G,facesParametric,4,59.629595404,
./stim/MorphM1_04_orig.jpg,170,,,,,0,170,170,170,,,,,,,,,,,,,,,,,,,-0.8203125,12.275390625,0,0,1,2.71361303329,,,2015_Sep_10_1221,G,facesParametric,4,59.629595404,
./stim/MorphF4_09_orig.jpg,171,,,,,0,171,171,171,,,,,,,,,,,,,,,,,,,-0.8203125,12.275390625,1,0,0,1.17210102081,,,2015_Sep_10_1221,G,facesParametric,4,59.629595404,
./stim/MorphM6_00_orig.jpg,172,,,,,0,172,172,172,,,,,,,,,,,,,,,,,,,-0.8203125,12.3046875,0,0,1,1.28926610947,,,2015_Sep_10_1221,G,facesParametric,4,59.629595404,
./stim/MorphM5_09_orig.jpg,173,,,,,0,173,173,173,,,,,,,,,,,,,,,,,,,-0.8203125,12.3046875,1,0,0,1.6227118969,,,2015_Sep_10_1221,G,facesParametric,4,59.629595404,
./stim/MorphF5_06_orig.jpg,174,,,,,0,174,174,174,,,,,,,,,,,,,,,,,,,-0.732421875,12.421875,1,0,0,2.71339607239,,,2015_Sep_10_1221,G,facesParametric,4,59.629595404,
./stim/MorphF9_01_orig.jpg,175,,,,,0,175,175,175,,,,,,,,,,,,,,,,,,,-0.732421875,12.421875,0,0,1,1.90940594673,,,2015_Sep_10_1221,G,facesParametric,4,59.629595404,
./stim/MorphM5_07_orig.jpg,176,,,,,0,176,176,176,,,,,,,,,,,,,,,,,,,-0.732421875,12.421875,1,0,0,2.37839198112,,,2015_Sep_10_1221,G,facesParametric,4,59.629595404,
./stim/MorphM2_01_orig.jpg,177,,,,,0,177,177,177,,,,,,,,,,,,,,,,,,,-0.732421875,12.421875,0,0,1,2.8289937973,,,2015_Sep_10_1221,G,facesParametric,4,59.629595404,
./stim/MorphM7_03_orig.jpg,178,,,,,0,178,178,178,,,,,,,,,,,,,,,,,,,-0.732421875,12.421875,1,0,0,3.71791410446,,,2015_Sep_10_1221,G,facesParametric,4,59.629595404,
./stim/MorphM9_09_orig.jpg,179,,,,,0,179,179,179,,,,,,,,,,,,,,,,,,,-0.76171875,12.392578125,1,0,0,1.12180399895,,,2015_Sep_10_1221,G,facesParametric,4,59.629595404,
./stim/MorphF9_10_orig.jpg,180,,,,,0,180,180,180,,,,,,,,,,,,,,,,,,,-0.76171875,12.392578125,1,0,0,0.902255058289,,,2015_Sep_10_1221,G,facesParametric,4,59.629595404,
./stim/MorphF8_10_orig.jpg,181,,,,,0,181,181,181,,,,,,,,,,,,,,,,,,,-0.76171875,12.392578125,1,0,0,0.752584934235,,,2015_Sep_10_1221,G,facesParametric,4,59.629595404,
./stim/MorphF10_10_orig.jpg,182,,,,,0,182,182,182,,,,,,,,,,,,,,,,,,,-0.76171875,12.392578125,1,0,0,1.65797996521,,,2015_Sep_10_1221,G,facesParametric,4,59.629595404,
./stim/MorphM3_09_orig.jpg,183,,,,,0,183,183,183,,,,,,,,,,,,,,,,,,,-0.76171875,12.392578125,1,0,0,0.903583049774,,,2015_Sep_10_1221,G,facesParametric,4,59.629595404,
./stim/MorphF10_05_orig.jpg,184,,,,,0,184,184,184,,,,,,,,,,,,,,,,,,,-0.791015625,12.392578125,0,0,1,1.02104592323,,,2015_Sep_10_1221,G,facesParametric,4,59.629595404,
./stim/MorphF6_00_orig.jpg,185,,,,,0,185,185,185,,,,,,,,,,,,,,,,,,,-0.791015625,12.392578125,0,0,1,0.937123060226,,,2015_Sep_10_1221,G,facesParametric,4,59.629595404,
./stim/MorphF8_08_orig.jpg,186,,,,,0,186,186,186,,,,,,,,,,,,,,,,,,,-0.791015625,12.392578125,0,0,1,1.35577988625,,,2015_Sep_10_1221,G,facesParametric,4,59.629595404,
./stim/MorphF7_10_orig.jpg,187,,,,,0,187,187,187,,,,,,,,,,,,,,,,,,,-0.8203125,12.36328125,1,0,0,2.12719416618,,,2015_Sep_10_1221,G,facesParametric,4,59.629595404,
./stim/MorphM9_10_orig.jpg,188,,,,,0,188,188,188,,,,,,,,,,,,,,,,,,,-0.8203125,12.36328125,1,0,0,1.00357484818,,,2015_Sep_10_1221,G,facesParametric,4,59.629595404,
./stim/MorphM10_05_orig.jpg,189,,,,,0,189,189,189,,,,,,,,,,,,,,,,,,,-0.8203125,12.36328125,1,0,0,1.13741803169,,,2015_Sep_10_1221,G,facesParametric,4,59.629595404,
./stim/MorphM8_03_orig.jpg,190,,,,,0,190,190,190,,,,,,,,,,,,,,,,,,,-0.8203125,12.36328125,1,0,0,2.1609108448,,,2015_Sep_10_1221,G,facesParametric,4,59.629595404,
./stim/MorphF2_10_orig.jpg,191,,,,,0,191,191,191,,,,,,,,,,,,,,,,,,,-0.8203125,12.36328125,1,0,0,1.33917307854,,,2015_Sep_10_1221,G,facesParametric,4,59.629595404,
./stim/MorphM1_02_orig.jpg,192,,,,,0,192,192,192,,,,,,,,,,,,,,,,,,,-0.8203125,12.36328125,0,0,1,1.75868606567,,,2015_Sep_10_1221,G,facesParametric,4,59.629595404,
./stim/MorphM4_09_orig.jpg,193,,,,,0,193,193,193,,,,,,,,,,,,,,,,,,,-0.8203125,12.36328125,1,0,0,1.27245402336,,,2015_Sep_10_1221,G,facesParametric,4,59.629595404,
./stim/MorphM8_07_orig.jpg,194,,,,,0,194,194,194,,,,,,,,,,,,,,,,,,,-0.8203125,12.36328125,1,0,0,1.13801002502,,,2015_Sep_10_1221,G,facesParametric,4,59.629595404,
./stim/MorphM1_08_orig.jpg,195,,,,,0,195,195,195,,,,,,,,,,,,,,,,,,,-1.083984375,11.71875,1,0,0,6.48500204086,,,2015_Sep_10_1221,G,facesParametric,4,59.629595404,
./stim/MorphF4_08_orig.jpg,196,,,,,0,196,196,196,,,,,,,,,,,,,,,,,,,-1.083984375,11.71875,1,0,0,0.85312795639,,,2015_Sep_10_1221,G,facesParametric,4,59.629595404,
./stim/MorphM9_04_orig.jpg,197,,,,,0,197,197,197,,,,,,,,,,,,,,,,,,,-1.0546875,11.748046875,0,0,1,3.4827041626,,,2015_Sep_10_1221,G,facesParametric,4,59.629595404,
./stim/MorphF1_09_orig.jpg,198,,,,,0,198,198,198,,,,,,,,,,,,,,,,,,,-1.0546875,11.748046875,1,0,0,1.10509490967,,,2015_Sep_10_1221,G,facesParametric,4,59.629595404,
./stim/MorphM9_08_orig.jpg,199,,,,,0,199,199,199,,,,,,,,,,,,,,,,,,,-1.025390625,11.71875,1,0,0,0.935210943222,,,2015_Sep_10_1221,G,facesParametric,4,59.629595404,
./stim/MorphF10_01_orig.jpg,200,,,,,0,200,200,200,,,,,,,,,,,,,,,,,,,-0.99609375,11.748046875,0,0,1,2.01047897339,,,2015_Sep_10_1221,G,facesParametric,4,59.629595404,
./stim/MorphM10_00_orig.jpg,201,,,,,0,201,201,201,,,,,,,,,,,,,,,,,,,-0.966796875,11.748046875,0,0,1,1.99281620979,,,2015_Sep_10_1221,G,facesParametric,4,59.629595404,
./stim/MorphM2_00_orig.jpg,202,,,,,0,202,202,202,,,,,,,,,,,,,,,,,,,-0.908203125,11.748046875,0,0,1,0.968687057495,,,2015_Sep_10_1221,G,facesParametric,4,59.629595404,
./stim/MorphM9_01_orig.jpg,203,,,,,0,203,203,203,,,,,,,,,,,,,,,,,,,-0.908203125,11.748046875,0,0,1,1.15330696106,,,2015_Sep_10_1221,G,facesParametric,4,59.629595404,
./stim/MorphF7_09_orig.jpg,204,,,,,0,204,204,204,,,,,,,,,,,,,,,,,,,-0.908203125,11.748046875,1,0,0,0.870319128036,,,2015_Sep_10_1221,G,facesParametric,4,59.629595404,
./stim/MorphF9_00_orig.jpg,205,,,,,0,205,205,205,,,,,,,,,,,,,,,,,,,-0.908203125,11.748046875,0,0,1,1.55505990982,,,2015_Sep_10_1221,G,facesParametric,4,59.629595404,
./stim/MorphM2_02_orig.jpg,206,,,,,0,206,206,206,,,,,,,,,,,,,,,,,,,-0.908203125,11.748046875,0,0,1,1.02200698853,,,2015_Sep_10_1221,G,facesParametric,4,59.629595404,
./stim/MorphF8_05_orig.jpg,207,,,,,0,207,207,207,,,,,,,,,,,,,,,,,,,-0.87890625,11.689453125,0,0,1,0.935893058777,,,2015_Sep_10_1221,G,facesParametric,4,59.629595404,
./stim/MorphF3_09_orig.jpg,208,,,,,0,208,208,208,,,,,,,,,,,,,,,,,,,-0.87890625,11.689453125,1,0,0,2.29459905624,,,2015_Sep_10_1221,G,facesParametric,4,59.629595404,
./stim/MorphM5_10_orig.jpg,209,,,,,0,209,209,209,,,,,,,,,,,,,,,,,,,-0.87890625,11.689453125,1,0,0,1.16979718208,,,2015_Sep_10_1221,G,facesParametric,4,59.629595404,
./stim/MorphM8_08_orig.jpg,210,,,,,0,210,210,210,,,,,,,,,,,,,,,,,,,-0.87890625,11.689453125,1,0,0,0.803551912308,,,2015_Sep_10_1221,G,facesParametric,4,59.629595404,
./stim/MorphM3_07_orig.jpg,211,,,,,0,211,211,211,,,,,,,,,,,,,,,,,,,-0.87890625,11.689453125,1,0,0,0.803292989731,,,2015_Sep_10_1221,G,facesParametric,4,59.629595404,
./stim/MorphM5_06_orig.jpg,212,,,,,0,212,212,212,,,,,,,,,,,,,,,,,,,-0.87890625,11.689453125,1,0,0,2.76405692101,,,2015_Sep_10_1221,G,facesParametric,4,59.629595404,
./stim/MorphF5_09_orig.jpg,213,,,,,0,213,213,213,,,,,,,,,,,,,,,,,,,-0.87890625,11.689453125,1,0,0,0.785758018494,,,2015_Sep_10_1221,G,facesParametric,4,59.629595404,
./stim/MorphF8_06_orig.jpg,214,,,,,0,214,214,214,,,,,,,,,,,,,,,,,,,-0.8203125,11.71875,1,0,0,3.93710899353,,,2015_Sep_10_1221,G,facesParametric,4,59.629595404,
./stim/MorphF5_04_orig.jpg,215,,,,,0,215,215,215,,,,,,,,,,,,,,,,,,,-0.8203125,11.71875,1,0,0,0.971112012863,,,2015_Sep_10_1221,G,facesParametric,4,59.629595404,
./stim/MorphM2_04_orig.jpg,216,,,,,0,216,216,216,,,,,,,,,,,,,,,,,,,-0.615234375,11.748046875,0,0,1,3.75265789032,,,2015_Sep_10_1221,G,facesParametric,4,59.629595404,
./stim/MorphF2_05_orig.jpg,217,,,,,0,217,217,217,,,,,,,,,,,,,,,,,,,-0.5859375,11.71875,1,0,0,2.10989308357,,,2015_Sep_10_1221,G,facesParametric,4,59.629595404,
./stim/MorphM7_01_orig.jpg,218,,,,,0,218,218,218,,,,,,,,,,,,,,,,,,,-0.556640625,11.748046875,1,0,0,2.42779803276,,,2015_Sep_10_1221,G,facesParametric,4,59.629595404,
./stim/MorphF10_09_orig.jpg,219,,,,,0,219,219,219,,,,,,,,,,,,,,,,,,,-0.52734375,11.77734375,1,0,0,2.61297607422,,,2015_Sep_10_1221,G,facesParametric,4,59.629595404,
,,,,,,,,,,,,,,,,,,,,,,,,,,,,,,,,,,return,18.4189858437,2015_Sep_10_1221,G,facesParametric,4,59.629595404,
./stim/MorphM6_10_orig.jpg,0,,,,,,,,,0,0,0,0,,,,,,,,,,,,,,,13.037109375,5.361328125,1,0,0,6.80959701538,,,2015_Sep_10_1221,G,facesParametric,4,59.629595404,
./stim/MorphF9_04_orig.jpg,1,,,,,,,,,0,1,1,1,,,,,,,,,,,,,,,13.154296875,5.361328125,0,0,1,3.18105912209,,,2015_Sep_10_1221,G,facesParametric,4,59.629595404,
./stim/MorphM3_03_orig.jpg,2,,,,,,,,,0,2,2,2,,,,,,,,,,,,,,,13.095703125,5.2734375,0,0,1,4.05416893959,,,2015_Sep_10_1221,G,facesParametric,4,59.629595404,
./stim/MorphM1_00_orig.jpg,3,,,,,,,,,0,3,3,3,,,,,,,,,,,,,,,13.095703125,5.2734375,0,0,1,2.32744002342,,,2015_Sep_10_1221,G,facesParametric,4,59.629595404,
./stim/MorphM6_09_orig.jpg,4,,,,,,,,,0,4,4,4,,,,,,,,,,,,,,,13.095703125,5.2734375,1,0,0,0.887089014053,,,2015_Sep_10_1221,G,facesParametric,4,59.629595404,
./stim/MorphM10_02_orig.jpg,5,,,,,,,,,0,5,5,5,,,,,,,,,,,,,,,13.06640625,5.244140625,0,0,1,2.27786302567,,,2015_Sep_10_1221,G,facesParametric,4,59.629595404,
./stim/MorphM3_06_orig.jpg,6,,,,,,,,,0,6,6,6,,,,,,,,,,,,,,,13.095703125,5.2734375,1,0,0,0.987884998322,,,2015_Sep_10_1221,G,facesParametric,4,59.629595404,
./stim/MorphM7_08_orig.jpg,7,,,,,,,,,0,7,7,7,,,,,,,,,,,,,,,13.18359375,5.33203125,1,0,0,1.55720901489,,,2015_Sep_10_1221,G,facesParametric,4,59.629595404,
./stim/MorphM6_04_orig.jpg,8,,,,,,,,,0,8,8,8,,,,,,,,,,,,,,,13.212890625,5.33203125,0,0,1,1.27255415916,,,2015_Sep_10_1221,G,facesParametric,4,59.629595404,
./stim/MorphM2_05_orig.jpg,9,,,,,,,,,0,9,9,9,,,,,,,,,,,,,,,13.359375,5.712890625,0,0,1,4.40607905388,,,2015_Sep_10_1221,G,facesParametric,4,59.629595404,
./stim/MorphM3_01_orig.jpg,10,,,,,,,,,0,10,10,10,,,,,,,,,,,,,,,13.359375,5.712890625,1,0,0,2.59721493721,,,2015_Sep_10_1221,G,facesParametric,4,59.629595404,
./stim/MorphF1_03_orig.jpg,11,,,,,,,,,0,11,11,11,,,,,,,,,,,,,,,13.359375,5.68359375,0,0,1,3.18068909645,,,2015_Sep_10_1221,G,facesParametric,4,59.629595404,
./stim/MorphF8_09_orig.jpg,12,,,,,,,,,0,12,12,12,,,,,,,,,,,,,,,13.359375,5.68359375,1,0,0,1.05449795723,,,2015_Sep_10_1221,G,facesParametric,4,59.629595404,
./stim/MorphF3_01_orig.jpg,13,,,,,,,,,0,13,13,13,,,,,,,,,,,,,,,13.359375,5.68359375,0,0,1,2.24448204041,,,2015_Sep_10_1221,G,facesParametric,4,59.629595404,
./stim/MorphF7_03_orig.jpg,14,,,,,,,,,0,14,14,14,,,,,,,,,,,,,,,13.41796875,5.654296875,1,0,0,3.13249611855,,,2015_Sep_10_1221,G,facesParametric,4,59.629595404,
./stim/MorphM1_05_orig.jpg,15,,,,,,,,,0,15,15,15,,,,,,,,,,,,,,,13.41796875,5.654296875,0,0,1,2.61186313629,,,2015_Sep_10_1221,G,facesParametric,4,59.629595404,
./stim/MorphM5_08_orig.jpg,16,,,,,,,,,0,16,16,16,,,,,,,,,,,,,,,13.41796875,5.654296875,1,0,0,1.18868803978,,,2015_Sep_10_1221,G,facesParametric,4,59.629595404,
./stim/MorphF7_01_orig.jpg,17,,,,,,,,,0,17,17,17,,,,,,,,,,,,,,,13.41796875,5.654296875,0,0,1,1.54056215286,,,2015_Sep_10_1221,G,facesParametric,4,59.629595404,
./stim/MorphF1_10_orig.jpg,18,,,,,,,,,0,18,18,18,,,,,,,,,,,,,,,13.388671875,5.68359375,1,0,0,1.02050304413,,,2015_Sep_10_1221,G,facesParametric,4,59.629595404,
./stim/MorphF9_06_orig.jpg,19,,,,,,,,,0,19,19,19,,,,,,,,,,,,,,,13.447265625,5.859375,1,0,0,3.56854104996,,,2015_Sep_10_1221,G,facesParametric,4,59.629595404,
./stim/MorphM4_00_orig.jpg,20,,,,,,,,,0,20,20,20,,,,,,,,,,,,,,,13.447265625,5.859375,0,0,1,1.25595879555,,,2015_Sep_10_1221,G,facesParametric,4,59.629595404,
./stim/MorphM10_08_orig.jpg,21,,,,,,,,,0,21,21,21,,,,,,,,,,,,,,,13.447265625,5.859375,1,0,0,1.20416212082,,,2015_Sep_10_1221,G,facesParametric,4,59.629595404,
./stim/MorphF8_07_orig.jpg,22,,,,,,,,,0,22,22,22,,,,,,,,,,,,,,,13.4765625,5.830078125,1,0,0,1.12152504921,,,2015_Sep_10_1221,G,facesParametric,4,59.629595404,
./stim/MorphF6_02_orig.jpg,23,,,,,,,,,0,23,23,23,,,,,,,,,,,,,,,13.4765625,5.830078125,0,0,1,1.00446105003,,,2015_Sep_10_1221,G,facesParametric,4,59.629595404,
./stim/MorphM2_08_orig.jpg,24,,,,,,,,,0,24,24,24,,,,,,,,,,,,,,,13.4765625,5.830078125,1,0,0,0.82088303566,,,2015_Sep_10_1221,G,facesParametric,4,59.629595404,
./stim/MorphF9_05_orig.jpg,25,,,,,,,,,0,25,25,25,,,,,,,,,,,,,,,13.4765625,5.830078125,0,0,1,1.57333993912,,,2015_Sep_10_1221,G,facesParametric,4,59.629595404,
./stim/MorphF1_08_orig.jpg,26,,,,,,,,,0,26,26,26,,,,,,,,,,,,,,,13.447265625,5.80078125,1,0,0,1.18739795685,,,2015_Sep_10_1221,G,facesParametric,4,59.629595404,
./stim/MorphF6_09_orig.jpg,27,,,,,,,,,0,27,27,27,,,,,,,,,,,,,,,13.447265625,5.80078125,1,0,0,0.870221853256,,,2015_Sep_10_1221,G,facesParametric,4,59.629595404,
./stim/MorphF2_09_orig.jpg,28,,,,,,,,,0,28,28,28,,,,,,,,,,,,,,,13.447265625,5.80078125,1,0,0,1.0713558197,,,2015_Sep_10_1221,G,facesParametric,4,59.629595404,
./stim/MorphF1_04_orig.jpg,29,,,,,,,,,0,29,29,29,,,,,,,,,,,,,,,13.505859375,5.830078125,0,0,1,2.4286570549,,,2015_Sep_10_1221,G,facesParametric,4,59.629595404,
./stim/MorphM4_06_orig.jpg,30,,,,,,,,,0,30,30,30,,,,,,,,,,,,,,,13.564453125,5.888671875,1,0,0,2.36091995239,,,2015_Sep_10_1221,G,facesParametric,4,59.629595404,
./stim/MorphM5_04_orig.jpg,31,,,,,,,,,0,31,31,31,,,,,,,,,,,,,,,13.59375,5.91796875,1,0,0,0.820441961288,,,2015_Sep_10_1221,G,facesParametric,4,59.629595404,
./stim/MorphF10_02_orig.jpg,32,,,,,,,,,0,32,32,32,,,,,,,,,,,,,,,13.740234375,5.9765625,0,0,1,11.2254519463,,,2015_Sep_10_1221,G,facesParametric,4,59.629595404,
./stim/MorphF6_05_orig.jpg,33,,,,,,,,,0,33,33,33,,,,,,,,,,,,,,,13.740234375,5.9765625,0,0,1,9.3169670105,,,2015_Sep_10_1221,G,facesParametric,4,59.629595404,
./stim/MorphF8_01_orig.jpg,34,,,,,,,,,0,34,34,34,,,,,,,,,,,,,,,13.740234375,5.9765625,0,0,1,1.18816804886,,,2015_Sep_10_1221,G,facesParametric,4,59.629595404,
./stim/MorphM2_06_orig.jpg,35,,,,,,,,,0,35,35,35,,,,,,,,,,,,,,,13.740234375,5.9765625,1,0,0,1.92621994019,,,2015_Sep_10_1221,G,facesParametric,4,59.629595404,
./stim/MorphM9_02_orig.jpg,36,,,,,,,,,0,36,36,36,,,,,,,,,,,,,,,13.740234375,5.9765625,0,0,1,0.920816898346,,,2015_Sep_10_1221,G,facesParametric,4,59.629595404,
./stim/MorphM5_03_orig.jpg,37,,,,,,,,,0,37,37,37,,,,,,,,,,,,,,,13.740234375,5.9765625,1,0,0,1.05428695679,,,2015_Sep_10_1221,G,facesParametric,4,59.629595404,
./stim/MorphM4_01_orig.jpg,38,,,,,,,,,0,38,38,38,,,,,,,,,,,,,,,13.740234375,5.9765625,0,0,1,1.59041810036,,,2015_Sep_10_1221,G,facesParametric,4,59.629595404,
./stim/MorphM6_05_orig.jpg,39,,,,,,,,,0,39,39,39,,,,,,,,,,,,,,,13.359375,5.80078125,0,0,1,5.59690093994,,,2015_Sep_10_1221,G,facesParametric,4,59.629595404,
./stim/MorphF4_02_orig.jpg,40,,,,,,,,,0,40,40,40,,,,,,,,,,,,,,,13.125,5.44921875,0,0,1,2.7307510376,,,2015_Sep_10_1221,G,facesParametric,4,59.629595404,
./stim/MorphM9_03_orig.jpg,41,,,,,,,,,0,41,41,41,,,,,,,,,,,,,,,13.125,5.44921875,0,0,1,0.733672142029,,,2015_Sep_10_1221,G,facesParametric,4,59.629595404,
./stim/MorphF4_06_orig.jpg,42,,,,,,,,,0,42,42,42,,,,,,,,,,,,,,,13.125,5.44921875,1,0,0,1.87578392029,,,2015_Sep_10_1221,G,facesParametric,4,59.629595404,
./stim/MorphF5_00_orig.jpg,43,,,,,,,,,0,43,43,43,,,,,,,,,,,,,,,13.125,5.44921875,0,0,1,1.65792107582,,,2015_Sep_10_1221,G,facesParametric,4,59.629595404,
./stim/MorphM7_04_orig.jpg,44,,,,,,,,,0,44,44,44,,,,,,,,,,,,,,,13.125,5.44921875,1,0,0,3.08246898651,,,2015_Sep_10_1221,G,facesParametric,4,59.629595404,
./stim/MorphF1_07_orig.jpg,45,,,,,,,,,0,45,45,45,,,,,,,,,,,,,,,13.154296875,5.478515625,0,0,1,12.1831691265,,,2015_Sep_10_1221,G,facesParametric,4,59.629595404,
./stim/MorphF7_02_orig.jpg,46,,,,,,,,,0,46,46,46,,,,,,,,,,,,,,,13.18359375,5.44921875,0,0,1,3.18325996399,,,2015_Sep_10_1221,G,facesParametric,4,59.629595404,
./stim/MorphF3_08_orig.jpg,47,,,,,,,,,0,47,47,47,,,,,,,,,,,,,,,13.18359375,5.44921875,0,0,1,1.64068508148,,,2015_Sep_10_1221,G,facesParametric,4,59.629595404,
./stim/MorphM4_03_orig.jpg,48,,,,,,,,,0,48,48,48,,,,,,,,,,,,,,,13.18359375,5.44921875,0,0,1,1.32276821136,,,2015_Sep_10_1221,G,facesParametric,4,59.629595404,
./stim/MorphM7_05_orig.jpg,49,,,,,,,,,0,49,49,49,,,,,,,,,,,,,,,13.18359375,5.44921875,1,0,0,1.59079194069,,,2015_Sep_10_1221,G,facesParametric,4,59.629595404,
./stim/MorphM4_08_orig.jpg,50,,,,,,,,,0,50,50,50,,,,,,,,,,,,,,,13.18359375,5.44921875,1,0,0,1.65773010254,,,2015_Sep_10_1221,G,facesParametric,4,59.629595404,
./stim/MorphM2_03_orig.jpg,51,,,,,,,,,0,51,51,51,,,,,,,,,,,,,,,13.18359375,5.44921875,0,0,1,1.52200317383,,,2015_Sep_10_1221,G,facesParametric,4,59.629595404,
./stim/MorphF3_10_orig.jpg,52,,,,,,,,,0,52,52,52,,,,,,,,,,,,,,,13.154296875,5.478515625,0,0,1,2.42898607254,,,2015_Sep_10_1221,G,facesParametric,4,59.629595404,
./stim/MorphF6_08_orig.jpg,53,,,,,,,,,0,53,53,53,,,,,,,,,,,,,,,13.125,5.44921875,1,0,0,5.56178498268,,,2015_Sep_10_1221,G,facesParametric,4,59.629595404,
./stim/MorphM3_10_orig.jpg,54,,,,,,,,,0,54,54,54,,,,,,,,,,,,,,,13.125,5.44921875,1,0,0,0.868396043777,,,2015_Sep_10_1221,G,facesParametric,4,59.629595404,
./stim/MorphM10_03_orig.jpg,55,,,,,,,,,0,55,55,55,,,,,,,,,,,,,,,16.845703125,3.80859375,1,0,0,22.5228619576,,,2015_Sep_10_1221,G,facesParametric,4,59.629595404,
./stim/MorphF2_03_orig.jpg,56,,,,,,,,,0,56,56,56,,,,,,,,,,,,,,,16.845703125,3.80859375,0,0,1,3.24780106544,,,2015_Sep_10_1221,G,facesParametric,4,59.629595404,
./stim/MorphM7_10_orig.jpg,57,,,,,,,,,0,57,57,57,,,,,,,,,,,,,,,16.845703125,3.80859375,1,0,0,2.52826690674,,,2015_Sep_10_1221,G,facesParametric,4,59.629595404,
./stim/MorphF8_00_orig.jpg,58,,,,,,,,,0,58,58,58,,,,,,,,,,,,,,,16.845703125,3.80859375,0,0,1,1.23877000809,,,2015_Sep_10_1221,G,facesParametric,4,59.629595404,
./stim/MorphF7_07_orig.jpg,59,,,,,,,,,0,59,59,59,,,,,,,,,,,,,,,16.93359375,3.92578125,1,0,0,3.68618702888,,,2015_Sep_10_1221,G,facesParametric,4,59.629595404,
./stim/MorphM8_09_orig.jpg,60,,,,,,,,,0,60,60,60,,,,,,,,,,,,,,,16.93359375,3.92578125,1,0,0,0.719501018524,,,2015_Sep_10_1221,G,facesParametric,4,59.629595404,
./stim/MorphF5_08_orig.jpg,61,,,,,,,,,0,61,61,61,,,,,,,,,,,,,,,16.93359375,3.92578125,1,0,0,0.702726840973,,,2015_Sep_10_1221,G,facesParametric,4,59.629595404,
./stim/MorphM8_00_orig.jpg,62,,,,,,,,,0,62,62,62,,,,,,,,,,,,,,,16.93359375,3.92578125,1,0,0,6.38401913643,,,2015_Sep_10_1221,G,facesParametric,4,59.629595404,
./stim/MorphF4_04_orig.jpg,63,,,,,,,,,0,63,63,63,,,,,,,,,,,,,,,16.93359375,3.896484375,0,0,1,2.27713298798,,,2015_Sep_10_1221,G,facesParametric,4,59.629595404,
./stim/MorphM8_05_orig.jpg,64,,,,,,,,,0,64,64,64,,,,,,,,,,,,,,,16.93359375,3.896484375,1,0,0,1.10421085358,,,2015_Sep_10_1221,G,facesParametric,4,59.629595404,
./stim/MorphM1_09_orig.jpg,65,,,,,,,,,0,65,65,65,,,,,,,,,,,,,,,16.93359375,3.896484375,1,0,0,3.70243310928,,,2015_Sep_10_1221,G,facesParametric,4,59.629595404,
./stim/MorphF8_04_orig.jpg,66,,,,,,,,,0,66,66,66,,,,,,,,,,,,,,,16.93359375,3.92578125,0,0,1,3.88728189468,,,2015_Sep_10_1221,G,facesParametric,4,59.629595404,
./stim/MorphM10_07_orig.jpg,67,,,,,,,,,0,67,67,67,,,,,,,,,,,,,,,16.93359375,3.92578125,1,0,0,1.07127094269,,,2015_Sep_10_1221,G,facesParametric,4,59.629595404,
./stim/MorphM5_05_orig.jpg,68,,,,,,,,,0,68,68,68,,,,,,,,,,,,,,,16.962890625,3.955078125,0,0,1,3.90356683731,,,2015_Sep_10_1221,G,facesParametric,4,59.629595404,
./stim/MorphM3_02_orig.jpg,69,,,,,,,,,0,69,69,69,,,,,,,,,,,,,,,17.05078125,3.896484375,0,0,1,2.96548008919,,,2015_Sep_10_1221,G,facesParametric,4,59.629595404,
./stim/MorphF2_08_orig.jpg,70,,,,,,,,,0,70,70,70,,,,,,,,,,,,,,,17.05078125,3.896484375,1,0,0,1.15482091904,,,2015_Sep_10_1221,G,facesParametric,4,59.629595404,
./stim/MorphM5_00_orig.jpg,71,,,,,,,,,0,71,71,71,,,,,,,,,,,,,,,17.05078125,3.896484375,0,0,1,2.32864499092,,,2015_Sep_10_1221,G,facesParametric,4,59.629595404,
./stim/MorphF6_07_orig.jpg,72,,,,,,,,,0,72,72,72,,,,,,,,,,,,,,,17.05078125,3.896484375,1,0,0,1.23784184456,,,2015_Sep_10_1221,G,facesParametric,4,59.629595404,
./stim/MorphM7_07_orig.jpg,73,,,,,,,,,0,73,73,73,,,,,,,,,,,,,,,17.05078125,3.896484375,1,0,0,1.74146699905,,,2015_Sep_10_1221,G,facesParametric,4,59.629595404,
./stim/MorphM4_05_orig.jpg,74,,,,,,,,,0,74,74,74,,,,,,,,,,,,,,,17.05078125,3.896484375,1,0,0,1.05476522446,,,2015_Sep_10_1221,G,facesParametric,4,59.629595404,
./stim/MorphF1_02_orig.jpg,75,,,,,,,,,0,75,75,75,,,,,,,,,,,,,,,17.05078125,3.896484375,0,0,1,1.30610513687,,,2015_Sep_10_1221,G,facesParametric,4,59.629595404,
./stim/MorphM1_03_orig.jpg,76,,,,,,,,,0,76,76,76,,,,,,,,,,,,,,,17.05078125,3.896484375,0,0,1,1.84214377403,,,2015_Sep_10_1221,G,facesParametric,4,59.629595404,
./stim/MorphM6_01_orig.jpg,77,,,,,,,,,0,77,77,77,,,,,,,,,,,,,,,17.05078125,3.896484375,0,0,1,0.953961133957,,,2015_Sep_10_1221,G,facesParametric,4,59.629595404,
./stim/MorphF5_05_orig.jpg,78,,,,,,,,,0,78,78,78,,,,,,,,,,,,,,,17.05078125,3.896484375,1,0,0,1.45690202713,,,2015_Sep_10_1221,G,facesParametric,4,59.629595404,
./stim/MorphF4_10_orig.jpg,79,,,,,,,,,0,79,79,79,,,,,,,,,,,,,,,17.05078125,3.896484375,1,0,0,1.33927893639,,,2015_Sep_10_1221,G,facesParametric,4,59.629595404,
./stim/MorphF9_03_orig.jpg,80,,,,,,,,,0,80,80,80,,,,,,,,,,,,,,,17.05078125,3.896484375,1,0,0,2.3958261013,,,2015_Sep_10_1221,G,facesParametric,4,59.629595404,
./stim/MorphM8_04_orig.jpg,81,,,,,,,,,0,81,81,81,,,,,,,,,,,,,,,17.05078125,3.896484375,1,0,0,0.968653917313,,,2015_Sep_10_1221,G,facesParametric,4,59.629595404,
./stim/MorphF2_04_orig.jpg,82,,,,,,,,,0,82,82,82,,,,,,,,,,,,,,,17.05078125,3.896484375,0,0,1,1.65593481064,,,2015_Sep_10_1221,G,facesParametric,4,59.629595404,
./stim/MorphM10_01_orig.jpg,83,,,,,,,,,0,83,83,83,,,,,,,,,,,,,,,17.021484375,3.8671875,0,0,1,1.45587801933,,,2015_Sep_10_1221,G,facesParametric,4,59.629595404,
./stim/MorphF6_10_orig.jpg,84,,,,,,,,,0,84,84,84,,,,,,,,,,,,,,,17.05078125,3.837890625,1,0,0,1.45684599876,,,2015_Sep_10_1221,G,facesParametric,4,59.629595404,
./stim/MorphF10_00_orig.jpg,85,,,,,,,,,0,85,85,85,,,,,,,,,,,,,,,17.05078125,3.837890625,0,0,1,1.48938298225,,,2015_Sep_10_1221,G,facesParametric,4,59.629595404,
./stim/MorphM10_04_orig.jpg,86,,,,,,,,,0,86,86,86,,,,,,,,,,,,,,,17.05078125,3.837890625,1,0,0,1.30424904823,,,2015_Sep_10_1221,G,facesParametric,4,59.629595404,
./stim/MorphM4_07_orig.jpg,87,,,,,,,,,0,87,87,87,,,,,,,,,,,,,,,17.080078125,3.80859375,1,0,0,0.886684179306,,,2015_Sep_10_1221,G,facesParametric,4,59.629595404,
./stim/MorphF10_07_orig.jpg,88,,,,,,,,,0,88,88,88,,,,,,,,,,,,,,,17.080078125,3.80859375,1,0,0,1.3398771286,,,2015_Sep_10_1221,G,facesParametric,4,59.629595404,
./stim/MorphF8_02_orig.jpg,89,,,,,,,,,0,89,89,89,,,,,,,,,,,,,,,17.080078125,3.80859375,0,0,1,1.99303793907,,,2015_Sep_10_1221,G,facesParametric,4,59.629595404,
./stim/MorphM10_06_orig.jpg,90,,,,,,,,,0,90,90,90,,,,,,,,,,,,,,,17.080078125,3.80859375,1,0,0,0.903453111649,,,2015_Sep_10_1221,G,facesParametric,4,59.629595404,
./stim/MorphF6_06_orig.jpg,91,,,,,,,,,0,91,91,91,,,,,,,,,,,,,,,17.080078125,3.80859375,1,0,0,2.54587292671,,,2015_Sep_10_1221,G,facesParametric,4,59.629595404,
./stim/MorphF2_07_orig.jpg,92,,,,,,,,,0,92,92,92,,,,,,,,,,,,,,,17.080078125,3.80859375,1,0,0,1.3389070034,,,2015_Sep_10_1221,G,facesParametric,4,59.629595404,
./stim/MorphF3_04_orig.jpg,93,,,,,,,,,0,93,93,93,,,,,,,,,,,,,,,17.138671875,3.75,0,0,1,0.970879793167,,,2015_Sep_10_1221,G,facesParametric,4,59.629595404,
./stim/MorphM10_10_orig.jpg,94,,,,,,,,,0,94,94,94,,,,,,,,,,,,,,,17.138671875,3.75,1,0,0,0.852183818817,,,2015_Sep_10_1221,G,facesParametric,4,59.629595404,
./stim/MorphF3_06_orig.jpg,95,,,,,,,,,0,95,95,95,,,,,,,,,,,,,,,17.138671875,3.75,0,0,1,2.01023697853,,,2015_Sep_10_1221,G,facesParametric,4,59.629595404,
./stim/MorphM8_06_orig.jpg,96,,,,,,,,,0,96,96,96,,,,,,,,,,,,,,,17.138671875,3.75,1,0,0,0.83735203743,,,2015_Sep_10_1221,G,facesParametric,4,59.629595404,
./stim/MorphM4_02_orig.jpg,97,,,,,,,,,0,97,97,97,,,,,,,,,,,,,,,17.138671875,3.75,1,0,0,0.834408044815,,,2015_Sep_10_1221,G,facesParametric,4,59.629595404,
./stim/MorphF9_08_orig.jpg,98,,,,,,,,,0,98,98,98,,,,,,,,,,,,,,,17.138671875,3.75,1,0,0,1.0041718483,,,2015_Sep_10_1221,G,facesParametric,4,59.629595404,
./stim/MorphF3_07_orig.jpg,99,,,,,,,,,0,99,99,99,,,,,,,,,,,,,,,17.138671875,3.720703125,0,0,1,1.15484881401,,,2015_Sep_10_1221,G,facesParametric,4,59.629595404,
./stim/MorphM10_09_orig.jpg,100,,,,,,,,,0,100,100,100,,,,,,,,,,,,,,,17.109375,3.69140625,1,0,0,1.05548000336,,,2015_Sep_10_1221,G,facesParametric,4,59.629595404,
./stim/MorphM4_04_orig.jpg,101,,,,,,,,,0,101,101,101,,,,,,,,,,,,,,,17.080078125,3.662109375,1,0,0,0.851719856262,,,2015_Sep_10_1221,G,facesParametric,4,59.629595404,
./stim/MorphM6_07_orig.jpg,102,,,,,,,,,0,102,102,102,,,,,,,,,,,,,,,17.080078125,3.662109375,1,0,0,0.971059083939,,,2015_Sep_10_1221,G,facesParametric,4,59.629595404,
./stim/MorphF4_01_orig.jpg,103,,,,,,,,,0,103,103,103,,,,,,,,,,,,,,,17.080078125,3.662109375,0,0,1,0.988224983215,,,2015_Sep_10_1221,G,facesParametric,4,59.629595404,
./stim/MorphF10_06_orig.jpg,104,,,,,,,,,0,104,104,104,,,,,,,,,,,,,,,17.080078125,3.662109375,1,0,0,2.66147303581,,,2015_Sep_10_1221,G,facesParametric,4,59.629595404,
./stim/MorphM3_00_orig.jpg,105,,,,,,,,,0,105,105,105,,,,,,,,,,,,,,,17.080078125,3.662109375,1,0,0,1.05260396004,,,2015_Sep_10_1221,G,facesParametric,4,59.629595404,
./stim/MorphF7_08_orig.jpg,106,,,,,,,,,0,106,106,106,,,,,,,,,,,,,,,17.080078125,3.662109375,1,0,0,0.80263209343,,,2015_Sep_10_1221,G,facesParametric,4,59.629595404,
./stim/MorphF1_06_orig.jpg,107,,,,,,,,,0,107,107,107,,,,,,,,,,,,,,,17.05078125,3.6328125,1,0,0,1.13426184654,,,2015_Sep_10_1221,G,facesParametric,4,59.629595404,
./stim/MorphM7_02_orig.jpg,108,,,,,,,,,0,108,108,108,,,,,,,,,,,,,,,17.05078125,3.6328125,1,0,0,1.90761113167,,,2015_Sep_10_1221,G,facesParametric,4,59.629595404,
./stim/MorphM5_02_orig.jpg,109,,,,,,,,,0,109,109,109,,,,,,,,,,,,,,,17.05078125,3.6328125,0,0,1,1.47371697426,,,2015_Sep_10_1221,G,facesParametric,4,59.629595404,
./stim/MorphM6_08_orig.jpg,110,,,,,,,,,0,110,110,110,,,,,,,,,,,,,,,16.9921875,3.57421875,1,0,0,1.32282400131,,,2015_Sep_10_1221,G,facesParametric,4,59.629595404,
./stim/MorphF6_01_orig.jpg,111,,,,,,,,,0,111,111,111,,,,,,,,,,,,,,,16.9921875,3.57421875,0,0,1,1.37295794487,,,2015_Sep_10_1221,G,facesParametric,4,59.629595404,
./stim/MorphM3_08_orig.jpg,112,,,,,,,,,0,112,112,112,,,,,,,,,,,,,,,16.962890625,3.603515625,1,0,0,1.84272003174,,,2015_Sep_10_1221,G,facesParametric,4,59.629595404,
./stim/MorphF2_06_orig.jpg,113,,,,,,,,,0,113,113,113,,,,,,,,,,,,,,,16.962890625,3.603515625,1,0,0,1.23559117317,,,2015_Sep_10_1221,G,facesParametric,4,59.629595404,
./stim/MorphM9_05_orig.jpg,114,,,,,,,,,0,114,114,114,,,,,,,,,,,,,,,16.962890625,3.603515625,0,0,1,0.95440196991,,,2015_Sep_10_1221,G,facesParametric,4,59.629595404,
./stim/MorphM7_06_orig.jpg,115,,,,,,,,,0,115,115,115,,,,,,,,,,,,,,,16.93359375,3.57421875,1,0,0,0.820152044296,,,2015_Sep_10_1221,G,facesParametric,4,59.629595404,
./stim/MorphF7_00_orig.jpg,116,,,,,,,,,0,116,116,116,,,,,,,,,,,,,,,17.28515625,3.57421875,0,0,1,3.58487200737,,,2015_Sep_10_1221,G,facesParametric,4,59.629595404,
./stim/MorphM7_00_orig.jpg,117,,,,,,,,,0,117,117,117,,,,,,,,,,,,,,,17.255859375,3.544921875,1,0,0,4.27290797234,,,2015_Sep_10_1221,G,facesParametric,4,59.629595404,
./stim/MorphM6_02_orig.jpg,118,,,,,,,,,0,118,118,118,,,,,,,,,,,,,,,17.255859375,3.544921875,0,0,1,1.58940410614,,,2015_Sep_10_1221,G,facesParametric,4,59.629595404,
./stim/MorphF7_04_orig.jpg,119,,,,,,,,,0,119,119,119,,,,,,,,,,,,,,,18.984375,1.46484375,1,0,0,11.1753201485,,,2015_Sep_10_1221,G,facesParametric,4,59.629595404,
./stim/MorphF4_00_orig.jpg,120,,,,,,,,,0,120,120,120,,,,,,,,,,,,,,,18.984375,1.46484375,0,0,1,1.57435894012,,,2015_Sep_10_1221,G,facesParametric,4,59.629595404,
./stim/MorphF9_07_orig.jpg,121,,,,,,,,,0,121,121,121,,,,,,,,,,,,,,,18.984375,1.46484375,1,0,0,2.9821908474,,,2015_Sep_10_1221,G,facesParametric,4,59.629595404,
./stim/MorphF4_05_orig.jpg,122,,,,,,,,,0,122,122,122,,,,,,,,,,,,,,,18.984375,1.46484375,0,0,1,2.41209197044,,,2015_Sep_10_1221,G,facesParametric,4,59.629595404,
./stim/MorphF5_10_orig.jpg,123,,,,,,,,,0,123,123,123,,,,,,,,,,,,,,,18.984375,1.435546875,1,0,0,0.954004049301,,,2015_Sep_10_1221,G,facesParametric,4,59.629595404,
./stim/MorphM9_06_orig.jpg,124,,,,,,,,,0,124,124,124,,,,,,,,,,,,,,,18.984375,1.435546875,0,0,1,1.25531220436,,,2015_Sep_10_1221,G,facesParametric,4,59.629595404,
./stim/MorphF1_00_orig.jpg,125,,,,,,,,,0,125,125,125,,,,,,,,,,,,,,,18.984375,1.435546875,0,0,1,1.23944497108,,,2015_Sep_10_1221,G,facesParametric,4,59.629595404,
./stim/MorphF5_07_orig.jpg,126,,,,,,,,,0,126,126,126,,,,,,,,,,,,,,,18.984375,1.435546875,1,0,0,0.836233854294,,,2015_Sep_10_1221,G,facesParametric,4,59.629595404,
./stim/MorphM6_06_orig.jpg,127,,,,,,,,,0,127,127,127,,,,,,,,,,,,,,,18.955078125,1.40625,1,0,0,1.03810191154,,,2015_Sep_10_1221,G,facesParametric,4,59.629595404,
./stim/MorphF2_00_orig.jpg,128,,,,,,,,,0,128,128,128,,,,,,,,,,,,,,,19.013671875,1.40625,0,0,1,0.951956987381,,,2015_Sep_10_1221,G,facesParametric,4,59.629595404,
./stim/MorphM6_03_orig.jpg,129,,,,,,,,,0,129,129,129,,,,,,,,,,,,,,,19.04296875,1.40625,0,0,1,3.93600106239,,,2015_Sep_10_1221,G,facesParametric,4,59.629595404,
./stim/MorphM3_04_orig.jpg,130,,,,,,,,,0,130,130,130,,,,,,,,,,,,,,,19.130859375,1.34765625,1,0,0,1.82546210289,,,2015_Sep_10_1221,G,facesParametric,4,59.629595404,
./stim/MorphM8_01_orig.jpg,131,,,,,,,,,0,131,131,131,,,,,,,,,,,,,,,19.130859375,1.34765625,1,0,0,1.75826597214,,,2015_Sep_10_1221,G,facesParametric,4,59.629595404,
./stim/MorphM1_06_orig.jpg,132,,,,,,,,,0,132,132,132,,,,,,,,,,,,,,,19.248046875,1.259765625,0,0,1,1.15527105331,,,2015_Sep_10_1221,G,facesParametric,4,59.629595404,
./stim/MorphM2_09_orig.jpg,133,,,,,,,,,0,133,133,133,,,,,,,,,,,,,,,19.21875,1.11328125,1,0,0,1.05456805229,,,2015_Sep_10_1221,G,facesParametric,4,59.629595404,
./stim/MorphF2_01_orig.jpg,134,,,,,,,,,0,134,134,134,,,,,,,,,,,,,,,19.21875,1.11328125,0,0,1,1.35756587982,,,2015_Sep_10_1221,G,facesParametric,4,59.629595404,
./stim/MorphM5_01_orig.jpg,135,,,,,,,,,0,135,135,135,,,,,,,,,,,,,,,19.21875,0.99609375,0,0,1,2.39325499535,,,2015_Sep_10_1221,G,facesParametric,4,59.629595404,
./stim/MorphF8_03_orig.jpg,136,,,,,,,,,0,136,136,136,,,,,,,,,,,,,,,19.189453125,0.966796875,0,0,1,0.702154874802,,,2015_Sep_10_1221,G,facesParametric,4,59.629595404,
./stim/MorphF10_03_orig.jpg,137,,,,,,,,,0,137,137,137,,,,,,,,,,,,,,,19.16015625,0.9375,1,0,0,1.52314019203,,,2015_Sep_10_1221,G,facesParametric,4,59.629595404,
./stim/MorphM7_09_orig.jpg,138,,,,,,,,,0,138,138,138,,,,,,,,,,,,,,,19.189453125,0.9375,1,0,0,1.82356309891,,,2015_Sep_10_1221,G,facesParametric,4,59.629595404,
./stim/MorphM9_00_orig.jpg,139,,,,,,,,,0,139,139,139,,,,,,,,,,,,,,,19.27734375,0.9375,0,0,1,0.986294984818,,,2015_Sep_10_1221,G,facesParametric,4,59.629595404,
./stim/MorphM3_05_orig.jpg,140,,,,,,,,,0,140,140,140,,,,,,,,,,,,,,,19.27734375,0.9375,1,0,0,1.92476892471,,,2015_Sep_10_1221,G,facesParametric,4,59.629595404,
./stim/MorphM1_07_orig.jpg,141,,,,,,,,,0,141,141,141,,,,,,,,,,,,,,,19.27734375,0.9375,0,0,1,1.02073907852,,,2015_Sep_10_1221,G,facesParametric,4,59.629595404,
./stim/MorphM9_07_orig.jpg,142,,,,,,,,,0,142,142,142,,,,,,,,,,,,,,,19.27734375,0.9375,1,0,0,2.0765850544,,,2015_Sep_10_1221,G,facesParametric,4,59.629595404,
./stim/MorphF3_03_orig.jpg,143,,,,,,,,,0,143,143,143,,,,,,,,,,,,,,,19.453125,0.908203125,0,0,1,1.28862714767,,,2015_Sep_10_1221,G,facesParametric,4,59.629595404,
./stim/MorphF4_07_orig.jpg,144,,,,,,,,,0,144,144,144,,,,,,,,,,,,,,,19.453125,0.908203125,1,0,0,1.1375079155,,,2015_Sep_10_1221,G,facesParametric,4,59.629595404,
./stim/MorphM2_10_orig.jpg,145,,,,,,,,,0,145,145,145,,,,,,,,,,,,,,,19.453125,0.908203125,1,0,0,0.669395208359,,,2015_Sep_10_1221,G,facesParametric,4,59.629595404,
./stim/MorphF7_06_orig.jpg,146,,,,,,,,,0,146,146,146,,,,,,,,,,,,,,,19.453125,0.908203125,1,0,0,0.784168958664,,,2015_Sep_10_1221,G,facesParametric,4,59.629595404,
./stim/MorphM8_02_orig.jpg,147,,,,,,,,,0,147,147,147,,,,,,,,,,,,,,,19.453125,0.908203125,1,0,0,0.817519903183,,,2015_Sep_10_1221,G,facesParametric,4,59.629595404,
./stim/MorphF3_05_orig.jpg,148,,,,,,,,,0,148,148,148,,,,,,,,,,,,,,,19.51171875,0.908203125,0,0,1,0.870715856552,,,2015_Sep_10_1221,G,facesParametric,4,59.629595404,
./stim/MorphF6_04_orig.jpg,149,,,,,,,,,0,149,149,149,,,,,,,,,,,,,,,19.5703125,0.9375,0,0,1,1.13776612282,,,2015_Sep_10_1221,G,facesParametric,4,59.629595404,
./stim/MorphM4_10_orig.jpg,150,,,,,,,,,0,150,150,150,,,,,,,,,,,,,,,19.599609375,0.966796875,1,0,0,0.750823020935,,,2015_Sep_10_1221,G,facesParametric,4,59.629595404,
./stim/MorphF10_08_orig.jpg,151,,,,,,,,,0,151,151,151,,,,,,,,,,,,,,,19.599609375,0.966796875,1,0,0,1.05564379692,,,2015_Sep_10_1221,G,facesParametric,4,59.629595404,
./stim/MorphF5_02_orig.jpg,152,,,,,,,,,0,152,152,152,,,,,,,,,,,,,,,19.658203125,0.966796875,0,0,1,1.43902921677,,,2015_Sep_10_1221,G,facesParametric,4,59.629595404,
./stim/MorphF1_05_orig.jpg,153,,,,,,,,,0,153,153,153,,,,,,,,,,,,,,,19.658203125,0.966796875,0,0,1,1.35560393333,,,2015_Sep_10_1221,G,facesParametric,4,59.629595404,
./stim/MorphF9_09_orig.jpg,154,,,,,,,,,0,154,154,154,,,,,,,,,,,,,,,19.62890625,0.99609375,1,0,0,1.07094216347,,,2015_Sep_10_1221,G,facesParametric,4,59.629595404,
./stim/MorphF5_03_orig.jpg,155,,,,,,,,,0,155,155,155,,,,,,,,,,,,,,,19.62890625,1.025390625,0,0,1,4.42377710342,,,2015_Sep_10_1221,G,facesParametric,4,59.629595404,
./stim/MorphF4_03_orig.jpg,156,,,,,,,,,0,156,156,156,,,,,,,,,,,,,,,19.716796875,1.025390625,0,0,1,2.96465110779,,,2015_Sep_10_1221,G,facesParametric,4,59.629595404,
./stim/MorphF5_01_orig.jpg,157,,,,,,,,,0,157,157,157,,,,,,,,,,,,,,,19.74609375,1.025390625,0,0,1,1.32258200645,,,2015_Sep_10_1221,G,facesParametric,4,59.629595404,
./stim/MorphM1_01_orig.jpg,158,,,,,,,,,0,158,158,158,,,,,,,,,,,,,,,19.716796875,1.025390625,0,0,1,1.94252514839,,,2015_Sep_10_1221,G,facesParametric,4,59.629595404,
./stim/MorphF9_02_orig.jpg,159,,,,,,,,,0,159,159,159,,,,,,,,,,,,,,,19.74609375,1.0546875,0,0,1,2.1607670784,,,2015_Sep_10_1221,G,facesParametric,4,59.629595404,
./stim/MorphF2_02_orig.jpg,160,,,,,,,,,0,160,160,160,,,,,,,,,,,,,,,19.74609375,1.0546875,0,0,1,2.49609303474,,,2015_Sep_10_1221,G,facesParametric,4,59.629595404,
./stim/MorphM8_10_orig.jpg,161,,,,,,,,,0,161,161,161,,,,,,,,,,,,,,,19.74609375,1.0546875,1,0,0,0.733465194702,,,2015_Sep_10_1221,G,facesParametric,4,59.629595404,
./stim/MorphM1_10_orig.jpg,162,,,,,,,,,0,162,162,162,,,,,,,,,,,,,,,19.86328125,1.0546875,1,0,0,2.31150507927,,,2015_Sep_10_1221,G,facesParametric,4,59.629595404,
./stim/MorphF10_04_orig.jpg,163,,,,,,,,,0,163,163,163,,,,,,,,,,,,,,,19.86328125,1.0546875,1,0,0,2.14389896393,,,2015_Sep_10_1221,G,facesParametric,4,59.629595404,
./stim/MorphF3_00_orig.jpg,164,,,,,,,,,0,164,164,164,,,,,,,,,,,,,,,19.86328125,1.0546875,0,0,1,1.80772686005,,,2015_Sep_10_1221,G,facesParametric,4,59.629595404,
./stim/MorphM2_07_orig.jpg,165,,,,,,,,,0,165,165,165,,,,,,,,,,,,,,,19.86328125,1.0546875,1,0,0,0.719403982162,,,2015_Sep_10_1221,G,facesParametric,4,59.629595404,
./stim/MorphF7_05_orig.jpg,166,,,,,,,,,0,166,166,166,,,,,,,,,,,,,,,19.86328125,1.0546875,1,0,0,1.22251486778,,,2015_Sep_10_1221,G,facesParametric,4,59.629595404,
./stim/MorphF6_03_orig.jpg,167,,,,,,,,,0,167,167,167,,,,,,,,,,,,,,,20.009765625,1.025390625,0,0,1,1.12185192108,,,2015_Sep_10_1221,G,facesParametric,4,59.629595404,
./stim/MorphF3_02_orig.jpg,168,,,,,,,,,0,168,168,168,,,,,,,,,,,,,,,20.0390625,0.99609375,0,0,1,1.18824386597,,,2015_Sep_10_1221,G,facesParametric,4,59.629595404,
./stim/MorphF1_01_orig.jpg,169,,,,,,,,,0,169,169,169,,,,,,,,,,,,,,,20.0390625,0.99609375,0,0,1,1.74233317375,,,2015_Sep_10_1221,G,facesParametric,4,59.629595404,
./stim/MorphM1_04_orig.jpg,170,,,,,,,,,0,170,170,170,,,,,,,,,,,,,,,20.0390625,0.99609375,0,0,1,1.69115900993,,,2015_Sep_10_1221,G,facesParametric,4,59.629595404,
./stim/MorphF4_09_orig.jpg,171,,,,,,,,,0,171,171,171,,,,,,,,,,,,,,,20.0390625,0.99609375,1,0,0,0.870897054672,,,2015_Sep_10_1221,G,facesParametric,4,59.629595404,
./stim/MorphM6_00_orig.jpg,172,,,,,,,,,0,172,172,172,,,,,,,,,,,,,,,20.068359375,0.966796875,0,0,1,1.1714451313,,,2015_Sep_10_1221,G,facesParametric,4,59.629595404,
./stim/MorphM5_09_orig.jpg,173,,,,,,,,,0,173,173,173,,,,,,,,,,,,,,,20.068359375,0.966796875,1,0,0,0.937300205231,,,2015_Sep_10_1221,G,facesParametric,4,59.629595404,
./stim/MorphF5_06_orig.jpg,174,,,,,,,,,0,174,174,174,,,,,,,,,,,,,,,20.068359375,0.966796875,1,0,0,0.919399023056,,,2015_Sep_10_1221,G,facesParametric,4,59.629595404,
./stim/MorphF9_01_orig.jpg,175,,,,,,,,,0,175,175,175,,,,,,,,,,,,,,,20.09765625,0.966796875,0,0,1,1.70786094666,,,2015_Sep_10_1221,G,facesParametric,4,59.629595404,
./stim/MorphM5_07_orig.jpg,176,,,,,,,,,0,176,176,176,,,,,,,,,,,,,,,20.09765625,0.966796875,1,0,0,1.74202394485,,,2015_Sep_10_1221,G,facesParametric,4,59.629595404,
./stim/MorphM2_01_orig.jpg,177,,,,,,,,,0,177,177,177,,,,,,,,,,,,,,,20.126953125,0.99609375,0,0,1,1.08582401276,,,2015_Sep_10_1221,G,facesParametric,4,59.629595404,
./stim/MorphM7_03_orig.jpg,178,,,,,,,,,0,178,178,178,,,,,,,,,,,,,,,20.126953125,0.99609375,1,0,0,1.39002203941,,,2015_Sep_10_1221,G,facesParametric,4,59.629595404,
./stim/MorphM9_09_orig.jpg,179,,,,,,,,,0,179,179,179,,,,,,,,,,,,,,,20.15625,0.99609375,1,0,0,0.869745016098,,,2015_Sep_10_1221,G,facesParametric,4,59.629595404,
./stim/MorphF9_10_orig.jpg,180,,,,,,,,,0,180,180,180,,,,,,,,,,,,,,,20.185546875,0.99609375,1,0,0,0.650511980057,,,2015_Sep_10_1221,G,facesParametric,4,59.629595404,
./stim/MorphF8_10_orig.jpg,181,,,,,,,,,0,181,181,181,,,,,,,,,,,,,,,20.185546875,0.99609375,1,0,0,0.702686071396,,,2015_Sep_10_1221,G,facesParametric,4,59.629595404,
./stim/MorphF10_10_orig.jpg,182,,,,,,,,,0,182,182,182,,,,,,,,,,,,,,,20.244140625,0.99609375,1,0,0,0.75287103653,,,2015_Sep_10_1221,G,facesParametric,4,59.629595404,
./stim/MorphM3_09_orig.jpg,183,,,,,,,,,0,183,183,183,,,,,,,,,,,,,,,20.244140625,0.99609375,1,0,0,0.684992074966,,,2015_Sep_10_1221,G,facesParametric,4,59.629595404,
./stim/MorphF10_05_orig.jpg,184,,,,,,,,,0,184,184,184,,,,,,,,,,,,,,,20.244140625,0.99609375,1,0,0,0.904342889786,,,2015_Sep_10_1221,G,facesParametric,4,59.629595404,
./stim/MorphF6_00_orig.jpg,185,,,,,,,,,0,185,185,185,,,,,,,,,,,,,,,20.2734375,0.966796875,0,0,1,0.918243169785,,,2015_Sep_10_1221,G,facesParametric,4,59.629595404,
./stim/MorphF8_08_orig.jpg,186,,,,,,,,,0,186,186,186,,,,,,,,,,,,,,,20.302734375,0.9375,1,0,0,0.870069026947,,,2015_Sep_10_1221,G,facesParametric,4,59.629595404,
./stim/MorphF7_10_orig.jpg,187,,,,,,,,,0,187,187,187,,,,,,,,,,,,,,,20.302734375,0.9375,1,0,0,0.702828168869,,,2015_Sep_10_1221,G,facesParametric,4,59.629595404,
./stim/MorphM9_10_orig.jpg,188,,,,,,,,,0,188,188,188,,,,,,,,,,,,,,,20.302734375,0.9375,1,0,0,0.652338027954,,,2015_Sep_10_1221,G,facesParametric,4,59.629595404,
./stim/MorphM10_05_orig.jpg,189,,,,,,,,,0,189,189,189,,,,,,,,,,,,,,,20.33203125,0.87890625,1,0,0,0.685897111893,,,2015_Sep_10_1221,G,facesParametric,4,59.629595404,
./stim/MorphM8_03_orig.jpg,190,,,,,,,,,0,190,190,190,,,,,,,,,,,,,,,20.302734375,0.87890625,1,0,0,0.602395057678,,,2015_Sep_10_1221,G,facesParametric,4,59.629595404,
./stim/MorphF2_10_orig.jpg,191,,,,,,,,,0,191,191,191,,,,,,,,,,,,,,,20.302734375,0.87890625,1,0,0,0.752470970154,,,2015_Sep_10_1221,G,facesParametric,4,59.629595404,
./stim/MorphM1_02_orig.jpg,192,,,,,,,,,0,192,192,192,,,,,,,,,,,,,,,20.2734375,0.908203125,0,0,1,1.08799815178,,,2015_Sep_10_1221,G,facesParametric,4,59.629595404,
./stim/MorphM4_09_orig.jpg,193,,,,,,,,,0,193,193,193,,,,,,,,,,,,,,,20.33203125,0.9375,1,0,0,1.05420207977,,,2015_Sep_10_1221,G,facesParametric,4,59.629595404,
./stim/MorphM8_07_orig.jpg,194,,,,,,,,,0,194,194,194,,,,,,,,,,,,,,,20.33203125,0.9375,1,0,0,0.954675912857,,,2015_Sep_10_1221,G,facesParametric,4,59.629595404,
./stim/MorphM1_08_orig.jpg,195,,,,,,,,,0,195,195,195,,,,,,,,,,,,,,,20.33203125,0.9375,1,0,0,2.87908792496,,,2015_Sep_10_1221,G,facesParametric,4,59.629595404,
./stim/MorphF4_08_orig.jpg,196,,,,,,,,,0,196,196,196,,,,,,,,,,,,,,,20.361328125,0.9375,1,0,0,0.652400016785,,,2015_Sep_10_1221,G,facesParametric,4,59.629595404,
./stim/MorphM9_04_orig.jpg,197,,,,,,,,,0,197,197,197,,,,,,,,,,,,,,,20.361328125,0.9375,1,0,0,3.26612997055,,,2015_Sep_10_1221,G,facesParametric,4,59.629595404,
./stim/MorphF1_09_orig.jpg,198,,,,,,,,,0,198,198,198,,,,,,,,,,,,,,,20.361328125,0.9375,1,0,0,0.971123933792,,,2015_Sep_10_1221,G,facesParametric,4,59.629595404,
./stim/MorphM9_08_orig.jpg,199,,,,,,,,,0,199,199,199,,,,,,,,,,,,,,,20.361328125,0.9375,1,0,0,0.652096033096,,,2015_Sep_10_1221,G,facesParametric,4,59.629595404,
./stim/MorphF10_01_orig.jpg,200,,,,,,,,,0,200,200,200,,,,,,,,,,,,,,,20.361328125,0.9375,1,0,0,0.886898040771,,,2015_Sep_10_1221,G,facesParametric,4,59.629595404,
./stim/MorphM10_00_orig.jpg,201,,,,,,,,,0,201,201,201,,,,,,,,,,,,,,,20.478515625,0.908203125,1,0,0,0.736252784729,,,2015_Sep_10_1221,G,facesParametric,4,59.629595404,
./stim/MorphM2_00_orig.jpg,202,,,,,,,,,0,202,202,202,,,,,,,,,,,,,,,20.478515625,0.908203125,0,0,1,1.01991796494,,,2015_Sep_10_1221,G,facesParametric,4,59.629595404,
./stim/MorphM9_01_orig.jpg,203,,,,,,,,,0,203,203,203,,,,,,,,,,,,,,,20.44921875,0.87890625,1,0,0,0.702019929886,,,2015_Sep_10_1221,G,facesParametric,4,59.629595404,
./stim/MorphF7_09_orig.jpg,204,,,,,,,,,0,204,204,204,,,,,,,,,,,,,,,20.56640625,0.791015625,1,0,0,2.83252692223,,,2015_Sep_10_1221,G,facesParametric,4,59.629595404,
./stim/MorphF9_00_orig.jpg,205,,,,,,,,,0,205,205,205,,,,,,,,,,,,,,,20.68359375,0.791015625,0,0,1,1.72242498398,,,2015_Sep_10_1221,G,facesParametric,4,59.629595404,
./stim/MorphM2_02_orig.jpg,206,,,,,,,,,0,206,206,206,,,,,,,,,,,,,,,20.68359375,0.791015625,0,0,1,2.00959992409,,,2015_Sep_10_1221,G,facesParametric,4,59.629595404,
./stim/MorphF8_05_orig.jpg,207,,,,,,,,,0,207,207,207,,,,,,,,,,,,,,,20.68359375,0.791015625,0,0,1,2.30982899666,,,2015_Sep_10_1221,G,facesParametric,4,59.629595404,
./stim/MorphF3_09_orig.jpg,208,,,,,,,,,0,208,208,208,,,,,,,,,,,,,,,20.712890625,0.76171875,0,0,1,7.03758001328,,,2015_Sep_10_1221,G,facesParametric,4,59.629595404,
./stim/MorphM5_10_orig.jpg,209,,,,,,,,,0,209,209,209,,,,,,,,,,,,,,,20.712890625,0.76171875,1,0,0,1.18739390373,,,2015_Sep_10_1221,G,facesParametric,4,59.629595404,
./stim/MorphM8_08_orig.jpg,210,,,,,,,,,0,210,210,210,,,,,,,,,,,,,,,20.80078125,0.76171875,1,0,0,0.987690925598,,,2015_Sep_10_1221,G,facesParametric,4,59.629595404,
./stim/MorphM3_07_orig.jpg,211,,,,,,,,,0,211,211,211,,,,,,,,,,,,,,,20.830078125,0.76171875,1,0,0,1.6747841835,,,2015_Sep_10_1221,G,facesParametric,4,59.629595404,
./stim/MorphM5_06_orig.jpg,212,,,,,,,,,0,212,212,212,,,,,,,,,,,,,,,20.947265625,0.76171875,0,0,1,7.64106988907,,,2015_Sep_10_1221,G,facesParametric,4,59.629595404,
./stim/MorphF5_09_orig.jpg,213,,,,,,,,,0,213,213,213,,,,,,,,,,,,,,,20.947265625,0.76171875,1,0,0,0.886912107468,,,2015_Sep_10_1221,G,facesParametric,4,59.629595404,
./stim/MorphF8_06_orig.jpg,214,,,,,,,,,0,214,214,214,,,,,,,,,,,,,,,21.064453125,0.76171875,1,0,0,3.20007109642,,,2015_Sep_10_1221,G,facesParametric,4,59.629595404,
./stim/MorphF5_04_orig.jpg,215,,,,,,,,,0,215,215,215,,,,,,,,,,,,,,,21.064453125,0.76171875,1,0,0,1.00428390503,,,2015_Sep_10_1221,G,facesParametric,4,59.629595404,
./stim/MorphM2_04_orig.jpg,216,,,,,,,,,0,216,216,216,,,,,,,,,,,,,,,23.37890625,-0.9375,0,0,1,6.03145599365,,,2015_Sep_10_1221,G,facesParametric,4,59.629595404,
./stim/MorphF2_05_orig.jpg,217,,,,,,,,,0,217,217,217,,,,,,,,,,,,,,,23.291015625,-0.99609375,1,0,0,1.07003593445,,,2015_Sep_10_1221,G,facesParametric,4,59.629595404,
./stim/MorphM7_01_orig.jpg,218,,,,,,,,,0,218,218,218,,,,,,,,,,,,,,,23.291015625,-0.966796875,1,0,0,1.5580470562,,,2015_Sep_10_1221,G,facesParametric,4,59.629595404,
./stim/MorphF10_09_orig.jpg,219,,,,,,,,,0,219,219,219,,,,,,,,,,,,,,,23.291015625,-0.966796875,1,0,0,0.869851827621,,,2015_Sep_10_1221,G,facesParametric,4,59.629595404,
