img,num,basicLoop.thisRepN,basicLoop.thisTrialN,basicLoop.thisN,basicLoop.thisIndex,trials.thisRepN,trials.thisTrialN,trials.thisN,trials.thisIndex,trials2.thisRepN,trials2.thisTrialN,trials2.thisN,trials2.thisIndex,key_resp_2.keys,key_resp_2.rt,basicRating1.response,basicRating1.rt,basicRating2.response,basicRating2.rt,basicRating3.response,basicRating3.rt,basicRating4.response,basicRating4.rt,key_resp_3.keys,key_resp_3.rt,key_resp_4.keys,key_resp_4.rt,mouseResp.x,mouseResp.y,mouseResp.leftButton,mouseResp.midButton,mouseResp.rightButton,mouseResp.time,key_resp_5.keys,key_resp_5.rt,key_resp_7.keys,key_resp_7.rt,date,group,expName,participant,frameRate,
,,,,,,,,,,,,,,return,191.521924019,,,,,,,,,,,,,,,,,,,,,,,2015_Sep_21_1205,G,facesParametric,5,59.6477426089,
./basicStim/01F_AN_O.jpg,,0,0,0,0,,,,,,,,,,,None,None,ANG,5.384,None,None,None,None,,,,,,,,,,,,,,,2015_Sep_21_1205,G,facesParametric,5,59.6477426089,
./basicStim/01F_HA_O.jpg,,0,1,1,3,,,,,,,,,,,HAP,2.737,None,None,None,None,None,None,,,,,,,,,,,,,,,2015_Sep_21_1205,G,facesParametric,5,59.6477426089,
./basicStim/34M_FE_O.jpg,,0,2,2,72,,,,,,,,,,,None,None,None,None,SUP,4.325,None,None,,,,,,,,,,,,,,,2015_Sep_21_1205,G,facesParametric,5,59.6477426089,
./basicStim/21M_NE_C.jpg,,0,3,3,48,,,,,,,,,,,None,None,None,None,None,None,NTR,4.728,,,,,,,,,,,,,,,2015_Sep_21_1205,G,facesParametric,5,59.6477426089,
./basicStim/03F_SA_C.jpg,,0,4,4,18,,,,,,,,,,,None,None,None,None,DIS,7.057,None,None,,,,,,,,,,,,,,,2015_Sep_21_1205,G,facesParametric,5,59.6477426089,
./basicStim/06F_DI_O.jpg,,0,5,5,22,,,,,,,,,,,None,None,None,None,DIS,1.764,None,None,,,,,,,,,,,,,,,2015_Sep_21_1205,G,facesParametric,5,59.6477426089,
./basicStim/07F_AN_O.jpg,,0,6,6,28,,,,,,,,,,,None,None,ANG,3.353,None,None,None,None,,,,,,,,,,,,,,,2015_Sep_21_1205,G,facesParametric,5,59.6477426089,
./basicStim/36M_DI_O.jpg,,0,7,7,78,,,,,,,,,,,None,None,None,None,DIS,3.055,None,None,,,,,,,,,,,,,,,2015_Sep_21_1205,G,facesParametric,5,59.6477426089,
./basicStim/07F_NE_C.jpg,,0,8,8,34,,,,,,,,,,,None,None,None,None,None,None,NTR,3.407,,,,,,,,,,,,,,,2015_Sep_21_1205,G,facesParametric,5,59.6477426089,
./basicStim/24M_DI_O.jpg,,0,9,9,57,,,,,,,,,,,None,None,FEA,3.221,None,None,None,None,,,,,,,,,,,,,,,2015_Sep_21_1205,G,facesParametric,5,59.6477426089,
./basicStim/34M_DI_O.jpg,,0,10,10,71,,,,,,,,,,,None,None,ANG,6.706,None,None,None,None,,,,,,,,,,,,,,,2015_Sep_21_1205,G,facesParametric,5,59.6477426089,
./basicStim/28M_FE_O.jpg,,0,11,11,65,,,,,,,,,,,None,None,FEA,1.829,None,None,None,None,,,,,,,,,,,,,,,2015_Sep_21_1205,G,facesParametric,5,59.6477426089,
./basicStim/34M_HA_O.jpg,,0,12,12,73,,,,,,,,,,,HAP,1.614,None,None,None,None,None,None,,,,,,,,,,,,,,,2015_Sep_21_1205,G,facesParametric,5,59.6477426089,
./basicStim/23M_FE_O.jpg,,0,13,13,51,,,,,,,,,,,None,None,None,None,SUP,2.084,None,None,,,,,,,,,,,,,,,2015_Sep_21_1205,G,facesParametric,5,59.6477426089,
./basicStim/36M_SP_O.jpg,,0,14,14,82,,,,,,,,,,,None,None,None,None,SUP,1.297,None,None,,,,,,,,,,,,,,,2015_Sep_21_1205,G,facesParametric,5,59.6477426089,
./basicStim/03F_DI_O.jpg,,0,15,15,15,,,,,,,,,,,None,None,None,None,DIS,1.142,None,None,,,,,,,,,,,,,,,2015_Sep_21_1205,G,facesParametric,5,59.6477426089,
./basicStim/23M_SA_C.jpg,,0,16,16,53,,,,,,,,,,,None,None,ANG,5.371,None,None,None,None,,,,,,,,,,,,,,,2015_Sep_21_1205,G,facesParametric,5,59.6477426089,
./basicStim/01F_NE_C.jpg,,0,17,17,6,,,,,,,,,,,SAD,4.011,None,None,None,None,None,None,,,,,,,,,,,,,,,2015_Sep_21_1205,G,facesParametric,5,59.6477426089,
./basicStim/09F_SP_O.jpg,,0,18,18,40,,,,,,,,,,,None,None,None,None,SUP,3.522,None,None,,,,,,,,,,,,,,,2015_Sep_21_1205,G,facesParametric,5,59.6477426089,
./basicStim/21M_DI_O.jpg,,0,19,19,43,,,,,,,,,,,None,None,None,None,DIS,5.297,None,None,,,,,,,,,,,,,,,2015_Sep_21_1205,G,facesParametric,5,59.6477426089,
./basicStim/06F_SP_O.jpg,,0,20,20,26,,,,,,,,,,,None,None,FEA,3.541,None,None,None,None,,,,,,,,,,,,,,,2015_Sep_21_1205,G,facesParametric,5,59.6477426089,
./basicStim/23M_DI_O.jpg,,0,21,21,50,,,,,,,,,,,None,None,None,None,DIS,2.283,None,None,,,,,,,,,,,,,,,2015_Sep_21_1205,G,facesParametric,5,59.6477426089,
./basicStim/21M_HA_O.jpg,,0,22,22,45,,,,,,,,,,,HAP,1.45,None,None,None,None,None,None,,,,,,,,,,,,,,,2015_Sep_21_1205,G,facesParametric,5,59.6477426089,
./basicStim/28M_AN_O.jpg,,0,23,23,63,,,,,,,,,,,None,None,ANG,2.487,None,None,None,None,,,,,,,,,,,,,,,2015_Sep_21_1205,G,facesParametric,5,59.6477426089,
./basicStim/03F_HA_O.jpg,,0,24,24,17,,,,,,,,,,,HAP,1.45,None,None,None,None,None,None,,,,,,,,,,,,,,,2015_Sep_21_1205,G,facesParametric,5,59.6477426089,
./basicStim/07F_SA_C.jpg,,0,25,25,32,,,,,,,,,,,None,None,None,None,DIS,1.74,None,None,,,,,,,,,,,,,,,2015_Sep_21_1205,G,facesParametric,5,59.6477426089,
./basicStim/21M_SA_C.jpg,,0,26,26,46,,,,,,,,,,,None,None,FEA,7.785,None,None,None,None,,,,,,,,,,,,,,,2015_Sep_21_1205,G,facesParametric,5,59.6477426089,
./basicStim/01F_SP_O.jpg,,0,27,27,5,,,,,,,,,,,None,None,None,None,SUP,1.593,None,None,,,,,,,,,,,,,,,2015_Sep_21_1205,G,facesParametric,5,59.6477426089,
./basicStim/03F_FE_O.jpg,,0,28,28,16,,,,,,,,,,,None,None,FEA,1.13,None,None,None,None,,,,,,,,,,,,,,,2015_Sep_21_1205,G,facesParametric,5,59.6477426089,
./basicStim/09F_FE_O.jpg,,0,29,29,37,,,,,,,,,,,None,None,ANG,2.451,None,None,None,None,,,,,,,,,,,,,,,2015_Sep_21_1205,G,facesParametric,5,59.6477426089,
./basicStim/02F_SP_O.jpg,,0,30,30,12,,,,,,,,,,,None,None,None,None,SUP,2.399,None,None,,,,,,,,,,,,,,,2015_Sep_21_1205,G,facesParametric,5,59.6477426089,
./basicStim/24M_NE_C.jpg,,0,31,31,62,,,,,,,,,,,None,None,None,None,None,None,NTR,3.083,,,,,,,,,,,,,,,2015_Sep_21_1205,G,facesParametric,5,59.6477426089,
./basicStim/02F_AN_O.jpg,,0,32,32,7,,,,,,,,,,,None,None,ANG,1.737,None,None,None,None,,,,,,,,,,,,,,,2015_Sep_21_1205,G,facesParametric,5,59.6477426089,
./basicStim/02F_HA_O.jpg,,0,33,33,10,,,,,,,,,,,HAP,1.11,None,None,None,None,None,None,,,,,,,,,,,,,,,2015_Sep_21_1205,G,facesParametric,5,59.6477426089,
./basicStim/02F_NE_C.jpg,,0,34,34,13,,,,,,,,,,,None,None,None,None,None,None,NTR,2.331,,,,,,,,,,,,,,,2015_Sep_21_1205,G,facesParametric,5,59.6477426089,
./basicStim/34M_NE_C.jpg,,0,35,35,76,,,,,,,,,,,None,None,None,None,None,None,NTR,4.141,,,,,,,,,,,,,,,2015_Sep_21_1205,G,facesParametric,5,59.6477426089,
./basicStim/06F_HA_O.jpg,,0,36,36,24,,,,,,,,,,,HAP,1.772,None,None,None,None,None,None,,,,,,,,,,,,,,,2015_Sep_21_1205,G,facesParametric,5,59.6477426089,
./basicStim/01F_DI_O.jpg,,0,37,37,1,,,,,,,,,,,None,None,ANG,2.735,None,None,None,None,,,,,,,,,,,,,,,2015_Sep_21_1205,G,facesParametric,5,59.6477426089,
./basicStim/34M_SA_C.jpg,,0,38,38,74,,,,,,,,,,,None,None,FEA,4.768,None,None,None,None,,,,,,,,,,,,,,,2015_Sep_21_1205,G,facesParametric,5,59.6477426089,
./basicStim/01F_SA_C.jpg,,0,39,39,4,,,,,,,,,,,None,None,ANG,7.382,None,None,None,None,,,,,,,,,,,,,,,2015_Sep_21_1205,G,facesParametric,5,59.6477426089,
./basicStim/09F_SA_C.jpg,,0,40,40,39,,,,,,,,,,,None,None,ANG,3.858,None,None,None,None,,,,,,,,,,,,,,,2015_Sep_21_1205,G,facesParametric,5,59.6477426089,
./basicStim/02F_FE_O.jpg,,0,41,41,9,,,,,,,,,,,None,None,FEA,5.552,None,None,None,None,,,,,,,,,,,,,,,2015_Sep_21_1205,G,facesParametric,5,59.6477426089,
./basicStim/09F_DI_O.jpg,,0,42,42,36,,,,,,,,,,,None,None,None,None,DIS,1.665,None,None,,,,,,,,,,,,,,,2015_Sep_21_1205,G,facesParametric,5,59.6477426089,
./basicStim/02F_DI_O.jpg,,0,43,43,8,,,,,,,,,,,None,None,ANG,5.706,None,None,None,None,,,,,,,,,,,,,,,2015_Sep_21_1205,G,facesParametric,5,59.6477426089,
./basicStim/24M_SA_C.jpg,,0,44,44,60,,,,,,,,,,,None,None,ANG,12.46,None,None,None,None,,,,,,,,,,,,,,,2015_Sep_21_1205,G,facesParametric,5,59.6477426089,
./basicStim/23M_NE_C.jpg,,0,45,45,55,,,,,,,,,,,None,None,None,None,None,None,NTR,1.344,,,,,,,,,,,,,,,2015_Sep_21_1205,G,facesParametric,5,59.6477426089,
./basicStim/02F_SA_C.jpg,,0,46,46,11,,,,,,,,,,,SAD,3.747,None,None,None,None,None,None,,,,,,,,,,,,,,,2015_Sep_21_1205,G,facesParametric,5,59.6477426089,
./basicStim/07F_SP_O.jpg,,0,47,47,33,,,,,,,,,,,None,None,None,None,SUP,2.942,None,None,,,,,,,,,,,,,,,2015_Sep_21_1205,G,facesParametric,5,59.6477426089,
./basicStim/28M_NE_C.jpg,,0,48,48,69,,,,,,,,,,,SAD,4.35,None,None,None,None,None,None,,,,,,,,,,,,,,,2015_Sep_21_1205,G,facesParametric,5,59.6477426089,
./basicStim/23M_AN_O.jpg,,0,49,49,49,,,,,,,,,,,None,None,ANG,1.049,None,None,None,None,,,,,,,,,,,,,,,2015_Sep_21_1205,G,facesParametric,5,59.6477426089,
./basicStim/07F_FE_O.jpg,,0,50,50,30,,,,,,,,,,,None,None,FEA,3.842,None,None,None,None,,,,,,,,,,,,,,,2015_Sep_21_1205,G,facesParametric,5,59.6477426089,
./basicStim/28M_DI_O.jpg,,0,51,51,64,,,,,,,,,,,None,None,None,None,DIS,2.218,None,None,,,,,,,,,,,,,,,2015_Sep_21_1205,G,facesParametric,5,59.6477426089,
./basicStim/28M_HA_O.jpg,,0,52,52,66,,,,,,,,,,,HAP,1.466,None,None,None,None,None,None,,,,,,,,,,,,,,,2015_Sep_21_1205,G,facesParametric,5,59.6477426089,
./basicStim/36M_AN_O.jpg,,0,53,53,77,,,,,,,,,,,None,None,ANG,2.466,None,None,None,None,,,,,,,,,,,,,,,2015_Sep_21_1205,G,facesParametric,5,59.6477426089,
./basicStim/21M_FE_O.jpg,,0,54,54,44,,,,,,,,,,,None,None,FEA,2.398,None,None,None,None,,,,,,,,,,,,,,,2015_Sep_21_1205,G,facesParametric,5,59.6477426089,
./basicStim/06F_AN_O.jpg,,0,55,55,21,,,,,,,,,,,None,None,ANG,4.206,None,None,None,None,,,,,,,,,,,,,,,2015_Sep_21_1205,G,facesParametric,5,59.6477426089,
./basicStim/23M_SP_O.jpg,,0,56,56,54,,,,,,,,,,,None,None,None,None,SUP,2.229,None,None,,,,,,,,,,,,,,,2015_Sep_21_1205,G,facesParametric,5,59.6477426089,
./basicStim/34M_AN_O.jpg,,0,57,57,70,,,,,,,,,,,None,None,ANG,1.261,None,None,None,None,,,,,,,,,,,,,,,2015_Sep_21_1205,G,facesParametric,5,59.6477426089,
./basicStim/36M_FE_O.jpg,,0,58,58,79,,,,,,,,,,,None,None,FEA,4.127,None,None,None,None,,,,,,,,,,,,,,,2015_Sep_21_1205,G,facesParametric,5,59.6477426089,
./basicStim/21M_AN_O.jpg,,0,59,59,42,,,,,,,,,,,None,None,ANG,1.436,None,None,None,None,,,,,,,,,,,,,,,2015_Sep_21_1205,G,facesParametric,5,59.6477426089,
./basicStim/24M_AN_O.jpg,,0,60,60,56,,,,,,,,,,,None,None,FEA,2.502,None,None,None,None,,,,,,,,,,,,,,,2015_Sep_21_1205,G,facesParametric,5,59.6477426089,
./basicStim/24M_FE_O.jpg,,0,61,61,58,,,,,,,,,,,None,None,None,None,DIS,6.273,None,None,,,,,,,,,,,,,,,2015_Sep_21_1205,G,facesParametric,5,59.6477426089,
./basicStim/36M_SA_C.jpg,,0,62,62,81,,,,,,,,,,,None,None,ANG,6.407,None,None,None,None,,,,,,,,,,,,,,,2015_Sep_21_1205,G,facesParametric,5,59.6477426089,
./basicStim/36M_HA_O.jpg,,0,63,63,80,,,,,,,,,,,HAP,1.446,None,None,None,None,None,None,,,,,,,,,,,,,,,2015_Sep_21_1205,G,facesParametric,5,59.6477426089,
./basicStim/09F_NE_C.jpg,,0,64,64,41,,,,,,,,,,,None,None,None,None,None,None,NTR,2.361,,,,,,,,,,,,,,,2015_Sep_21_1205,G,facesParametric,5,59.6477426089,
./basicStim/06F_NE_C.jpg,,0,65,65,27,,,,,,,,,,,None,None,None,None,None,None,NTR,3.516,,,,,,,,,,,,,,,2015_Sep_21_1205,G,facesParametric,5,59.6477426089,
./basicStim/09F_AN_O.jpg,,0,66,66,35,,,,,,,,,,,None,None,ANG,2.15,None,None,None,None,,,,,,,,,,,,,,,2015_Sep_21_1205,G,facesParametric,5,59.6477426089,
./basicStim/06F_FE_O.jpg,,0,67,67,23,,,,,,,,,,,None,None,FEA,2.003,None,None,None,None,,,,,,,,,,,,,,,2015_Sep_21_1205,G,facesParametric,5,59.6477426089,
./basicStim/34M_SP_O.jpg,,0,68,68,75,,,,,,,,,,,None,None,None,None,SUP,1.581,None,None,,,,,,,,,,,,,,,2015_Sep_21_1205,G,facesParametric,5,59.6477426089,
./basicStim/28M_SA_C.jpg,,0,69,69,67,,,,,,,,,,,None,None,FEA,7.65,None,None,None,None,,,,,,,,,,,,,,,2015_Sep_21_1205,G,facesParametric,5,59.6477426089,
./basicStim/01F_FE_O.jpg,,0,70,70,2,,,,,,,,,,,None,None,FEA,2.636,None,None,None,None,,,,,,,,,,,,,,,2015_Sep_21_1205,G,facesParametric,5,59.6477426089,
./basicStim/06F_SA_C.jpg,,0,71,71,25,,,,,,,,,,,None,None,ANG,1.312,None,None,None,None,,,,,,,,,,,,,,,2015_Sep_21_1205,G,facesParametric,5,59.6477426089,
./basicStim/03F_NE_C.jpg,,0,72,72,20,,,,,,,,,,,None,None,None,None,None,None,NTR,2.736,,,,,,,,,,,,,,,2015_Sep_21_1205,G,facesParametric,5,59.6477426089,
./basicStim/36M_NE_C.jpg,,0,73,73,83,,,,,,,,,,,None,None,None,None,None,None,NTR,2.387,,,,,,,,,,,,,,,2015_Sep_21_1205,G,facesParametric,5,59.6477426089,
./basicStim/09F_HA_O.jpg,,0,74,74,38,,,,,,,,,,,HAP,1.45,None,None,None,None,None,None,,,,,,,,,,,,,,,2015_Sep_21_1205,G,facesParametric,5,59.6477426089,
./basicStim/07F_DI_O.jpg,,0,75,75,29,,,,,,,,,,,None,None,None,None,DIS,1.445,None,None,,,,,,,,,,,,,,,2015_Sep_21_1205,G,facesParametric,5,59.6477426089,
./basicStim/28M_SP_O.jpg,,0,76,76,68,,,,,,,,,,,None,None,None,None,SUP,1.849,None,None,,,,,,,,,,,,,,,2015_Sep_21_1205,G,facesParametric,5,59.6477426089,
./basicStim/23M_HA_O.jpg,,0,77,77,52,,,,,,,,,,,HAP,1.397,None,None,None,None,None,None,,,,,,,,,,,,,,,2015_Sep_21_1205,G,facesParametric,5,59.6477426089,
./basicStim/21M_SP_O.jpg,,0,78,78,47,,,,,,,,,,,None,None,FEA,3.458,None,None,None,None,,,,,,,,,,,,,,,2015_Sep_21_1205,G,facesParametric,5,59.6477426089,
./basicStim/24M_HA_O.jpg,,0,79,79,59,,,,,,,,,,,HAP,1.162,None,None,None,None,None,None,,,,,,,,,,,,,,,2015_Sep_21_1205,G,facesParametric,5,59.6477426089,
./basicStim/03F_AN_O.jpg,,0,80,80,14,,,,,,,,,,,None,None,ANG,1.61,None,None,None,None,,,,,,,,,,,,,,,2015_Sep_21_1205,G,facesParametric,5,59.6477426089,
./basicStim/03F_SP_O.jpg,,0,81,81,19,,,,,,,,,,,None,None,None,None,SUP,1.963,None,None,,,,,,,,,,,,,,,2015_Sep_21_1205,G,facesParametric,5,59.6477426089,
./basicStim/24M_SP_O.jpg,,0,82,82,61,,,,,,,,,,,None,None,None,None,SUP,4.128,None,None,,,,,,,,,,,,,,,2015_Sep_21_1205,G,facesParametric,5,59.6477426089,
./basicStim/07F_HA_O.jpg,,0,83,83,31,,,,,,,,,,,HAP,1.058,None,None,None,None,None,None,,,,,,,,,,,,,,,2015_Sep_21_1205,G,facesParametric,5,59.6477426089,
,,,,,,,,,,,,,,,,,,,,,,,,return,25.3754169941,,,,,,,,,,,,,2015_Sep_21_1205,G,facesParametric,5,59.6477426089,
,,,,,,,,,,,,,,return,13.2899670601,,,,,,,,,,,,,,,,,,,,,,,2015_Sep_21_1205,G,facesParametric,5,59.6477426089,
,,,,,,,,,,,,,,,,,,,,,,,,return,26.2457809448,,,,,,,,,,,,,2015_Sep_21_1205,G,facesParametric,5,59.6477426089,
,,,,,,,,,,,,,,,,,,,,,,,,,,return,1.32356214523,,,,,,,,,,,2015_Sep_21_1205,G,facesParametric,5,59.6477426089,
./stim/MorphM6_03_orig.jpg,0,,,,,0,0,0,0,,,,,,,,,,,,,,,,,,,-23.4375,-7.55859375,1,0,0,4.55460596085,,,,,2015_Sep_21_1205,G,facesParametric,5,59.6477426089,
./stim/MorphF9_09_orig.jpg,1,,,,,0,1,1,1,,,,,,,,,,,,,,,,,,,-23.291015625,-5.771484375,0,0,1,3.2164812088,,,,,2015_Sep_21_1205,G,facesParametric,5,59.6477426089,
./stim/MorphF5_04_orig.jpg,2,,,,,0,2,2,2,,,,,,,,,,,,,,,,,,,-22.1484375,-5.185546875,1,0,0,10.205188036,,,,,2015_Sep_21_1205,G,facesParametric,5,59.6477426089,
./stim/MorphM7_07_orig.jpg,3,,,,,0,3,3,3,,,,,,,,,,,,,,,,,,,-22.08984375,-5.09765625,0,0,1,2.46263599396,,,,,2015_Sep_21_1205,G,facesParametric,5,59.6477426089,
./stim/MorphF1_01_orig.jpg,4,,,,,0,4,4,4,,,,,,,,,,,,,,,,,,,-22.001953125,-5.185546875,1,0,0,1.17096495628,,,,,2015_Sep_21_1205,G,facesParametric,5,59.6477426089,
./stim/MorphM4_06_orig.jpg,5,,,,,0,5,5,5,,,,,,,,,,,,,,,,,,,-21.884765625,-5.09765625,0,0,1,2.1442399025,,,,,2015_Sep_21_1205,G,facesParametric,5,59.6477426089,
./stim/MorphM6_09_orig.jpg,6,,,,,0,6,6,6,,,,,,,,,,,,,,,,,,,-21.85546875,-5.09765625,1,0,0,1.99175190926,,,,,2015_Sep_21_1205,G,facesParametric,5,59.6477426089,
./stim/MorphM5_02_orig.jpg,7,,,,,0,7,7,7,,,,,,,,,,,,,,,,,,,-21.767578125,-4.921875,0,0,1,3.14959692955,,,,,2015_Sep_21_1205,G,facesParametric,5,59.6477426089,
./stim/MorphF1_08_orig.jpg,8,,,,,0,8,8,8,,,,,,,,,,,,,,,,,,,-21.767578125,-4.8046875,1,0,0,1.28877902031,,,,,2015_Sep_21_1205,G,facesParametric,5,59.6477426089,
./stim/MorphF4_04_orig.jpg,9,,,,,0,9,9,9,,,,,,,,,,,,,,,,,,,-21.6796875,-4.74609375,0,0,1,5.00944018364,,,,,2015_Sep_21_1205,G,facesParametric,5,59.6477426089,
./stim/MorphM8_01_orig.jpg,10,,,,,0,10,10,10,,,,,,,,,,,,,,,,,,,-21.73828125,-4.8046875,0,0,1,4.79180693626,,,,,2015_Sep_21_1205,G,facesParametric,5,59.6477426089,
./stim/MorphF8_04_orig.jpg,11,,,,,0,11,11,11,,,,,,,,,,,,,,,,,,,-21.767578125,-4.892578125,1,0,0,1.92407393456,,,,,2015_Sep_21_1205,G,facesParametric,5,59.6477426089,
./stim/MorphF5_10_orig.jpg,12,,,,,0,12,12,12,,,,,,,,,,,,,,,,,,,-21.884765625,-4.951171875,0,0,1,1.47206783295,,,,,2015_Sep_21_1205,G,facesParametric,5,59.6477426089,
./stim/MorphM8_04_orig.jpg,13,,,,,0,13,13,13,,,,,,,,,,,,,,,,,,,-21.826171875,-4.951171875,0,0,1,1.7417280674,,,,,2015_Sep_21_1205,G,facesParametric,5,59.6477426089,
./stim/MorphF7_00_orig.jpg,14,,,,,0,14,14,14,,,,,,,,,,,,,,,,,,,-19.423828125,-5.947265625,1,0,0,9.90355587006,,,,,2015_Sep_21_1205,G,facesParametric,5,59.6477426089,
./stim/MorphM7_00_orig.jpg,15,,,,,0,15,15,15,,,,,,,,,,,,,,,,,,,-18.955078125,-5.947265625,1,0,0,3.35100603104,,,,,2015_Sep_21_1205,G,facesParametric,5,59.6477426089,
./stim/MorphM10_10_orig.jpg,16,,,,,0,16,16,16,,,,,,,,,,,,,,,,,,,-18.10546875,-5.947265625,0,0,1,7.57420897484,,,,,2015_Sep_21_1205,G,facesParametric,5,59.6477426089,
./stim/MorphF1_09_orig.jpg,17,,,,,0,17,17,17,,,,,,,,,,,,,,,,,,,-16.318359375,-7.67578125,0,0,1,3.36678791046,,,,,2015_Sep_21_1205,G,facesParametric,5,59.6477426089,
./stim/MorphM2_08_orig.jpg,18,,,,,0,18,18,18,,,,,,,,,,,,,,,,,,,-16.11328125,-7.470703125,0,0,1,2.56314492226,,,,,2015_Sep_21_1205,G,facesParametric,5,59.6477426089,
./stim/MorphF3_03_orig.jpg,19,,,,,0,19,19,19,,,,,,,,,,,,,,,,,,,-16.171875,-7.470703125,0,0,1,3.19963502884,,,,,2015_Sep_21_1205,G,facesParametric,5,59.6477426089,
./stim/MorphF2_05_orig.jpg,20,,,,,0,20,20,20,,,,,,,,,,,,,,,,,,,-16.142578125,-7.3828125,0,0,1,3.24845504761,,,,,2015_Sep_21_1205,G,facesParametric,5,59.6477426089,
./stim/MorphF4_02_orig.jpg,21,,,,,0,21,21,21,,,,,,,,,,,,,,,,,,,-16.171875,-7.412109375,1,0,0,2.02661108971,,,,,2015_Sep_21_1205,G,facesParametric,5,59.6477426089,
./stim/MorphM3_09_orig.jpg,22,,,,,0,22,22,22,,,,,,,,,,,,,,,,,,,-16.259765625,-7.412109375,0,0,1,2.07662177086,,,,,2015_Sep_21_1205,G,facesParametric,5,59.6477426089,
./stim/MorphF5_06_orig.jpg,23,,,,,0,23,23,23,,,,,,,,,,,,,,,,,,,-16.2890625,-7.44140625,0,0,1,1.45672488213,,,,,2015_Sep_21_1205,G,facesParametric,5,59.6477426089,
./stim/MorphF2_09_orig.jpg,24,,,,,0,24,24,24,,,,,,,,,,,,,,,,,,,-16.259765625,-7.3828125,0,0,1,1.74159216881,,,,,2015_Sep_21_1205,G,facesParametric,5,59.6477426089,
./stim/MorphM10_09_orig.jpg,25,,,,,0,25,25,25,,,,,,,,,,,,,,,,,,,-16.2890625,-7.412109375,0,0,1,2.09369206429,,,,,2015_Sep_21_1205,G,facesParametric,5,59.6477426089,
./stim/MorphM9_04_orig.jpg,26,,,,,0,26,26,26,,,,,,,,,,,,,,,,,,,-16.318359375,-7.32421875,1,0,0,2.32841110229,,,,,2015_Sep_21_1205,G,facesParametric,5,59.6477426089,
./stim/MorphF6_09_orig.jpg,27,,,,,0,27,27,27,,,,,,,,,,,,,,,,,,,-16.23046875,-7.294921875,0,0,1,1.62462592125,,,,,2015_Sep_21_1205,G,facesParametric,5,59.6477426089,
./stim/MorphF5_03_orig.jpg,28,,,,,0,28,28,28,,,,,,,,,,,,,,,,,,,-16.23046875,-7.294921875,0,0,1,5.73057103157,,,,,2015_Sep_21_1205,G,facesParametric,5,59.6477426089,
./stim/MorphF6_02_orig.jpg,29,,,,,0,29,29,29,,,,,,,,,,,,,,,,,,,-16.23046875,-7.294921875,1,0,0,1.47146701813,,,,,2015_Sep_21_1205,G,facesParametric,5,59.6477426089,
./stim/MorphF2_06_orig.jpg,30,,,,,0,30,30,30,,,,,,,,,,,,,,,,,,,-16.201171875,-7.265625,0,0,1,3.31733512878,,,,,2015_Sep_21_1205,G,facesParametric,5,59.6477426089,
./stim/MorphM4_05_orig.jpg,31,,,,,0,31,31,31,,,,,,,,,,,,,,,,,,,-16.23046875,-7.236328125,0,0,1,1.27242493629,,,,,2015_Sep_21_1205,G,facesParametric,5,59.6477426089,
./stim/MorphF8_06_orig.jpg,32,,,,,0,32,32,32,,,,,,,,,,,,,,,,,,,-16.171875,-7.236328125,1,0,0,1.95919704437,,,,,2015_Sep_21_1205,G,facesParametric,5,59.6477426089,
./stim/MorphM6_02_orig.jpg,33,,,,,0,33,33,33,,,,,,,,,,,,,,,,,,,-16.0546875,-7.177734375,1,0,0,1.80795407295,,,,,2015_Sep_21_1205,G,facesParametric,5,59.6477426089,
./stim/MorphF9_06_orig.jpg,34,,,,,0,34,34,34,,,,,,,,,,,,,,,,,,,-15.64453125,-7.001953125,1,0,0,4.64115190506,,,,,2015_Sep_21_1205,G,facesParametric,5,59.6477426089,
./stim/MorphM5_06_orig.jpg,35,,,,,0,35,35,35,,,,,,,,,,,,,,,,,,,-15.703125,-7.03125,0,0,1,1.54106688499,,,,,2015_Sep_21_1205,G,facesParametric,5,59.6477426089,
./stim/MorphM8_10_orig.jpg,36,,,,,0,36,36,36,,,,,,,,,,,,,,,,,,,-15.76171875,-7.1484375,0,0,1,1.05444598198,,,,,2015_Sep_21_1205,G,facesParametric,5,59.6477426089,
./stim/MorphF4_00_orig.jpg,37,,,,,0,37,37,37,,,,,,,,,,,,,,,,,,,-15.791015625,-7.1484375,1,0,0,1.27225399017,,,,,2015_Sep_21_1205,G,facesParametric,5,59.6477426089,
./stim/MorphF10_06_orig.jpg,38,,,,,0,38,38,38,,,,,,,,,,,,,,,,,,,-15.556640625,-7.08984375,0,0,1,4.60619497299,,,,,2015_Sep_21_1205,G,facesParametric,5,59.6477426089,
./stim/MorphM2_04_orig.jpg,39,,,,,0,39,39,39,,,,,,,,,,,,,,,,,,,-15.76171875,-7.236328125,1,0,0,2.36189198494,,,,,2015_Sep_21_1205,G,facesParametric,5,59.6477426089,
./stim/MorphF9_01_orig.jpg,40,,,,,0,40,40,40,,,,,,,,,,,,,,,,,,,-14.033203125,-6.796875,1,0,0,2.27616286278,,,,,2015_Sep_21_1205,G,facesParametric,5,59.6477426089,
./stim/MorphF3_00_orig.jpg,41,,,,,0,41,41,41,,,,,,,,,,,,,,,,,,,-14.091796875,-6.796875,1,0,0,1.55615091324,,,,,2015_Sep_21_1205,G,facesParametric,5,59.6477426089,
./stim/MorphF10_07_orig.jpg,42,,,,,0,42,42,42,,,,,,,,,,,,,,,,,,,-14.091796875,-6.796875,0,0,1,2.2440431118,,,,,2015_Sep_21_1205,G,facesParametric,5,59.6477426089,
./stim/MorphF9_10_orig.jpg,43,,,,,0,43,43,43,,,,,,,,,,,,,,,,,,,-19.6875,-10.48828125,0,0,1,3.78486585617,,,,,2015_Sep_21_1205,G,facesParametric,5,59.6477426089,
./stim/MorphF8_00_orig.jpg,44,,,,,0,44,44,44,,,,,,,,,,,,,,,,,,,-19.716796875,-10.517578125,1,0,0,1.15499591827,,,,,2015_Sep_21_1205,G,facesParametric,5,59.6477426089,
./stim/MorphF3_01_orig.jpg,45,,,,,0,45,45,45,,,,,,,,,,,,,,,,,,,-19.775390625,-10.4296875,1,0,0,1.95774793625,,,,,2015_Sep_21_1205,G,facesParametric,5,59.6477426089,
./stim/MorphM10_03_orig.jpg,46,,,,,0,46,46,46,,,,,,,,,,,,,,,,,,,-19.833984375,-10.458984375,0,0,1,2.74710202217,,,,,2015_Sep_21_1205,G,facesParametric,5,59.6477426089,
./stim/MorphM1_00_orig.jpg,47,,,,,0,47,47,47,,,,,,,,,,,,,,,,,,,-19.74609375,-10.48828125,1,0,0,7.64112091064,,,,,2015_Sep_21_1205,G,facesParametric,5,59.6477426089,
./stim/MorphM9_01_orig.jpg,48,,,,,0,48,48,48,,,,,,,,,,,,,,,,,,,-19.716796875,-10.517578125,1,0,0,2.26002001762,,,,,2015_Sep_21_1205,G,facesParametric,5,59.6477426089,
./stim/MorphF3_05_orig.jpg,49,,,,,0,49,49,49,,,,,,,,,,,,,,,,,,,-19.86328125,-10.48828125,0,0,1,1.08767700195,,,,,2015_Sep_21_1205,G,facesParametric,5,59.6477426089,
./stim/MorphM5_00_orig.jpg,50,,,,,0,50,50,50,,,,,,,,,,,,,,,,,,,-19.74609375,-10.400390625,1,0,0,2.56169986725,,,,,2015_Sep_21_1205,G,facesParametric,5,59.6477426089,
./stim/MorphF9_03_orig.jpg,51,,,,,0,51,51,51,,,,,,,,,,,,,,,,,,,-19.62890625,-10.458984375,1,0,0,3.56678795815,,,,,2015_Sep_21_1205,G,facesParametric,5,59.6477426089,
./stim/MorphM9_03_orig.jpg,52,,,,,0,52,52,52,,,,,,,,,,,,,,,,,,,-19.8046875,-10.458984375,1,0,0,2.88134694099,,,,,2015_Sep_21_1205,G,facesParametric,5,59.6477426089,
./stim/MorphM7_09_orig.jpg,53,,,,,0,53,53,53,,,,,,,,,,,,,,,,,,,-19.775390625,-10.517578125,0,0,1,1.10454893112,,,,,2015_Sep_21_1205,G,facesParametric,5,59.6477426089,
./stim/MorphM9_00_orig.jpg,54,,,,,0,54,54,54,,,,,,,,,,,,,,,,,,,-19.716796875,-10.517578125,1,0,0,2.41199302673,,,,,2015_Sep_21_1205,G,facesParametric,5,59.6477426089,
./stim/MorphF1_04_orig.jpg,55,,,,,0,55,55,55,,,,,,,,,,,,,,,,,,,-19.658203125,-10.48828125,1,0,0,5.10883188248,,,,,2015_Sep_21_1205,G,facesParametric,5,59.6477426089,
./stim/MorphF10_02_orig.jpg,56,,,,,0,56,56,56,,,,,,,,,,,,,,,,,,,-19.658203125,-10.4296875,1,0,0,3.19823288918,,,,,2015_Sep_21_1205,G,facesParametric,5,59.6477426089,
./stim/MorphM3_08_orig.jpg,57,,,,,0,57,57,57,,,,,,,,,,,,,,,,,,,-19.51171875,-10.37109375,0,0,1,1.07115697861,,,,,2015_Sep_21_1205,G,facesParametric,5,59.6477426089,
./stim/MorphF2_01_orig.jpg,58,,,,,0,58,58,58,,,,,,,,,,,,,,,,,,,-18.8671875,-9.638671875,1,0,0,8.00999403,,,,,2015_Sep_21_1205,G,facesParametric,5,59.6477426089,
./stim/MorphF10_05_orig.jpg,59,,,,,0,59,59,59,,,,,,,,,,,,,,,,,,,-18.3984375,-9.55078125,0,0,1,2.21103191376,,,,,2015_Sep_21_1205,G,facesParametric,5,59.6477426089,
./stim/MorphF1_02_orig.jpg,60,,,,,0,60,60,60,,,,,,,,,,,,,,,,,,,-18.134765625,-9.4921875,1,0,0,2.83083105087,,,,,2015_Sep_21_1205,G,facesParametric,5,59.6477426089,
./stim/MorphF4_10_orig.jpg,61,,,,,0,61,61,61,,,,,,,,,,,,,,,,,,,-17.9296875,-9.31640625,0,0,1,1.94283604622,,,,,2015_Sep_21_1205,G,facesParametric,5,59.6477426089,
./stim/MorphM9_05_orig.jpg,62,,,,,0,62,62,62,,,,,,,,,,,,,,,,,,,-18.046875,-9.404296875,1,0,0,2.7807469368,,,,,2015_Sep_21_1205,G,facesParametric,5,59.6477426089,
./stim/MorphF5_01_orig.jpg,63,,,,,0,63,63,63,,,,,,,,,,,,,,,,,,,-17.958984375,-9.375,1,0,0,7.05405306816,,,,,2015_Sep_21_1205,G,facesParametric,5,59.6477426089,
./stim/MorphM7_04_orig.jpg,64,,,,,0,64,64,64,,,,,,,,,,,,,,,,,,,-18.046875,-9.345703125,0,0,1,2.17756199837,,,,,2015_Sep_21_1205,G,facesParametric,5,59.6477426089,
./stim/MorphM1_08_orig.jpg,65,,,,,0,65,65,65,,,,,,,,,,,,,,,,,,,-17.9296875,-9.2578125,0,0,1,1.42311191559,,,,,2015_Sep_21_1205,G,facesParametric,5,59.6477426089,
./stim/MorphM3_01_orig.jpg,66,,,,,0,66,66,66,,,,,,,,,,,,,,,,,,,-17.783203125,-9.169921875,1,0,0,6.23287892342,,,,,2015_Sep_21_1205,G,facesParametric,5,59.6477426089,
./stim/MorphF9_08_orig.jpg,67,,,,,0,67,67,67,,,,,,,,,,,,,,,,,,,-17.75390625,-9.169921875,0,0,1,2.24474620819,,,,,2015_Sep_21_1205,G,facesParametric,5,59.6477426089,
./stim/MorphF6_05_orig.jpg,68,,,,,0,68,68,68,,,,,,,,,,,,,,,,,,,-17.63671875,-9.228515625,1,0,0,5.21102285385,,,,,2015_Sep_21_1205,G,facesParametric,5,59.6477426089,
./stim/MorphF5_02_orig.jpg,69,,,,,0,69,69,69,,,,,,,,,,,,,,,,,,,-17.548828125,-9.228515625,1,0,0,1.58979201317,,,,,2015_Sep_21_1205,G,facesParametric,5,59.6477426089,
./stim/MorphM2_06_orig.jpg,70,,,,,0,70,70,70,,,,,,,,,,,,,,,,,,,-17.548828125,-9.287109375,0,0,1,2.67906498909,,,,,2015_Sep_21_1205,G,facesParametric,5,59.6477426089,
./stim/MorphF2_03_orig.jpg,71,,,,,0,71,71,71,,,,,,,,,,,,,,,,,,,-17.63671875,-9.287109375,1,0,0,2.01040005684,,,,,2015_Sep_21_1205,G,facesParametric,5,59.6477426089,
./stim/MorphM4_04_orig.jpg,72,,,,,0,72,72,72,,,,,,,,,,,,,,,,,,,-17.34375,-9.052734375,0,0,1,9.09766292572,,,,,2015_Sep_21_1205,G,facesParametric,5,59.6477426089,
./stim/MorphM1_06_orig.jpg,73,,,,,0,73,73,73,,,,,,,,,,,,,,,,,,,-17.373046875,-8.994140625,0,0,1,2.49562096596,,,,,2015_Sep_21_1205,G,facesParametric,5,59.6477426089,
./stim/MorphM6_05_orig.jpg,74,,,,,0,74,74,74,,,,,,,,,,,,,,,,,,,-17.40234375,-8.96484375,1,0,0,1.67480397224,,,,,2015_Sep_21_1205,G,facesParametric,5,59.6477426089,
./stim/MorphM1_09_orig.jpg,75,,,,,0,75,75,75,,,,,,,,,,,,,,,,,,,-17.373046875,-8.994140625,0,0,1,1.40626192093,,,,,2015_Sep_21_1205,G,facesParametric,5,59.6477426089,
./stim/MorphM9_10_orig.jpg,76,,,,,0,76,76,76,,,,,,,,,,,,,,,,,,,-17.40234375,-8.96484375,0,0,1,1.20540714264,,,,,2015_Sep_21_1205,G,facesParametric,5,59.6477426089,
./stim/MorphM10_08_orig.jpg,77,,,,,0,77,77,77,,,,,,,,,,,,,,,,,,,-17.431640625,-8.935546875,0,0,1,1.74142789841,,,,,2015_Sep_21_1205,G,facesParametric,5,59.6477426089,
./stim/MorphM8_06_orig.jpg,78,,,,,0,78,78,78,,,,,,,,,,,,,,,,,,,-17.490234375,-8.96484375,0,0,1,2.77927994728,,,,,2015_Sep_21_1205,G,facesParametric,5,59.6477426089,
./stim/MorphF8_02_orig.jpg,79,,,,,0,79,79,79,,,,,,,,,,,,,,,,,,,-17.4609375,-8.994140625,1,0,0,1.55798101425,,,,,2015_Sep_21_1205,G,facesParametric,5,59.6477426089,
./stim/MorphM5_10_orig.jpg,80,,,,,0,80,80,80,,,,,,,,,,,,,,,,,,,-17.431640625,-8.96484375,0,0,1,6.54910802841,,,,,2015_Sep_21_1205,G,facesParametric,5,59.6477426089,
./stim/MorphM10_06_orig.jpg,81,,,,,0,81,81,81,,,,,,,,,,,,,,,,,,,-17.490234375,-8.90625,0,0,1,2.58070206642,,,,,2015_Sep_21_1205,G,facesParametric,5,59.6477426089,
./stim/MorphM1_04_orig.jpg,82,,,,,0,82,82,82,,,,,,,,,,,,,,,,,,,-17.548828125,-8.84765625,1,0,0,5.81394600868,,,,,2015_Sep_21_1205,G,facesParametric,5,59.6477426089,
./stim/MorphF6_06_orig.jpg,83,,,,,0,83,83,83,,,,,,,,,,,,,,,,,,,-17.578125,-8.876953125,1,0,0,2.72958803177,,,,,2015_Sep_21_1205,G,facesParametric,5,59.6477426089,
./stim/MorphM8_08_orig.jpg,84,,,,,0,84,84,84,,,,,,,,,,,,,,,,,,,-17.63671875,-8.90625,0,0,1,1.20562911034,,,,,2015_Sep_21_1205,G,facesParametric,5,59.6477426089,
./stim/MorphM1_07_orig.jpg,85,,,,,0,85,85,85,,,,,,,,,,,,,,,,,,,-17.607421875,-8.876953125,0,0,1,1.16977000237,,,,,2015_Sep_21_1205,G,facesParametric,5,59.6477426089,
./stim/MorphF3_04_orig.jpg,86,,,,,0,86,86,86,,,,,,,,,,,,,,,,,,,-17.724609375,-8.876953125,1,0,0,1.1549808979,,,,,2015_Sep_21_1205,G,facesParametric,5,59.6477426089,
./stim/MorphM1_03_orig.jpg,87,,,,,0,87,87,87,,,,,,,,,,,,,,,,,,,-17.6953125,-8.876953125,1,0,0,1.1886241436,,,,,2015_Sep_21_1205,G,facesParametric,5,59.6477426089,
./stim/MorphM3_03_orig.jpg,88,,,,,0,88,88,88,,,,,,,,,,,,,,,,,,,-17.724609375,-8.818359375,1,0,0,2.59496283531,,,,,2015_Sep_21_1205,G,facesParametric,5,59.6477426089,
./stim/MorphM10_01_orig.jpg,89,,,,,0,89,89,89,,,,,,,,,,,,,,,,,,,-17.6953125,-8.84765625,1,0,0,1.08764004707,,,,,2015_Sep_21_1205,G,facesParametric,5,59.6477426089,
./stim/MorphM6_08_orig.jpg,90,,,,,0,90,90,90,,,,,,,,,,,,,,,,,,,-17.6953125,-8.994140625,1,0,0,5.62961006165,,,,,2015_Sep_21_1205,G,facesParametric,5,59.6477426089,
./stim/MorphM3_04_orig.jpg,91,,,,,0,91,91,91,,,,,,,,,,,,,,,,,,,-17.666015625,-9.0234375,1,0,0,2.5796558857,,,,,2015_Sep_21_1205,G,facesParametric,5,59.6477426089,
./stim/MorphM10_00_orig.jpg,92,,,,,0,92,92,92,,,,,,,,,,,,,,,,,,,-17.607421875,-9.052734375,1,0,0,4.05361914635,,,,,2015_Sep_21_1205,G,facesParametric,5,59.6477426089,
./stim/MorphM4_10_orig.jpg,93,,,,,0,93,93,93,,,,,,,,,,,,,,,,,,,-17.607421875,-9.19921875,0,0,1,1.2041490078,,,,,2015_Sep_21_1205,G,facesParametric,5,59.6477426089,
./stim/MorphF9_04_orig.jpg,94,,,,,0,94,94,94,,,,,,,,,,,,,,,,,,,-17.548828125,-9.19921875,1,0,0,3.68605303764,,,,,2015_Sep_21_1205,G,facesParametric,5,59.6477426089,
./stim/MorphM7_06_orig.jpg,95,,,,,0,95,95,95,,,,,,,,,,,,,,,,,,,-17.51953125,-9.228515625,0,0,1,0.735826015472,,,,,2015_Sep_21_1205,G,facesParametric,5,59.6477426089,
./stim/MorphF7_06_orig.jpg,96,,,,,0,96,96,96,,,,,,,,,,,,,,,,,,,-17.63671875,-9.228515625,0,0,1,1.07144522667,,,,,2015_Sep_21_1205,G,facesParametric,5,59.6477426089,
./stim/MorphM6_07_orig.jpg,97,,,,,0,97,97,97,,,,,,,,,,,,,,,,,,,-17.666015625,-9.287109375,1,0,0,1.64103579521,,,,,2015_Sep_21_1205,G,facesParametric,5,59.6477426089,
./stim/MorphF6_10_orig.jpg,98,,,,,0,98,98,98,,,,,,,,,,,,,,,,,,,-17.6953125,-9.287109375,0,0,1,0.853590965271,,,,,2015_Sep_21_1205,G,facesParametric,5,59.6477426089,
./stim/MorphM9_08_orig.jpg,99,,,,,0,99,99,99,,,,,,,,,,,,,,,,,,,-17.75390625,-9.375,0,0,1,2.1604590416,,,,,2015_Sep_21_1205,G,facesParametric,5,59.6477426089,
./stim/MorphF1_07_orig.jpg,100,,,,,0,100,100,100,,,,,,,,,,,,,,,,,,,-17.666015625,-9.287109375,0,0,1,1.32289719582,,,,,2015_Sep_21_1205,G,facesParametric,5,59.6477426089,
./stim/MorphF2_00_orig.jpg,101,,,,,0,101,101,101,,,,,,,,,,,,,,,,,,,-17.724609375,-9.228515625,1,0,0,4.03773999214,,,,,2015_Sep_21_1205,G,facesParametric,5,59.6477426089,
./stim/MorphM6_01_orig.jpg,102,,,,,0,102,102,102,,,,,,,,,,,,,,,,,,,-20.56640625,-11.71875,1,0,0,5.49589514732,,,,,2015_Sep_21_1205,G,facesParametric,5,59.6477426089,
./stim/MorphF3_07_orig.jpg,103,,,,,0,103,103,103,,,,,,,,,,,,,,,,,,,-20.56640625,-11.71875,1,0,0,1.99283599854,,,,,2015_Sep_21_1205,G,facesParametric,5,59.6477426089,
./stim/MorphM5_05_orig.jpg,104,,,,,0,104,104,104,,,,,,,,,,,,,,,,,,,-20.595703125,-11.748046875,0,0,1,8.11112213135,,,,,2015_Sep_21_1205,G,facesParametric,5,59.6477426089,
./stim/MorphF2_02_orig.jpg,105,,,,,0,105,105,105,,,,,,,,,,,,,,,,,,,-20.5078125,-11.689453125,1,0,0,1.17195987701,,,,,2015_Sep_21_1205,G,facesParametric,5,59.6477426089,
./stim/MorphF9_07_orig.jpg,106,,,,,0,106,106,106,,,,,,,,,,,,,,,,,,,-20.56640625,-11.689453125,0,0,1,2.4955329895,,,,,2015_Sep_21_1205,G,facesParametric,5,59.6477426089,
./stim/MorphM5_03_orig.jpg,107,,,,,0,107,107,107,,,,,,,,,,,,,,,,,,,-20.537109375,-11.630859375,0,0,1,3.23348689079,,,,,2015_Sep_21_1205,G,facesParametric,5,59.6477426089,
./stim/MorphM9_06_orig.jpg,108,,,,,0,108,108,108,,,,,,,,,,,,,,,,,,,-20.595703125,-11.6015625,1,0,0,1.18773412704,,,,,2015_Sep_21_1205,G,facesParametric,5,59.6477426089,
./stim/MorphF4_08_orig.jpg,109,,,,,0,109,109,109,,,,,,,,,,,,,,,,,,,-20.33203125,-11.279296875,0,0,1,6.23154306412,,,,,2015_Sep_21_1205,G,facesParametric,5,59.6477426089,
./stim/MorphM2_02_orig.jpg,110,,,,,0,110,110,110,,,,,,,,,,,,,,,,,,,-20.33203125,-11.337890625,1,0,0,2.12758016586,,,,,2015_Sep_21_1205,G,facesParametric,5,59.6477426089,
./stim/MorphM3_06_orig.jpg,111,,,,,0,111,111,111,,,,,,,,,,,,,,,,,,,-20.33203125,-11.337890625,0,0,1,1.22198581696,,,,,2015_Sep_21_1205,G,facesParametric,5,59.6477426089,
./stim/MorphF9_05_orig.jpg,112,,,,,0,112,112,112,,,,,,,,,,,,,,,,,,,-19.833984375,-9.990234375,0,0,1,5.63052296638,,,,,2015_Sep_21_1205,G,facesParametric,5,59.6477426089,
./stim/MorphF8_01_orig.jpg,113,,,,,0,113,113,113,,,,,,,,,,,,,,,,,,,-20.771484375,-9.43359375,1,0,0,1.12172698975,,,,,2015_Sep_21_1205,G,facesParametric,5,59.6477426089,
./stim/MorphF2_10_orig.jpg,114,,,,,0,114,114,114,,,,,,,,,,,,,,,,,,,-20.712890625,-9.43359375,0,0,1,1.13616490364,,,,,2015_Sep_21_1205,G,facesParametric,5,59.6477426089,
./stim/MorphF5_05_orig.jpg,115,,,,,0,115,115,115,,,,,,,,,,,,,,,,,,,-20.595703125,-9.375,0,0,1,1.89064693451,,,,,2015_Sep_21_1205,G,facesParametric,5,59.6477426089,
./stim/MorphM1_02_orig.jpg,116,,,,,0,116,116,116,,,,,,,,,,,,,,,,,,,-20.56640625,-9.43359375,1,0,0,6.43549489975,,,,,2015_Sep_21_1205,G,facesParametric,5,59.6477426089,
./stim/MorphF8_09_orig.jpg,117,,,,,0,117,117,117,,,,,,,,,,,,,,,,,,,-20.625,-9.4921875,0,0,1,1.00370001793,,,,,2015_Sep_21_1205,G,facesParametric,5,59.6477426089,
./stim/MorphF1_06_orig.jpg,118,,,,,0,118,118,118,,,,,,,,,,,,,,,,,,,-20.595703125,-9.462890625,0,0,1,1.2208609581,,,,,2015_Sep_21_1205,G,facesParametric,5,59.6477426089,
./stim/MorphF10_10_orig.jpg,119,,,,,0,119,119,119,,,,,,,,,,,,,,,,,,,-20.68359375,-9.4921875,0,0,1,1.10464406013,,,,,2015_Sep_21_1205,G,facesParametric,5,59.6477426089,
./stim/MorphM6_00_orig.jpg,120,,,,,0,120,120,120,,,,,,,,,,,,,,,,,,,-20.654296875,-9.43359375,1,0,0,15.5183660984,,,,,2015_Sep_21_1205,G,facesParametric,5,59.6477426089,
./stim/MorphM4_09_orig.jpg,121,,,,,0,121,121,121,,,,,,,,,,,,,,,,,,,-20.654296875,-9.43359375,0,0,1,1.16980600357,,,,,2015_Sep_21_1205,G,facesParametric,5,59.6477426089,
./stim/MorphF7_05_orig.jpg,122,,,,,0,122,122,122,,,,,,,,,,,,,,,,,,,-20.712890625,-9.521484375,0,0,1,2.51260185242,,,,,2015_Sep_21_1205,G,facesParametric,5,59.6477426089,
./stim/MorphF10_08_orig.jpg,123,,,,,0,123,123,123,,,,,,,,,,,,,,,,,,,-20.654296875,-9.4921875,0,0,1,0.769363164902,,,,,2015_Sep_21_1205,G,facesParametric,5,59.6477426089,
./stim/MorphF8_05_orig.jpg,124,,,,,0,124,124,124,,,,,,,,,,,,,,,,,,,-20.595703125,-9.462890625,1,0,0,2.31154799461,,,,,2015_Sep_21_1205,G,facesParametric,5,59.6477426089,
./stim/MorphF1_10_orig.jpg,125,,,,,0,125,125,125,,,,,,,,,,,,,,,,,,,-20.478515625,-9.43359375,0,0,1,1.77548694611,,,,,2015_Sep_21_1205,G,facesParametric,5,59.6477426089,
./stim/MorphM2_03_orig.jpg,126,,,,,0,126,126,126,,,,,,,,,,,,,,,,,,,-20.33203125,-9.375,1,0,0,1.70784115791,,,,,2015_Sep_21_1205,G,facesParametric,5,59.6477426089,
./stim/MorphF7_07_orig.jpg,127,,,,,0,127,127,127,,,,,,,,,,,,,,,,,,,-20.33203125,-9.345703125,0,0,1,0.885860919952,,,,,2015_Sep_21_1205,G,facesParametric,5,59.6477426089,
./stim/MorphF8_03_orig.jpg,128,,,,,0,128,128,128,,,,,,,,,,,,,,,,,,,-20.361328125,-9.31640625,1,0,0,1.20539283752,,,,,2015_Sep_21_1205,G,facesParametric,5,59.6477426089,
./stim/MorphM1_01_orig.jpg,129,,,,,0,129,129,129,,,,,,,,,,,,,,,,,,,-20.244140625,-9.345703125,1,0,0,3.51633691788,,,,,2015_Sep_21_1205,G,facesParametric,5,59.6477426089,
./stim/MorphM5_04_orig.jpg,130,,,,,0,130,130,130,,,,,,,,,,,,,,,,,,,-20.185546875,-9.287109375,0,0,1,1.55669903755,,,,,2015_Sep_21_1205,G,facesParametric,5,59.6477426089,
./stim/MorphF7_09_orig.jpg,131,,,,,0,131,131,131,,,,,,,,,,,,,,,,,,,-20.185546875,-9.287109375,0,0,1,0.819629192352,,,,,2015_Sep_21_1205,G,facesParametric,5,59.6477426089,
./stim/MorphF3_10_orig.jpg,132,,,,,0,132,132,132,,,,,,,,,,,,,,,,,,,-20.185546875,-9.2578125,0,0,1,1.10404586792,,,,,2015_Sep_21_1205,G,facesParametric,5,59.6477426089,
./stim/MorphF8_08_orig.jpg,133,,,,,0,133,133,133,,,,,,,,,,,,,,,,,,,-20.21484375,-9.228515625,0,0,1,2.81410503387,,,,,2015_Sep_21_1205,G,facesParametric,5,59.6477426089,
./stim/MorphF3_09_orig.jpg,134,,,,,0,134,134,134,,,,,,,,,,,,,,,,,,,-20.21484375,-9.228515625,0,0,1,1.20576906204,,,,,2015_Sep_21_1205,G,facesParametric,5,59.6477426089,
./stim/MorphM7_02_orig.jpg,135,,,,,0,135,135,135,,,,,,,,,,,,,,,,,,,-20.185546875,-9.169921875,1,0,0,4.1705789566,,,,,2015_Sep_21_1205,G,facesParametric,5,59.6477426089,
./stim/MorphF10_04_orig.jpg,136,,,,,0,136,136,136,,,,,,,,,,,,,,,,,,,-20.185546875,-9.08203125,0,0,1,4.90835905075,,,,,2015_Sep_21_1205,G,facesParametric,5,59.6477426089,
./stim/MorphM4_08_orig.jpg,137,,,,,0,137,137,137,,,,,,,,,,,,,,,,,,,-20.185546875,-9.111328125,0,0,1,2.07552909851,,,,,2015_Sep_21_1205,G,facesParametric,5,59.6477426089,
./stim/MorphM7_05_orig.jpg,138,,,,,0,138,138,138,,,,,,,,,,,,,,,,,,,-20.185546875,-9.140625,0,0,1,3.71911001205,,,,,2015_Sep_21_1205,G,facesParametric,5,59.6477426089,
./stim/MorphF10_01_orig.jpg,139,,,,,0,139,139,139,,,,,,,,,,,,,,,,,,,-20.2734375,-9.287109375,1,0,0,2.41222286224,,,,,2015_Sep_21_1205,G,facesParametric,5,59.6477426089,
./stim/MorphF6_07_orig.jpg,140,,,,,0,140,140,140,,,,,,,,,,,,,,,,,,,-20.33203125,-9.43359375,1,0,0,4.38791108131,,,,,2015_Sep_21_1205,G,facesParametric,5,59.6477426089,
./stim/MorphF2_08_orig.jpg,141,,,,,0,141,141,141,,,,,,,,,,,,,,,,,,,-20.361328125,-9.375,0,0,1,1.02114915848,,,,,2015_Sep_21_1205,G,facesParametric,5,59.6477426089,
./stim/MorphM8_09_orig.jpg,142,,,,,0,142,142,142,,,,,,,,,,,,,,,,,,,-20.361328125,-9.375,0,0,1,1.08740997314,,,,,2015_Sep_21_1205,G,facesParametric,5,59.6477426089,
./stim/MorphF1_00_orig.jpg,143,,,,,0,143,143,143,,,,,,,,,,,,,,,,,,,-20.537109375,-9.404296875,1,0,0,2.5964038372,,,,,2015_Sep_21_1205,G,facesParametric,5,59.6477426089,
./stim/MorphM2_07_orig.jpg,144,,,,,0,144,144,144,,,,,,,,,,,,,,,,,,,-20.478515625,-9.375,1,0,0,4.08838605881,,,,,2015_Sep_21_1205,G,facesParametric,5,59.6477426089,
./stim/MorphF5_09_orig.jpg,145,,,,,0,145,145,145,,,,,,,,,,,,,,,,,,,-20.478515625,-9.404296875,0,0,1,0.970637798309,,,,,2015_Sep_21_1205,G,facesParametric,5,59.6477426089,
./stim/MorphM10_07_orig.jpg,146,,,,,0,146,146,146,,,,,,,,,,,,,,,,,,,-20.390625,-9.375,0,0,1,1.08822393417,,,,,2015_Sep_21_1205,G,facesParametric,5,59.6477426089,
./stim/MorphF1_05_orig.jpg,147,,,,,0,147,147,147,,,,,,,,,,,,,,,,,,,-20.390625,-9.4921875,1,0,0,1.32190513611,,,,,2015_Sep_21_1205,G,facesParametric,5,59.6477426089,
./stim/MorphM3_02_orig.jpg,148,,,,,0,148,148,148,,,,,,,,,,,,,,,,,,,-20.390625,-9.55078125,0,0,1,3.18252182007,,,,,2015_Sep_21_1205,G,facesParametric,5,59.6477426089,
./stim/MorphM1_05_orig.jpg,149,,,,,0,149,149,149,,,,,,,,,,,,,,,,,,,-20.419921875,-9.609375,1,0,0,1.97457909584,,,,,2015_Sep_21_1205,G,facesParametric,5,59.6477426089,
./stim/MorphF10_09_orig.jpg,150,,,,,0,150,150,150,,,,,,,,,,,,,,,,,,,-20.478515625,-9.697265625,0,0,1,1.8925549984,,,,,2015_Sep_21_1205,G,facesParametric,5,59.6477426089,
./stim/MorphF7_01_orig.jpg,151,,,,,0,151,151,151,,,,,,,,,,,,,,,,,,,-20.44921875,-9.697265625,1,0,0,2.226749897,,,,,2015_Sep_21_1205,G,facesParametric,5,59.6477426089,
./stim/MorphF9_00_orig.jpg,152,,,,,0,152,152,152,,,,,,,,,,,,,,,,,,,-20.478515625,-9.78515625,1,0,0,1.70831394196,,,,,2015_Sep_21_1205,G,facesParametric,5,59.6477426089,
./stim/MorphF8_07_orig.jpg,153,,,,,0,153,153,153,,,,,,,,,,,,,,,,,,,-20.419921875,-9.78515625,0,0,1,1.08803296089,,,,,2015_Sep_21_1205,G,facesParametric,5,59.6477426089,
./stim/MorphM3_10_orig.jpg,154,,,,,0,154,154,154,,,,,,,,,,,,,,,,,,,-20.44921875,-9.78515625,0,0,1,1.10394906998,,,,,2015_Sep_21_1205,G,facesParametric,5,59.6477426089,
./stim/MorphM9_02_orig.jpg,155,,,,,0,155,155,155,,,,,,,,,,,,,,,,,,,-20.419921875,-9.78515625,1,0,0,1.08806395531,,,,,2015_Sep_21_1205,G,facesParametric,5,59.6477426089,
./stim/MorphM5_07_orig.jpg,156,,,,,0,156,156,156,,,,,,,,,,,,,,,,,,,-20.361328125,-9.7265625,0,0,1,1.00425601006,,,,,2015_Sep_21_1205,G,facesParametric,5,59.6477426089,
./stim/MorphM10_04_orig.jpg,157,,,,,0,157,157,157,,,,,,,,,,,,,,,,,,,-20.390625,-9.7265625,0,0,1,1.27094697952,,,,,2015_Sep_21_1205,G,facesParametric,5,59.6477426089,
./stim/MorphF4_06_orig.jpg,158,,,,,0,158,158,158,,,,,,,,,,,,,,,,,,,-20.44921875,-9.78515625,0,0,1,3.40094089508,,,,,2015_Sep_21_1205,G,facesParametric,5,59.6477426089,
./stim/MorphM4_07_orig.jpg,159,,,,,0,159,159,159,,,,,,,,,,,,,,,,,,,-20.44921875,-9.78515625,0,0,1,1.27032113075,,,,,2015_Sep_21_1205,G,facesParametric,5,59.6477426089,
./stim/MorphF6_08_orig.jpg,160,,,,,0,160,160,160,,,,,,,,,,,,,,,,,,,-20.44921875,-9.78515625,0,0,1,0.887072086334,,,,,2015_Sep_21_1205,G,facesParametric,5,59.6477426089,
./stim/MorphM2_00_orig.jpg,161,,,,,0,161,161,161,,,,,,,,,,,,,,,,,,,-20.44921875,-9.84375,1,0,0,1.28946399689,,,,,2015_Sep_21_1205,G,facesParametric,5,59.6477426089,
./stim/MorphM5_01_orig.jpg,162,,,,,0,162,162,162,,,,,,,,,,,,,,,,,,,-20.478515625,-9.78515625,0,0,1,0.870478153229,,,,,2015_Sep_21_1205,G,facesParametric,5,59.6477426089,
./stim/MorphF2_04_orig.jpg,163,,,,,0,163,163,163,,,,,,,,,,,,,,,,,,,-20.537109375,-9.873046875,0,0,1,3.33364105225,,,,,2015_Sep_21_1205,G,facesParametric,5,59.6477426089,
./stim/MorphM7_03_orig.jpg,164,,,,,0,164,164,164,,,,,,,,,,,,,,,,,,,-20.654296875,-9.90234375,1,0,0,1.43822097778,,,,,2015_Sep_21_1205,G,facesParametric,5,59.6477426089,
./stim/MorphF5_00_orig.jpg,165,,,,,0,165,165,165,,,,,,,,,,,,,,,,,,,-20.654296875,-9.9609375,1,0,0,1.42337489128,,,,,2015_Sep_21_1205,G,facesParametric,5,59.6477426089,
./stim/MorphF4_05_orig.jpg,166,,,,,0,166,166,166,,,,,,,,,,,,,,,,,,,-20.625,-9.9609375,0,0,1,2.34555387497,,,,,2015_Sep_21_1205,G,facesParametric,5,59.6477426089,
./stim/MorphM5_08_orig.jpg,167,,,,,0,167,167,167,,,,,,,,,,,,,,,,,,,-20.56640625,-10.01953125,0,0,1,0.852281093597,,,,,2015_Sep_21_1205,G,facesParametric,5,59.6477426089,
./stim/MorphM9_07_orig.jpg,168,,,,,0,168,168,168,,,,,,,,,,,,,,,,,,,-21.298828125,-11.25,0,0,1,10.8253221512,,,,,2015_Sep_21_1205,G,facesParametric,5,59.6477426089,
./stim/MorphM5_09_orig.jpg,169,,,,,0,169,169,169,,,,,,,,,,,,,,,,,,,-21.38671875,-11.30859375,0,0,1,0.820092916489,,,,,2015_Sep_21_1205,G,facesParametric,5,59.6477426089,
./stim/MorphF3_06_orig.jpg,170,,,,,0,170,170,170,,,,,,,,,,,,,,,,,,,-21.50390625,-11.337890625,0,0,1,0.971019983292,,,,,2015_Sep_21_1205,G,facesParametric,5,59.6477426089,
./stim/MorphM3_07_orig.jpg,171,,,,,0,171,171,171,,,,,,,,,,,,,,,,,,,-21.62109375,-11.3671875,0,0,1,1.07148194313,,,,,2015_Sep_21_1205,G,facesParametric,5,59.6477426089,
./stim/MorphM2_01_orig.jpg,172,,,,,0,172,172,172,,,,,,,,,,,,,,,,,,,-21.533203125,-11.3671875,1,0,0,1.05366301537,,,,,2015_Sep_21_1205,G,facesParametric,5,59.6477426089,
./stim/MorphF7_03_orig.jpg,173,,,,,0,173,173,173,,,,,,,,,,,,,,,,,,,-21.591796875,-11.3671875,1,0,0,2.81271100044,,,,,2015_Sep_21_1205,G,facesParametric,5,59.6477426089,
./stim/MorphF2_07_orig.jpg,174,,,,,0,174,174,174,,,,,,,,,,,,,,,,,,,-21.5625,-11.396484375,0,0,1,0.870577812195,,,,,2015_Sep_21_1205,G,facesParametric,5,59.6477426089,
./stim/MorphM6_10_orig.jpg,175,,,,,0,175,175,175,,,,,,,,,,,,,,,,,,,-21.650390625,-11.6015625,0,0,1,1.12210392952,,,,,2015_Sep_21_1205,G,facesParametric,5,59.6477426089,
./stim/MorphF7_10_orig.jpg,176,,,,,0,176,176,176,,,,,,,,,,,,,,,,,,,-21.85546875,-11.77734375,0,0,1,4.9761390686,,,,,2015_Sep_21_1205,G,facesParametric,5,59.6477426089,
./stim/MorphF5_08_orig.jpg,177,,,,,0,177,177,177,,,,,,,,,,,,,,,,,,,-21.943359375,-11.865234375,0,0,1,0.819269180298,,,,,2015_Sep_21_1205,G,facesParametric,5,59.6477426089,
./stim/MorphM10_05_orig.jpg,178,,,,,0,178,178,178,,,,,,,,,,,,,,,,,,,-22.001953125,-11.953125,0,0,1,1.82473802567,,,,,2015_Sep_21_1205,G,facesParametric,5,59.6477426089,
./stim/MorphM4_01_orig.jpg,179,,,,,0,179,179,179,,,,,,,,,,,,,,,,,,,-22.08984375,-11.953125,1,0,0,1.15470099449,,,,,2015_Sep_21_1205,G,facesParametric,5,59.6477426089,
./stim/MorphM2_09_orig.jpg,180,,,,,0,180,180,180,,,,,,,,,,,,,,,,,,,-22.08984375,-11.982421875,1,0,0,2.12577009201,,,,,2015_Sep_21_1205,G,facesParametric,5,59.6477426089,
./stim/MorphF10_00_orig.jpg,181,,,,,0,181,181,181,,,,,,,,,,,,,,,,,,,-22.03125,-12.0703125,1,0,0,0.869139909744,,,,,2015_Sep_21_1205,G,facesParametric,5,59.6477426089,
./stim/MorphM8_05_orig.jpg,182,,,,,0,182,182,182,,,,,,,,,,,,,,,,,,,-22.001953125,-12.158203125,0,0,1,1.64109992981,,,,,2015_Sep_21_1205,G,facesParametric,5,59.6477426089,
./stim/MorphM1_10_orig.jpg,183,,,,,0,183,183,183,,,,,,,,,,,,,,,,,,,-22.060546875,-12.1875,0,0,1,2.86451816559,,,,,2015_Sep_21_1205,G,facesParametric,5,59.6477426089,
./stim/MorphM7_08_orig.jpg,184,,,,,0,184,184,184,,,,,,,,,,,,,,,,,,,-22.03125,-12.1875,0,0,1,1.07078003883,,,,,2015_Sep_21_1205,G,facesParametric,5,59.6477426089,
./stim/MorphF5_07_orig.jpg,185,,,,,0,185,185,185,,,,,,,,,,,,,,,,,,,-22.060546875,-12.216796875,0,0,1,1.11971402168,,,,,2015_Sep_21_1205,G,facesParametric,5,59.6477426089,
./stim/MorphM8_03_orig.jpg,186,,,,,0,186,186,186,,,,,,,,,,,,,,,,,,,-22.236328125,-12.392578125,0,0,1,2.26147007942,,,,,2015_Sep_21_1205,G,facesParametric,5,59.6477426089,
./stim/MorphM7_01_orig.jpg,187,,,,,0,187,187,187,,,,,,,,,,,,,,,,,,,-22.236328125,-12.509765625,1,0,0,3.58517694473,,,,,2015_Sep_21_1205,G,facesParametric,5,59.6477426089,
./stim/MorphF6_00_orig.jpg,188,,,,,0,188,188,188,,,,,,,,,,,,,,,,,,,-22.119140625,-12.421875,1,0,0,2.91340994835,,,,,2015_Sep_21_1205,G,facesParametric,5,59.6477426089,
./stim/MorphM8_00_orig.jpg,189,,,,,0,189,189,189,,,,,,,,,,,,,,,,,,,-22.236328125,-12.48046875,0,0,1,2.29264187813,,,,,2015_Sep_21_1205,G,facesParametric,5,59.6477426089,
./stim/MorphM2_05_orig.jpg,190,,,,,0,190,190,190,,,,,,,,,,,,,,,,,,,-21.650390625,-12.3046875,1,0,0,2.66324806213,,,,,2015_Sep_21_1205,G,facesParametric,5,59.6477426089,
./stim/MorphM6_04_orig.jpg,191,,,,,0,191,191,191,,,,,,,,,,,,,,,,,,,-21.50390625,-12.333984375,1,0,0,2.01129293442,,,,,2015_Sep_21_1205,G,facesParametric,5,59.6477426089,
./stim/MorphF10_03_orig.jpg,192,,,,,0,192,192,192,,,,,,,,,,,,,,,,,,,-21.5625,-12.3046875,0,0,1,3.93636512756,,,,,2015_Sep_21_1205,G,facesParametric,5,59.6477426089,
./stim/MorphF4_03_orig.jpg,193,,,,,0,193,193,193,,,,,,,,,,,,,,,,,,,-21.09375,-12.12890625,1,0,0,2.83120203018,,,,,2015_Sep_21_1205,G,facesParametric,5,59.6477426089,
./stim/MorphF6_03_orig.jpg,194,,,,,0,194,194,194,,,,,,,,,,,,,,,,,,,-21.15234375,-12.1875,1,0,0,1.57299399376,,,,,2015_Sep_21_1205,G,facesParametric,5,59.6477426089,
./stim/MorphF3_02_orig.jpg,195,,,,,0,195,195,195,,,,,,,,,,,,,,,,,,,-21.2109375,-12.1875,1,0,0,0.971019983292,,,,,2015_Sep_21_1205,G,facesParametric,5,59.6477426089,
./stim/MorphM8_02_orig.jpg,196,,,,,0,196,196,196,,,,,,,,,,,,,,,,,,,-21.09375,-12.24609375,0,0,1,2.37750601768,,,,,2015_Sep_21_1205,G,facesParametric,5,59.6477426089,
./stim/MorphF8_10_orig.jpg,197,,,,,0,197,197,197,,,,,,,,,,,,,,,,,,,-21.26953125,-12.24609375,0,0,1,2.52998900414,,,,,2015_Sep_21_1205,G,facesParametric,5,59.6477426089,
./stim/MorphF7_02_orig.jpg,198,,,,,0,198,198,198,,,,,,,,,,,,,,,,,,,-21.328125,-12.3046875,1,0,0,1.69131183624,,,,,2015_Sep_21_1205,G,facesParametric,5,59.6477426089,
./stim/MorphF4_09_orig.jpg,199,,,,,0,199,199,199,,,,,,,,,,,,,,,,,,,-21.38671875,-12.24609375,0,0,1,0.903737068176,,,,,2015_Sep_21_1205,G,facesParametric,5,59.6477426089,
./stim/MorphM10_02_orig.jpg,200,,,,,0,200,200,200,,,,,,,,,,,,,,,,,,,-21.4453125,-12.333984375,1,0,0,3.19979000092,,,,,2015_Sep_21_1205,G,facesParametric,5,59.6477426089,
./stim/MorphF7_08_orig.jpg,201,,,,,0,201,201,201,,,,,,,,,,,,,,,,,,,-21.2109375,-12.333984375,0,0,1,2.41000103951,,,,,2015_Sep_21_1205,G,facesParametric,5,59.6477426089,
./stim/MorphF1_03_orig.jpg,202,,,,,0,202,202,202,,,,,,,,,,,,,,,,,,,-21.2109375,-12.275390625,1,0,0,1.79209399223,,,,,2015_Sep_21_1205,G,facesParametric,5,59.6477426089,
./stim/MorphF3_08_orig.jpg,203,,,,,0,203,203,203,,,,,,,,,,,,,,,,,,,-21.240234375,-12.421875,0,0,1,1.23896598816,,,,,2015_Sep_21_1205,G,facesParametric,5,59.6477426089,
./stim/MorphF4_07_orig.jpg,204,,,,,0,204,204,204,,,,,,,,,,,,,,,,,,,-20.9765625,-12.333984375,0,0,1,2.27719807625,,,,,2015_Sep_21_1205,G,facesParametric,5,59.6477426089,
./stim/MorphF6_04_orig.jpg,205,,,,,0,205,205,205,,,,,,,,,,,,,,,,,,,-19.86328125,-11.6015625,1,0,0,2.0600399971,,,,,2015_Sep_21_1205,G,facesParametric,5,59.6477426089,
./stim/MorphF9_02_orig.jpg,206,,,,,0,206,206,206,,,,,,,,,,,,,,,,,,,-19.599609375,-11.484375,1,0,0,1.53898715973,,,,,2015_Sep_21_1205,G,facesParametric,5,59.6477426089,
./stim/MorphM4_02_orig.jpg,207,,,,,0,207,207,207,,,,,,,,,,,,,,,,,,,-19.482421875,-11.396484375,1,0,0,1.42344713211,,,,,2015_Sep_21_1205,G,facesParametric,5,59.6477426089,
./stim/MorphM3_05_orig.jpg,208,,,,,0,208,208,208,,,,,,,,,,,,,,,,,,,-19.27734375,-11.015625,1,0,0,2.12765908241,,,,,2015_Sep_21_1205,G,facesParametric,5,59.6477426089,
./stim/MorphF4_01_orig.jpg,209,,,,,0,209,209,209,,,,,,,,,,,,,,,,,,,-19.130859375,-10.8984375,0,0,1,2.64660787582,,,,,2015_Sep_21_1205,G,facesParametric,5,59.6477426089,
./stim/MorphM4_00_orig.jpg,210,,,,,0,210,210,210,,,,,,,,,,,,,,,,,,,-19.130859375,-10.78125,1,0,0,1.23834896088,,,,,2015_Sep_21_1205,G,facesParametric,5,59.6477426089,
./stim/MorphF7_04_orig.jpg,211,,,,,0,211,211,211,,,,,,,,,,,,,,,,,,,-19.21875,-10.634765625,1,0,0,2.71398997307,,,,,2015_Sep_21_1205,G,facesParametric,5,59.6477426089,
./stim/MorphM8_07_orig.jpg,212,,,,,0,212,212,212,,,,,,,,,,,,,,,,,,,-18.984375,-10.517578125,0,0,1,1.40668487549,,,,,2015_Sep_21_1205,G,facesParametric,5,59.6477426089,
./stim/MorphM2_10_orig.jpg,213,,,,,0,213,213,213,,,,,,,,,,,,,,,,,,,-18.57421875,-10.1953125,0,0,1,1.07137203217,,,,,2015_Sep_21_1205,G,facesParametric,5,59.6477426089,
./stim/MorphM3_00_orig.jpg,214,,,,,0,214,214,214,,,,,,,,,,,,,,,,,,,-18.28125,-10.166015625,1,0,0,4.03774094582,,,,,2015_Sep_21_1205,G,facesParametric,5,59.6477426089,
./stim/MorphM6_06_orig.jpg,215,,,,,0,215,215,215,,,,,,,,,,,,,,,,,,,-18.193359375,-10.01953125,1,0,0,1.89263701439,,,,,2015_Sep_21_1205,G,facesParametric,5,59.6477426089,
./stim/MorphM4_03_orig.jpg,216,,,,,0,216,216,216,,,,,,,,,,,,,,,,,,,-17.98828125,-9.9609375,1,0,0,1.17063093185,,,,,2015_Sep_21_1205,G,facesParametric,5,59.6477426089,
./stim/MorphM9_09_orig.jpg,217,,,,,0,217,217,217,,,,,,,,,,,,,,,,,,,-17.900390625,-9.873046875,0,0,1,1.05456590652,,,,,2015_Sep_21_1205,G,facesParametric,5,59.6477426089,
./stim/MorphF6_01_orig.jpg,218,,,,,0,218,218,218,,,,,,,,,,,,,,,,,,,-17.607421875,-9.90234375,1,0,0,1.00410103798,,,,,2015_Sep_21_1205,G,facesParametric,5,59.6477426089,
./stim/MorphM7_10_orig.jpg,219,,,,,0,219,219,219,,,,,,,,,,,,,,,,,,,-17.34375,-10.048828125,0,0,1,3.33401584625,,,,,2015_Sep_21_1205,G,facesParametric,5,59.6477426089,
,,,,,,,,,,,,,,,,,,,,,,,,,,,,,,,,,,return,58.4911549091,,,2015_Sep_21_1205,G,facesParametric,5,59.6477426089,
./stim/MorphM9_00_orig.jpg,0,,,,,,,,,0,0,0,0,,,,,,,,,,,,,,,-23.14453125,8.701171875,1,0,0,3.96462202072,,,,,2015_Sep_21_1205,G,facesParametric,5,59.6477426089,
./stim/MorphM3_10_orig.jpg,1,,,,,,,,,0,1,1,1,,,,,,,,,,,,,,,-22.587890625,9.462890625,0,0,1,1.03755116463,,,,,2015_Sep_21_1205,G,facesParametric,5,59.6477426089,
./stim/MorphF9_01_orig.jpg,2,,,,,,,,,0,2,2,2,,,,,,,,,,,,,,,-22.55859375,9.55078125,1,0,0,2.15850710869,,,,,2015_Sep_21_1205,G,facesParametric,5,59.6477426089,
./stim/MorphF8_06_orig.jpg,3,,,,,,,,,0,3,3,3,,,,,,,,,,,,,,,-22.55859375,9.55078125,0,0,1,0.903934001923,,,,,2015_Sep_21_1205,G,facesParametric,5,59.6477426089,
./stim/MorphM1_04_orig.jpg,4,,,,,,,,,0,4,4,4,,,,,,,,,,,,,,,-22.55859375,9.580078125,0,0,1,3.03168702126,,,,,2015_Sep_21_1205,G,facesParametric,5,59.6477426089,
./stim/MorphF8_05_orig.jpg,5,,,,,,,,,0,5,5,5,,,,,,,,,,,,,,,-22.529296875,9.609375,0,0,1,1.77512907982,,,,,2015_Sep_21_1205,G,facesParametric,5,59.6477426089,
./stim/MorphM9_05_orig.jpg,6,,,,,,,,,0,6,6,6,,,,,,,,,,,,,,,-22.529296875,9.609375,0,0,1,1.03782200813,,,,,2015_Sep_21_1205,G,facesParametric,5,59.6477426089,
./stim/MorphF3_08_orig.jpg,7,,,,,,,,,0,7,7,7,,,,,,,,,,,,,,,-22.55859375,9.638671875,0,0,1,0.887130022049,,,,,2015_Sep_21_1205,G,facesParametric,5,59.6477426089,
./stim/MorphF10_09_orig.jpg,8,,,,,,,,,0,8,8,8,,,,,,,,,,,,,,,-22.55859375,9.638671875,0,0,1,7.79184103012,,,,,2015_Sep_21_1205,G,facesParametric,5,59.6477426089,
./stim/MorphF8_03_orig.jpg,9,,,,,,,,,0,9,9,9,,,,,,,,,,,,,,,-22.763671875,9.55078125,1,0,0,2.02683997154,,,,,2015_Sep_21_1205,G,facesParametric,5,59.6477426089,
./stim/MorphM8_01_orig.jpg,10,,,,,,,,,0,10,10,10,,,,,,,,,,,,,,,-22.763671875,9.55078125,0,0,1,1.10505700111,,,,,2015_Sep_21_1205,G,facesParametric,5,59.6477426089,
./stim/MorphM7_01_orig.jpg,11,,,,,,,,,0,11,11,11,,,,,,,,,,,,,,,-22.763671875,9.55078125,1,0,0,0.985482931137,,,,,2015_Sep_21_1205,G,facesParametric,5,59.6477426089,
./stim/MorphM5_07_orig.jpg,12,,,,,,,,,0,12,12,12,,,,,,,,,,,,,,,-22.763671875,9.55078125,0,0,1,1.05479598045,,,,,2015_Sep_21_1205,G,facesParametric,5,59.6477426089,
./stim/MorphF10_01_orig.jpg,13,,,,,,,,,0,13,13,13,,,,,,,,,,,,,,,-22.763671875,9.55078125,1,0,0,3.11619400978,,,,,2015_Sep_21_1205,G,facesParametric,5,59.6477426089,
./stim/MorphF2_10_orig.jpg,14,,,,,,,,,0,14,14,14,,,,,,,,,,,,,,,-22.763671875,9.55078125,0,0,1,1.08857297897,,,,,2015_Sep_21_1205,G,facesParametric,5,59.6477426089,
./stim/MorphF9_00_orig.jpg,15,,,,,,,,,0,15,15,15,,,,,,,,,,,,,,,-22.763671875,9.55078125,1,0,0,1.3557240963,,,,,2015_Sep_21_1205,G,facesParametric,5,59.6477426089,
./stim/MorphM5_03_orig.jpg,16,,,,,,,,,0,16,16,16,,,,,,,,,,,,,,,-22.763671875,9.55078125,0,0,1,2.24459385872,,,,,2015_Sep_21_1205,G,facesParametric,5,59.6477426089,
./stim/MorphF3_07_orig.jpg,17,,,,,,,,,0,17,17,17,,,,,,,,,,,,,,,-22.763671875,9.55078125,0,0,1,1.74146604538,,,,,2015_Sep_21_1205,G,facesParametric,5,59.6477426089,
./stim/MorphM8_06_orig.jpg,18,,,,,,,,,0,18,18,18,,,,,,,,,,,,,,,-23.14453125,8.671875,0,0,1,5.32829093933,,,,,2015_Sep_21_1205,G,facesParametric,5,59.6477426089,
./stim/MorphM7_02_orig.jpg,19,,,,,,,,,0,19,19,19,,,,,,,,,,,,,,,-22.763671875,-0.87890625,1,0,0,0.969744205475,,,,,2015_Sep_21_1205,G,facesParametric,5,59.6477426089,
./stim/MorphF9_03_orig.jpg,20,,,,,,,,,0,20,20,20,,,,,,,,,,,,,,,-21.6796875,-0.849609375,1,0,0,0.886043071747,,,,,2015_Sep_21_1205,G,facesParametric,5,59.6477426089,
./stim/MorphM1_05_orig.jpg,21,,,,,,,,,0,21,21,21,,,,,,,,,,,,,,,-21.943359375,-0.5859375,0,0,1,2.02520012856,,,,,2015_Sep_21_1205,G,facesParametric,5,59.6477426089,
./stim/MorphM3_01_orig.jpg,22,,,,,,,,,0,22,22,22,,,,,,,,,,,,,,,-21.97265625,-0.5859375,1,0,0,2.41070699692,,,,,2015_Sep_21_1205,G,facesParametric,5,59.6477426089,
./stim/MorphF5_01_orig.jpg,23,,,,,,,,,0,23,23,23,,,,,,,,,,,,,,,-20.91796875,-2.9296875,1,0,0,7.15507984161,,,,,2015_Sep_21_1205,G,facesParametric,5,59.6477426089,
./stim/MorphM7_04_orig.jpg,24,,,,,,,,,0,24,24,24,,,,,,,,,,,,,,,-20.80078125,-3.134765625,0,0,1,5.44575405121,,,,,2015_Sep_21_1205,G,facesParametric,5,59.6477426089,
./stim/MorphM9_03_orig.jpg,25,,,,,,,,,0,25,25,25,,,,,,,,,,,,,,,-20.888671875,-3.134765625,1,0,0,2.21088981628,,,,,2015_Sep_21_1205,G,facesParametric,5,59.6477426089,
./stim/MorphF2_06_orig.jpg,26,,,,,,,,,0,26,26,26,,,,,,,,,,,,,,,-20.91796875,-3.134765625,0,0,1,1.4065489769,,,,,2015_Sep_21_1205,G,facesParametric,5,59.6477426089,
./stim/MorphF7_10_orig.jpg,27,,,,,,,,,0,27,27,27,,,,,,,,,,,,,,,-20.91796875,-3.134765625,0,0,1,1.20609998703,,,,,2015_Sep_21_1205,G,facesParametric,5,59.6477426089,
./stim/MorphF6_03_orig.jpg,28,,,,,,,,,0,28,28,28,,,,,,,,,,,,,,,-20.947265625,-3.1640625,1,0,0,1.16935300827,,,,,2015_Sep_21_1205,G,facesParametric,5,59.6477426089,
./stim/MorphM3_05_orig.jpg,29,,,,,,,,,0,29,29,29,,,,,,,,,,,,,,,-20.9765625,-3.193359375,1,0,0,2.56337594986,,,,,2015_Sep_21_1205,G,facesParametric,5,59.6477426089,
./stim/MorphF10_08_orig.jpg,30,,,,,,,,,0,30,30,30,,,,,,,,,,,,,,,-20.9765625,-3.251953125,0,0,1,1.07102513313,,,,,2015_Sep_21_1205,G,facesParametric,5,59.6477426089,
./stim/MorphF1_04_orig.jpg,31,,,,,,,,,0,31,31,31,,,,,,,,,,,,,,,-21.03515625,-3.33984375,1,0,0,1.55767607689,,,,,2015_Sep_21_1205,G,facesParametric,5,59.6477426089,
./stim/MorphM8_00_orig.jpg,32,,,,,,,,,0,32,32,32,,,,,,,,,,,,,,,-21.2109375,-3.22265625,0,0,1,3.29843187332,,,,,2015_Sep_21_1205,G,facesParametric,5,59.6477426089,
./stim/MorphM2_10_orig.jpg,33,,,,,,,,,0,33,33,33,,,,,,,,,,,,,,,-21.2109375,-3.22265625,0,0,1,0.936891078949,,,,,2015_Sep_21_1205,G,facesParametric,5,59.6477426089,
./stim/MorphM8_04_orig.jpg,34,,,,,,,,,0,34,34,34,,,,,,,,,,,,,,,-21.2109375,-3.22265625,0,0,1,1.30415892601,,,,,2015_Sep_21_1205,G,facesParametric,5,59.6477426089,
./stim/MorphF2_07_orig.jpg,35,,,,,,,,,0,35,35,35,,,,,,,,,,,,,,,-21.2109375,-3.22265625,0,0,1,1.35479283333,,,,,2015_Sep_21_1205,G,facesParametric,5,59.6477426089,
./stim/MorphF5_02_orig.jpg,36,,,,,,,,,0,36,36,36,,,,,,,,,,,,,,,-22.060546875,-1.669921875,1,0,0,5.16032600403,,,,,2015_Sep_21_1205,G,facesParametric,5,59.6477426089,
./stim/MorphM6_05_orig.jpg,37,,,,,,,,,0,37,37,37,,,,,,,,,,,,,,,-22.001953125,-1.494140625,1,0,0,3.11673879623,,,,,2015_Sep_21_1205,G,facesParametric,5,59.6477426089,
./stim/MorphF10_05_orig.jpg,38,,,,,,,,,0,38,38,38,,,,,,,,,,,,,,,-21.97265625,-1.46484375,0,0,1,0.834516048431,,,,,2015_Sep_21_1205,G,facesParametric,5,59.6477426089,
./stim/MorphF5_06_orig.jpg,39,,,,,,,,,0,39,39,39,,,,,,,,,,,,,,,-21.97265625,-1.46484375,0,0,1,1.49052476883,,,,,2015_Sep_21_1205,G,facesParametric,5,59.6477426089,
./stim/MorphM2_00_orig.jpg,40,,,,,,,,,0,40,40,40,,,,,,,,,,,,,,,-19.62890625,-13.154296875,1,0,0,1.27204418182,,,,,2015_Sep_21_1205,G,facesParametric,5,59.6477426089,
./stim/MorphM1_06_orig.jpg,41,,,,,,,,,0,41,41,41,,,,,,,,,,,,,,,-19.62890625,-12.685546875,0,0,1,0.852706193924,,,,,2015_Sep_21_1205,G,facesParametric,5,59.6477426089,
./stim/MorphF6_08_orig.jpg,42,,,,,,,,,0,42,42,42,,,,,,,,,,,,,,,-19.62890625,-12.685546875,0,0,1,1.02093601227,,,,,2015_Sep_21_1205,G,facesParametric,5,59.6477426089,
./stim/MorphF9_10_orig.jpg,43,,,,,,,,,0,43,43,43,,,,,,,,,,,,,,,-19.658203125,-12.36328125,0,0,1,1.00384807587,,,,,2015_Sep_21_1205,G,facesParametric,5,59.6477426089,
./stim/MorphF1_06_orig.jpg,44,,,,,,,,,0,44,44,44,,,,,,,,,,,,,,,-19.658203125,-12.36328125,0,0,1,1.10512804985,,,,,2015_Sep_21_1205,G,facesParametric,5,59.6477426089,
./stim/MorphM2_08_orig.jpg,45,,,,,,,,,0,45,45,45,,,,,,,,,,,,,,,-19.658203125,-12.333984375,0,0,1,1.35424685478,,,,,2015_Sep_21_1205,G,facesParametric,5,59.6477426089,
./stim/MorphF7_01_orig.jpg,46,,,,,,,,,0,46,46,46,,,,,,,,,,,,,,,-19.51171875,-12.158203125,1,0,0,4.8253030777,,,,,2015_Sep_21_1205,G,facesParametric,5,59.6477426089,
./stim/MorphF3_10_orig.jpg,47,,,,,,,,,0,47,47,47,,,,,,,,,,,,,,,-19.482421875,-12.01171875,0,0,1,1.20607185364,,,,,2015_Sep_21_1205,G,facesParametric,5,59.6477426089,
./stim/MorphF4_04_orig.jpg,48,,,,,,,,,0,48,48,48,,,,,,,,,,,,,,,-19.482421875,-11.982421875,0,0,1,1.5049829483,,,,,2015_Sep_21_1205,G,facesParametric,5,59.6477426089,
./stim/MorphM2_01_orig.jpg,49,,,,,,,,,0,49,49,49,,,,,,,,,,,,,,,-19.482421875,-11.982421875,1,0,0,3.50015115738,,,,,2015_Sep_21_1205,G,facesParametric,5,59.6477426089,
./stim/MorphF8_02_orig.jpg,50,,,,,,,,,0,50,50,50,,,,,,,,,,,,,,,-19.482421875,-11.982421875,1,0,0,0.937112092972,,,,,2015_Sep_21_1205,G,facesParametric,5,59.6477426089,
./stim/MorphF5_10_orig.jpg,51,,,,,,,,,0,51,51,51,,,,,,,,,,,,,,,-19.482421875,-11.865234375,0,0,1,0.954011917114,,,,,2015_Sep_21_1205,G,facesParametric,5,59.6477426089,
./stim/MorphM10_09_orig.jpg,52,,,,,,,,,0,52,52,52,,,,,,,,,,,,,,,-19.482421875,-11.748046875,0,0,1,0.887261152267,,,,,2015_Sep_21_1205,G,facesParametric,5,59.6477426089,
./stim/MorphM3_09_orig.jpg,53,,,,,,,,,0,53,53,53,,,,,,,,,,,,,,,-19.482421875,-11.748046875,0,0,1,1.70826482773,,,,,2015_Sep_21_1205,G,facesParametric,5,59.6477426089,
./stim/MorphM2_05_orig.jpg,54,,,,,,,,,0,54,54,54,,,,,,,,,,,,,,,-19.5703125,-12.158203125,0,0,1,4.1048810482,,,,,2015_Sep_21_1205,G,facesParametric,5,59.6477426089,
./stim/MorphF3_06_orig.jpg,55,,,,,,,,,0,55,55,55,,,,,,,,,,,,,,,-19.599609375,-11.54296875,0,0,1,0.987535953522,,,,,2015_Sep_21_1205,G,facesParametric,5,59.6477426089,
./stim/MorphM6_02_orig.jpg,56,,,,,,,,,0,56,56,56,,,,,,,,,,,,,,,-12.978515625,-6.064453125,1,0,0,2.49625992775,,,,,2015_Sep_21_1205,G,facesParametric,5,59.6477426089,
./stim/MorphF2_00_orig.jpg,57,,,,,,,,,0,57,57,57,,,,,,,,,,,,,,,-12.978515625,-6.005859375,1,0,0,1.05431699753,,,,,2015_Sep_21_1205,G,facesParametric,5,59.6477426089,
./stim/MorphM1_01_orig.jpg,58,,,,,,,,,0,58,58,58,,,,,,,,,,,,,,,-12.978515625,-6.005859375,1,0,0,2.2948589325,,,,,2015_Sep_21_1205,G,facesParametric,5,59.6477426089,
./stim/MorphM5_10_orig.jpg,59,,,,,,,,,0,59,59,59,,,,,,,,,,,,,,,-12.919921875,-5.830078125,0,0,1,1.00446200371,,,,,2015_Sep_21_1205,G,facesParametric,5,59.6477426089,
./stim/MorphM6_01_orig.jpg,60,,,,,,,,,0,60,60,60,,,,,,,,,,,,,,,-12.94921875,-5.595703125,1,0,0,4.05263805389,,,,,2015_Sep_21_1205,G,facesParametric,5,59.6477426089,
./stim/MorphF1_09_orig.jpg,61,,,,,,,,,0,61,61,61,,,,,,,,,,,,,,,-12.94921875,-5.595703125,0,0,1,0.953084945679,,,,,2015_Sep_21_1205,G,facesParametric,5,59.6477426089,
./stim/MorphM5_09_orig.jpg,62,,,,,,,,,0,62,62,62,,,,,,,,,,,,,,,-19.189453125,-6.591796875,0,0,1,1.85842084885,,,,,2015_Sep_21_1205,G,facesParametric,5,59.6477426089,
./stim/MorphM8_02_orig.jpg,63,,,,,,,,,0,63,63,63,,,,,,,,,,,,,,,-18.662109375,-6.73828125,0,0,1,4.64122796059,,,,,2015_Sep_21_1205,G,facesParametric,5,59.6477426089,
./stim/MorphM6_03_orig.jpg,64,,,,,,,,,0,64,64,64,,,,,,,,,,,,,,,-18.662109375,-6.73828125,1,0,0,1.38987493515,,,,,2015_Sep_21_1205,G,facesParametric,5,59.6477426089,
./stim/MorphF3_01_orig.jpg,65,,,,,,,,,0,65,65,65,,,,,,,,,,,,,,,-18.6328125,-6.796875,1,0,0,1.54072785378,,,,,2015_Sep_21_1205,G,facesParametric,5,59.6477426089,
./stim/MorphF7_07_orig.jpg,66,,,,,,,,,0,66,66,66,,,,,,,,,,,,,,,-18.6328125,-6.796875,0,0,1,1.30586290359,,,,,2015_Sep_21_1205,G,facesParametric,5,59.6477426089,
./stim/MorphF2_03_orig.jpg,67,,,,,,,,,0,67,67,67,,,,,,,,,,,,,,,-18.6328125,-6.796875,1,0,0,1.74104213715,,,,,2015_Sep_21_1205,G,facesParametric,5,59.6477426089,
./stim/MorphM5_02_orig.jpg,68,,,,,,,,,0,68,68,68,,,,,,,,,,,,,,,-18.6328125,-6.796875,0,0,1,0.904109954834,,,,,2015_Sep_21_1205,G,facesParametric,5,59.6477426089,
./stim/MorphF4_10_orig.jpg,69,,,,,,,,,0,69,69,69,,,,,,,,,,,,,,,-18.6328125,-6.796875,0,0,1,0.803202867508,,,,,2015_Sep_21_1205,G,facesParametric,5,59.6477426089,
./stim/MorphF1_00_orig.jpg,70,,,,,,,,,0,70,70,70,,,,,,,,,,,,,,,-18.6328125,-6.796875,1,0,0,1.39000892639,,,,,2015_Sep_21_1205,G,facesParametric,5,59.6477426089,
./stim/MorphM4_06_orig.jpg,71,,,,,,,,,0,71,71,71,,,,,,,,,,,,,,,-18.603515625,-6.826171875,0,0,1,1.08809685707,,,,,2015_Sep_21_1205,G,facesParametric,5,59.6477426089,
./stim/MorphM1_00_orig.jpg,72,,,,,,,,,0,72,72,72,,,,,,,,,,,,,,,-18.603515625,-6.826171875,1,0,0,5.09361982346,,,,,2015_Sep_21_1205,G,facesParametric,5,59.6477426089,
./stim/MorphM10_00_orig.jpg,73,,,,,,,,,0,73,73,73,,,,,,,,,,,,,,,-18.57421875,-6.85546875,1,0,0,1.57417702675,,,,,2015_Sep_21_1205,G,facesParametric,5,59.6477426089,
./stim/MorphF6_07_orig.jpg,74,,,,,,,,,0,74,74,74,,,,,,,,,,,,,,,-18.45703125,-6.826171875,0,0,1,1.05484390259,,,,,2015_Sep_21_1205,G,facesParametric,5,59.6477426089,
./stim/MorphF10_07_orig.jpg,75,,,,,,,,,0,75,75,75,,,,,,,,,,,,,,,-18.427734375,-6.85546875,0,0,1,0.769492864609,,,,,2015_Sep_21_1205,G,facesParametric,5,59.6477426089,
./stim/MorphM10_07_orig.jpg,76,,,,,,,,,0,76,76,76,,,,,,,,,,,,,,,-18.369140625,-6.884765625,0,0,1,1.60615491867,,,,,2015_Sep_21_1205,G,facesParametric,5,59.6477426089,
./stim/MorphF6_09_orig.jpg,77,,,,,,,,,0,77,77,77,,,,,,,,,,,,,,,-18.369140625,-6.884765625,0,0,1,0.803447961807,,,,,2015_Sep_21_1205,G,facesParametric,5,59.6477426089,
./stim/MorphM10_05_orig.jpg,78,,,,,,,,,0,78,78,78,,,,,,,,,,,,,,,-18.369140625,-6.884765625,0,0,1,1.87569189072,,,,,2015_Sep_21_1205,G,facesParametric,5,59.6477426089,
./stim/MorphF3_09_orig.jpg,79,,,,,,,,,0,79,79,79,,,,,,,,,,,,,,,-18.369140625,-6.884765625,0,0,1,0.752876996994,,,,,2015_Sep_21_1205,G,facesParametric,5,59.6477426089,
./stim/MorphF1_02_orig.jpg,80,,,,,,,,,0,80,80,80,,,,,,,,,,,,,,,-18.28125,-6.943359375,1,0,0,3.61862802505,,,,,2015_Sep_21_1205,G,facesParametric,5,59.6477426089,
./stim/MorphM1_08_orig.jpg,81,,,,,,,,,0,81,81,81,,,,,,,,,,,,,,,-18.28125,-6.943359375,0,0,1,1.72541308403,,,,,2015_Sep_21_1205,G,facesParametric,5,59.6477426089,
./stim/MorphM3_04_orig.jpg,82,,,,,,,,,0,82,82,82,,,,,,,,,,,,,,,-18.28125,-6.943359375,1,0,0,1.75777792931,,,,,2015_Sep_21_1205,G,facesParametric,5,59.6477426089,
./stim/MorphM10_10_orig.jpg,83,,,,,,,,,0,83,83,83,,,,,,,,,,,,,,,-18.28125,-6.943359375,0,0,1,0.819865942001,,,,,2015_Sep_21_1205,G,facesParametric,5,59.6477426089,
./stim/MorphF5_04_orig.jpg,84,,,,,,,,,0,84,84,84,,,,,,,,,,,,,,,-18.33984375,-6.943359375,1,0,0,1.45446705818,,,,,2015_Sep_21_1205,G,facesParametric,5,59.6477426089,
./stim/MorphF3_05_orig.jpg,85,,,,,,,,,0,85,85,85,,,,,,,,,,,,,,,-18.33984375,-6.943359375,0,0,1,1.52382588387,,,,,2015_Sep_21_1205,G,facesParametric,5,59.6477426089,
./stim/MorphM6_10_orig.jpg,86,,,,,,,,,0,86,86,86,,,,,,,,,,,,,,,-18.33984375,-6.943359375,0,0,1,0.868949890137,,,,,2015_Sep_21_1205,G,facesParametric,5,59.6477426089,
./stim/MorphF6_06_orig.jpg,87,,,,,,,,,0,87,87,87,,,,,,,,,,,,,,,-18.28125,-6.943359375,0,0,1,3.09820199013,,,,,2015_Sep_21_1205,G,facesParametric,5,59.6477426089,
./stim/MorphF5_03_orig.jpg,88,,,,,,,,,0,88,88,88,,,,,,,,,,,,,,,-18.310546875,-6.9140625,1,0,0,2.44393706322,,,,,2015_Sep_21_1205,G,facesParametric,5,59.6477426089,
./stim/MorphM6_09_orig.jpg,89,,,,,,,,,0,89,89,89,,,,,,,,,,,,,,,-18.369140625,-6.85546875,1,0,0,5.36207294464,,,,,2015_Sep_21_1205,G,facesParametric,5,59.6477426089,
./stim/MorphF4_06_orig.jpg,90,,,,,,,,,0,90,90,90,,,,,,,,,,,,,,,-18.369140625,-6.85546875,0,0,1,1.54063105583,,,,,2015_Sep_21_1205,G,facesParametric,5,59.6477426089,
./stim/MorphF1_08_orig.jpg,91,,,,,,,,,0,91,91,91,,,,,,,,,,,,,,,-18.3984375,-6.826171875,0,0,1,1.38875102997,,,,,2015_Sep_21_1205,G,facesParametric,5,59.6477426089,
./stim/MorphF5_00_orig.jpg,92,,,,,,,,,0,92,92,92,,,,,,,,,,,,,,,-18.3984375,-6.73828125,1,0,0,1.50686907768,,,,,2015_Sep_21_1205,G,facesParametric,5,59.6477426089,
./stim/MorphM1_10_orig.jpg,93,,,,,,,,,0,93,93,93,,,,,,,,,,,,,,,-18.3984375,-6.73828125,0,0,1,1.22339200974,,,,,2015_Sep_21_1205,G,facesParametric,5,59.6477426089,
./stim/MorphM10_08_orig.jpg,94,,,,,,,,,0,94,94,94,,,,,,,,,,,,,,,-18.3984375,-6.73828125,0,0,1,5.05827379227,,,,,2015_Sep_21_1205,G,facesParametric,5,59.6477426089,
./stim/MorphF4_00_orig.jpg,95,,,,,,,,,0,95,95,95,,,,,,,,,,,,,,,-18.3984375,-6.73828125,1,0,0,1.42212796211,,,,,2015_Sep_21_1205,G,facesParametric,5,59.6477426089,
./stim/MorphM3_08_orig.jpg,96,,,,,,,,,0,96,96,96,,,,,,,,,,,,,,,-18.3984375,-6.73828125,0,0,1,1.12097096443,,,,,2015_Sep_21_1205,G,facesParametric,5,59.6477426089,
./stim/MorphF7_09_orig.jpg,97,,,,,,,,,0,97,97,97,,,,,,,,,,,,,,,-18.3984375,-6.73828125,0,0,1,0.953611850739,,,,,2015_Sep_21_1205,G,facesParametric,5,59.6477426089,
./stim/MorphF5_05_orig.jpg,98,,,,,,,,,0,98,98,98,,,,,,,,,,,,,,,-18.3984375,-6.73828125,0,0,1,2.5800011158,,,,,2015_Sep_21_1205,G,facesParametric,5,59.6477426089,
./stim/MorphM4_03_orig.jpg,99,,,,,,,,,0,99,99,99,,,,,,,,,,,,,,,-18.369140625,-6.767578125,0,0,1,2.27680182457,,,,,2015_Sep_21_1205,G,facesParametric,5,59.6477426089,
./stim/MorphF8_10_orig.jpg,100,,,,,,,,,0,100,100,100,,,,,,,,,,,,,,,-18.33984375,-6.796875,0,0,1,1.10518312454,,,,,2015_Sep_21_1205,G,facesParametric,5,59.6477426089,
./stim/MorphF1_03_orig.jpg,101,,,,,,,,,0,101,101,101,,,,,,,,,,,,,,,-18.33984375,-6.796875,1,0,0,2.3950688839,,,,,2015_Sep_21_1205,G,facesParametric,5,59.6477426089,
./stim/MorphM9_04_orig.jpg,102,,,,,,,,,0,102,102,102,,,,,,,,,,,,,,,-18.310546875,-6.767578125,1,0,0,1.59076905251,,,,,2015_Sep_21_1205,G,facesParametric,5,59.6477426089,
./stim/MorphM7_06_orig.jpg,103,,,,,,,,,0,103,103,103,,,,,,,,,,,,,,,-18.310546875,-6.767578125,0,0,1,0.8872590065,,,,,2015_Sep_21_1205,G,facesParametric,5,59.6477426089,
./stim/MorphM3_00_orig.jpg,104,,,,,,,,,0,104,104,104,,,,,,,,,,,,,,,-18.28125,-6.73828125,1,0,0,2.41199493408,,,,,2015_Sep_21_1205,G,facesParametric,5,59.6477426089,
./stim/MorphF9_08_orig.jpg,105,,,,,,,,,0,105,105,105,,,,,,,,,,,,,,,-18.28125,-6.73828125,0,0,1,1.03737711906,,,,,2015_Sep_21_1205,G,facesParametric,5,59.6477426089,
./stim/MorphM1_07_orig.jpg,106,,,,,,,,,0,106,106,106,,,,,,,,,,,,,,,-18.33984375,-6.73828125,0,0,1,1.37299203873,,,,,2015_Sep_21_1205,G,facesParametric,5,59.6477426089,
./stim/MorphM9_06_orig.jpg,107,,,,,,,,,0,107,107,107,,,,,,,,,,,,,,,-18.515625,-6.9140625,1,0,0,1.75889801979,,,,,2015_Sep_21_1205,G,facesParametric,5,59.6477426089,
./stim/MorphF7_06_orig.jpg,108,,,,,,,,,0,108,108,108,,,,,,,,,,,,,,,-18.603515625,-6.9140625,1,0,0,4.7414791584,,,,,2015_Sep_21_1205,G,facesParametric,5,59.6477426089,
./stim/MorphM8_09_orig.jpg,109,,,,,,,,,0,109,109,109,,,,,,,,,,,,,,,-18.603515625,-6.9140625,0,0,1,0.819165945053,,,,,2015_Sep_21_1205,G,facesParametric,5,59.6477426089,
./stim/MorphF8_09_orig.jpg,110,,,,,,,,,0,110,110,110,,,,,,,,,,,,,,,-18.603515625,-6.9140625,0,0,1,0.686284065247,,,,,2015_Sep_21_1205,G,facesParametric,5,59.6477426089,
./stim/MorphF5_07_orig.jpg,111,,,,,,,,,0,111,111,111,,,,,,,,,,,,,,,-18.6328125,-6.884765625,0,0,1,0.951125144958,,,,,2015_Sep_21_1205,G,facesParametric,5,59.6477426089,
./stim/MorphM7_07_orig.jpg,112,,,,,,,,,0,112,112,112,,,,,,,,,,,,,,,-18.57421875,-6.85546875,0,0,1,4.22242689133,,,,,2015_Sep_21_1205,G,facesParametric,5,59.6477426089,
./stim/MorphM2_06_orig.jpg,113,,,,,,,,,0,113,113,113,,,,,,,,,,,,,,,-22.822265625,-12.626953125,1,0,0,2.8646569252,,,,,2015_Sep_21_1205,G,facesParametric,5,59.6477426089,
./stim/MorphF1_05_orig.jpg,114,,,,,,,,,0,114,114,114,,,,,,,,,,,,,,,-23.056640625,-11.015625,1,0,0,5.09350895882,,,,,2015_Sep_21_1205,G,facesParametric,5,59.6477426089,
./stim/MorphF4_03_orig.jpg,115,,,,,,,,,0,115,115,115,,,,,,,,,,,,,,,-23.0859375,-10.986328125,1,0,0,1.27129507065,,,,,2015_Sep_21_1205,G,facesParametric,5,59.6477426089,
./stim/MorphM5_04_orig.jpg,116,,,,,,,,,0,116,116,116,,,,,,,,,,,,,,,-22.998046875,-10.95703125,0,0,1,1.10526108742,,,,,2015_Sep_21_1205,G,facesParametric,5,59.6477426089,
./stim/MorphF7_08_orig.jpg,117,,,,,,,,,0,117,117,117,,,,,,,,,,,,,,,-22.880859375,-10.83984375,0,0,1,0.83558511734,,,,,2015_Sep_21_1205,G,facesParametric,5,59.6477426089,
./stim/MorphF2_05_orig.jpg,118,,,,,,,,,0,118,118,118,,,,,,,,,,,,,,,-22.998046875,-10.78125,1,0,0,2.89818906784,,,,,2015_Sep_21_1205,G,facesParametric,5,59.6477426089,
./stim/MorphM9_01_orig.jpg,119,,,,,,,,,0,119,119,119,,,,,,,,,,,,,,,-22.96875,-10.751953125,1,0,0,0.953995943069,,,,,2015_Sep_21_1205,G,facesParametric,5,59.6477426089,
./stim/MorphM4_01_orig.jpg,120,,,,,,,,,0,120,120,120,,,,,,,,,,,,,,,-23.02734375,-10.83984375,1,0,0,0.901874065399,,,,,2015_Sep_21_1205,G,facesParametric,5,59.6477426089,
./stim/MorphF9_09_orig.jpg,121,,,,,,,,,0,121,121,121,,,,,,,,,,,,,,,-22.939453125,-10.751953125,0,0,1,1.12163209915,,,,,2015_Sep_21_1205,G,facesParametric,5,59.6477426089,
./stim/MorphF2_01_orig.jpg,122,,,,,,,,,0,122,122,122,,,,,,,,,,,,,,,-22.822265625,-10.72265625,1,0,0,1.55617618561,,,,,2015_Sep_21_1205,G,facesParametric,5,59.6477426089,
./stim/MorphM1_03_orig.jpg,123,,,,,,,,,0,123,123,123,,,,,,,,,,,,,,,-22.880859375,-10.83984375,1,0,0,1.40403199196,,,,,2015_Sep_21_1205,G,facesParametric,5,59.6477426089,
./stim/MorphM3_03_orig.jpg,124,,,,,,,,,0,124,124,124,,,,,,,,,,,,,,,-22.91015625,-10.810546875,0,0,1,1.30731201172,,,,,2015_Sep_21_1205,G,facesParametric,5,59.6477426089,
./stim/MorphF9_04_orig.jpg,125,,,,,,,,,0,125,125,125,,,,,,,,,,,,,,,-22.880859375,-10.78125,1,0,0,9.24891209602,,,,,2015_Sep_21_1205,G,facesParametric,5,59.6477426089,
./stim/MorphM10_03_orig.jpg,126,,,,,,,,,0,126,126,126,,,,,,,,,,,,,,,-22.8515625,-10.810546875,1,0,0,2.11036801338,,,,,2015_Sep_21_1205,G,facesParametric,5,59.6477426089,
./stim/MorphF9_06_orig.jpg,127,,,,,,,,,0,127,127,127,,,,,,,,,,,,,,,-22.8515625,-10.810546875,0,0,1,2.8649020195,,,,,2015_Sep_21_1205,G,facesParametric,5,59.6477426089,
./stim/MorphF4_01_orig.jpg,128,,,,,,,,,0,128,128,128,,,,,,,,,,,,,,,-22.79296875,-10.72265625,1,0,0,5.56183815002,,,,,2015_Sep_21_1205,G,facesParametric,5,59.6477426089,
./stim/MorphM4_04_orig.jpg,129,,,,,,,,,0,129,129,129,,,,,,,,,,,,,,,-22.763671875,-10.751953125,0,0,1,0.85459113121,,,,,2015_Sep_21_1205,G,facesParametric,5,59.6477426089,
./stim/MorphM5_05_orig.jpg,130,,,,,,,,,0,130,130,130,,,,,,,,,,,,,,,-22.734375,-10.72265625,0,0,1,1.33858299255,,,,,2015_Sep_21_1205,G,facesParametric,5,59.6477426089,
./stim/MorphM4_02_orig.jpg,131,,,,,,,,,0,131,131,131,,,,,,,,,,,,,,,-22.763671875,-10.693359375,1,0,0,1.57422590256,,,,,2015_Sep_21_1205,G,facesParametric,5,59.6477426089,
./stim/MorphM10_01_orig.jpg,132,,,,,,,,,0,132,132,132,,,,,,,,,,,,,,,-22.763671875,-10.693359375,1,0,0,1.52360081673,,,,,2015_Sep_21_1205,G,facesParametric,5,59.6477426089,
./stim/MorphM3_02_orig.jpg,133,,,,,,,,,0,133,133,133,,,,,,,,,,,,,,,-22.734375,-10.72265625,1,0,0,3.46742296219,,,,,2015_Sep_21_1205,G,facesParametric,5,59.6477426089,
./stim/MorphM8_08_orig.jpg,134,,,,,,,,,0,134,134,134,,,,,,,,,,,,,,,-22.734375,-10.72265625,0,0,1,0.803312063217,,,,,2015_Sep_21_1205,G,facesParametric,5,59.6477426089,
./stim/MorphM2_03_orig.jpg,135,,,,,,,,,0,135,135,135,,,,,,,,,,,,,,,-22.705078125,-10.693359375,1,0,0,1.43985891342,,,,,2015_Sep_21_1205,G,facesParametric,5,59.6477426089,
./stim/MorphF8_00_orig.jpg,136,,,,,,,,,0,136,136,136,,,,,,,,,,,,,,,-22.705078125,-10.693359375,0,0,1,1.74155712128,,,,,2015_Sep_21_1205,G,facesParametric,5,59.6477426089,
./stim/MorphM6_04_orig.jpg,137,,,,,,,,,0,137,137,137,,,,,,,,,,,,,,,-22.587890625,-10.517578125,1,0,0,1.84235501289,,,,,2015_Sep_21_1205,G,facesParametric,5,59.6477426089,
./stim/MorphF8_07_orig.jpg,138,,,,,,,,,0,138,138,138,,,,,,,,,,,,,,,-22.646484375,-10.37109375,0,0,1,0.686099767685,,,,,2015_Sep_21_1205,G,facesParametric,5,59.6477426089,
./stim/MorphM1_09_orig.jpg,139,,,,,,,,,0,139,139,139,,,,,,,,,,,,,,,-20.625,-9.78515625,0,0,1,2.79666399956,,,,,2015_Sep_21_1205,G,facesParametric,5,59.6477426089,
./stim/MorphF2_04_orig.jpg,140,,,,,,,,,0,140,140,140,,,,,,,,,,,,,,,-19.013671875,-10.546875,0,0,1,4.97649693489,,,,,2015_Sep_21_1205,G,facesParametric,5,59.6477426089,
./stim/MorphF10_10_orig.jpg,141,,,,,,,,,0,141,141,141,,,,,,,,,,,,,,,-19.04296875,-10.576171875,0,0,1,0.937006950378,,,,,2015_Sep_21_1205,G,facesParametric,5,59.6477426089,
./stim/MorphF6_00_orig.jpg,142,,,,,,,,,0,142,142,142,,,,,,,,,,,,,,,-19.013671875,-10.517578125,1,0,0,1.2389831543,,,,,2015_Sep_21_1205,G,facesParametric,5,59.6477426089,
./stim/MorphM4_00_orig.jpg,143,,,,,,,,,0,143,143,143,,,,,,,,,,,,,,,-18.896484375,-10.400390625,1,0,0,1.33892297745,,,,,2015_Sep_21_1205,G,facesParametric,5,59.6477426089,
./stim/MorphM7_10_orig.jpg,144,,,,,,,,,0,144,144,144,,,,,,,,,,,,,,,-18.779296875,-10.341796875,0,0,1,1.52193593979,,,,,2015_Sep_21_1205,G,facesParametric,5,59.6477426089,
./stim/MorphM4_05_orig.jpg,145,,,,,,,,,0,145,145,145,,,,,,,,,,,,,,,-18.8671875,-10.37109375,0,0,1,3.26686000824,,,,,2015_Sep_21_1205,G,facesParametric,5,59.6477426089,
./stim/MorphF3_02_orig.jpg,146,,,,,,,,,0,146,146,146,,,,,,,,,,,,,,,-18.955078125,-10.166015625,1,0,0,6.58547997475,,,,,2015_Sep_21_1205,G,facesParametric,5,59.6477426089,
./stim/MorphF1_07_orig.jpg,147,,,,,,,,,0,147,147,147,,,,,,,,,,,,,,,-18.955078125,-10.166015625,0,0,1,1.38834810257,,,,,2015_Sep_21_1205,G,facesParametric,5,59.6477426089,
./stim/MorphF4_02_orig.jpg,148,,,,,,,,,0,148,148,148,,,,,,,,,,,,,,,-19.013671875,-10.13671875,0,0,1,1.70849585533,,,,,2015_Sep_21_1205,G,facesParametric,5,59.6477426089,
./stim/MorphM8_07_orig.jpg,149,,,,,,,,,0,149,149,149,,,,,,,,,,,,,,,-18.984375,-10.13671875,0,0,1,0.767743110657,,,,,2015_Sep_21_1205,G,facesParametric,5,59.6477426089,
./stim/MorphM7_09_orig.jpg,150,,,,,,,,,0,150,150,150,,,,,,,,,,,,,,,-19.04296875,-10.107421875,0,0,1,0.886569976807,,,,,2015_Sep_21_1205,G,facesParametric,5,59.6477426089,
./stim/MorphM9_09_orig.jpg,151,,,,,,,,,0,151,151,151,,,,,,,,,,,,,,,-19.072265625,-10.078125,0,0,1,1.6563501358,,,,,2015_Sep_21_1205,G,facesParametric,5,59.6477426089,
./stim/MorphM8_10_orig.jpg,152,,,,,,,,,0,152,152,152,,,,,,,,,,,,,,,-19.16015625,-10.048828125,0,0,1,0.71958899498,,,,,2015_Sep_21_1205,G,facesParametric,5,59.6477426089,
./stim/MorphF4_08_orig.jpg,153,,,,,,,,,0,153,153,153,,,,,,,,,,,,,,,-19.16015625,-9.990234375,0,0,1,1.01981496811,,,,,2015_Sep_21_1205,G,facesParametric,5,59.6477426089,
./stim/MorphF7_04_orig.jpg,154,,,,,,,,,0,154,154,154,,,,,,,,,,,,,,,-19.365234375,-10.048828125,1,0,0,2.39544796944,,,,,2015_Sep_21_1205,G,facesParametric,5,59.6477426089,
./stim/MorphM5_01_orig.jpg,155,,,,,,,,,0,155,155,155,,,,,,,,,,,,,,,-19.248046875,-10.13671875,0,0,1,0.719033956528,,,,,2015_Sep_21_1205,G,facesParametric,5,59.6477426089,
./stim/MorphF10_06_orig.jpg,156,,,,,,,,,0,156,156,156,,,,,,,,,,,,,,,-19.072265625,-10.048828125,0,0,1,2.94830703735,,,,,2015_Sep_21_1205,G,facesParametric,5,59.6477426089,
./stim/MorphM6_08_orig.jpg,157,,,,,,,,,0,157,157,157,,,,,,,,,,,,,,,-17.16796875,-10.166015625,1,0,0,1.0044491291,,,,,2015_Sep_21_1205,G,facesParametric,5,59.6477426089,
./stim/MorphF10_02_orig.jpg,158,,,,,,,,,0,158,158,158,,,,,,,,,,,,,,,-17.197265625,-10.166015625,0,0,1,4.1384909153,,,,,2015_Sep_21_1205,G,facesParametric,5,59.6477426089,
./stim/MorphF8_08_orig.jpg,159,,,,,,,,,0,159,159,159,,,,,,,,,,,,,,,-17.431640625,-9.9609375,0,0,1,1.00434088707,,,,,2015_Sep_21_1205,G,facesParametric,5,59.6477426089,
./stim/MorphF6_10_orig.jpg,160,,,,,,,,,0,160,160,160,,,,,,,,,,,,,,,-17.314453125,-9.873046875,0,0,1,1.07013106346,,,,,2015_Sep_21_1205,G,facesParametric,5,59.6477426089,
./stim/MorphF2_08_orig.jpg,161,,,,,,,,,0,161,161,161,,,,,,,,,,,,,,,-17.34375,-10.078125,0,0,1,1.17035293579,,,,,2015_Sep_21_1205,G,facesParametric,5,59.6477426089,
./stim/MorphF4_05_orig.jpg,162,,,,,,,,,0,162,162,162,,,,,,,,,,,,,,,-17.548828125,-10.166015625,0,0,1,2.1609377861,,,,,2015_Sep_21_1205,G,facesParametric,5,59.6477426089,
./stim/MorphM2_07_orig.jpg,163,,,,,,,,,0,163,163,163,,,,,,,,,,,,,,,-17.373046875,-10.166015625,0,0,1,1.18748998642,,,,,2015_Sep_21_1205,G,facesParametric,5,59.6477426089,
./stim/MorphM4_07_orig.jpg,164,,,,,,,,,0,164,164,164,,,,,,,,,,,,,,,-17.255859375,-10.107421875,0,0,1,1.05432796478,,,,,2015_Sep_21_1205,G,facesParametric,5,59.6477426089,
./stim/MorphF10_00_orig.jpg,165,,,,,,,,,0,165,165,165,,,,,,,,,,,,,,,-17.16796875,-10.224609375,1,0,0,1.47355985641,,,,,2015_Sep_21_1205,G,facesParametric,5,59.6477426089,
./stim/MorphM3_06_orig.jpg,166,,,,,,,,,0,166,166,166,,,,,,,,,,,,,,,-16.9921875,-10.37109375,0,0,1,0.985806941986,,,,,2015_Sep_21_1205,G,facesParametric,5,59.6477426089,
./stim/MorphF5_09_orig.jpg,167,,,,,,,,,0,167,167,167,,,,,,,,,,,,,,,-16.962890625,-10.4296875,0,0,1,0.820206880569,,,,,2015_Sep_21_1205,G,facesParametric,5,59.6477426089,
./stim/MorphF6_05_orig.jpg,168,,,,,,,,,0,168,168,168,,,,,,,,,,,,,,,-17.109375,-10.458984375,0,0,1,1.08711004257,,,,,2015_Sep_21_1205,G,facesParametric,5,59.6477426089,
./stim/MorphM2_09_orig.jpg,169,,,,,,,,,0,169,169,169,,,,,,,,,,,,,,,-17.021484375,-10.517578125,0,0,1,1.25461602211,,,,,2015_Sep_21_1205,G,facesParametric,5,59.6477426089,
./stim/MorphF6_01_orig.jpg,170,,,,,,,,,0,170,170,170,,,,,,,,,,,,,,,-16.875,-10.634765625,1,0,0,1.60766196251,,,,,2015_Sep_21_1205,G,facesParametric,5,59.6477426089,
./stim/MorphM8_03_orig.jpg,171,,,,,,,,,0,171,171,171,,,,,,,,,,,,,,,-16.728515625,-10.517578125,1,0,0,2.94833302498,,,,,2015_Sep_21_1205,G,facesParametric,5,59.6477426089,
./stim/MorphM5_06_orig.jpg,172,,,,,,,,,0,172,172,172,,,,,,,,,,,,,,,-16.728515625,-10.517578125,0,0,1,0.719471216202,,,,,2015_Sep_21_1205,G,facesParametric,5,59.6477426089,
./stim/MorphF7_05_orig.jpg,173,,,,,,,,,0,173,173,173,,,,,,,,,,,,,,,-16.69921875,-10.4296875,1,0,0,3.86901092529,,,,,2015_Sep_21_1205,G,facesParametric,5,59.6477426089,
./stim/MorphM10_06_orig.jpg,174,,,,,,,,,0,174,174,174,,,,,,,,,,,,,,,-16.728515625,-10.341796875,0,0,1,0.870212078094,,,,,2015_Sep_21_1205,G,facesParametric,5,59.6477426089,
./stim/MorphF1_01_orig.jpg,175,,,,,,,,,0,175,175,175,,,,,,,,,,,,,,,-16.58203125,-10.517578125,1,0,0,2.37872982025,,,,,2015_Sep_21_1205,G,facesParametric,5,59.6477426089,
./stim/MorphM2_02_orig.jpg,176,,,,,,,,,0,176,176,176,,,,,,,,,,,,,,,-16.435546875,-10.458984375,1,0,0,1.10482001305,,,,,2015_Sep_21_1205,G,facesParametric,5,59.6477426089,
./stim/MorphF4_07_orig.jpg,177,,,,,,,,,0,177,177,177,,,,,,,,,,,,,,,-16.69921875,-10.3125,0,0,1,1.07157087326,,,,,2015_Sep_21_1205,G,facesParametric,5,59.6477426089,
./stim/MorphM3_07_orig.jpg,178,,,,,,,,,0,178,178,178,,,,,,,,,,,,,,,-16.58203125,-10.37109375,0,0,1,0.870208978653,,,,,2015_Sep_21_1205,G,facesParametric,5,59.6477426089,
./stim/MorphF9_07_orig.jpg,179,,,,,,,,,0,179,179,179,,,,,,,,,,,,,,,-16.728515625,-10.400390625,0,0,1,1.23873400688,,,,,2015_Sep_21_1205,G,facesParametric,5,59.6477426089,
./stim/MorphF6_04_orig.jpg,180,,,,,,,,,0,180,180,180,,,,,,,,,,,,,,,-16.7578125,-10.458984375,1,0,0,1.62488889694,,,,,2015_Sep_21_1205,G,facesParametric,5,59.6477426089,
./stim/MorphF8_04_orig.jpg,181,,,,,,,,,0,181,181,181,,,,,,,,,,,,,,,-16.640625,-10.458984375,1,0,0,1.3729660511,,,,,2015_Sep_21_1205,G,facesParametric,5,59.6477426089,
./stim/MorphF10_03_orig.jpg,182,,,,,,,,,0,182,182,182,,,,,,,,,,,,,,,-16.58203125,-10.458984375,1,0,0,4.05458593369,,,,,2015_Sep_21_1205,G,facesParametric,5,59.6477426089,
./stim/MorphF3_04_orig.jpg,183,,,,,,,,,0,183,183,183,,,,,,,,,,,,,,,-16.611328125,-10.4296875,0,0,1,2.04328584671,,,,,2015_Sep_21_1205,G,facesParametric,5,59.6477426089,
./stim/MorphM9_07_orig.jpg,184,,,,,,,,,0,184,184,184,,,,,,,,,,,,,,,-16.69921875,-10.4296875,1,0,0,1.65824103355,,,,,2015_Sep_21_1205,G,facesParametric,5,59.6477426089,
./stim/MorphM10_04_orig.jpg,185,,,,,,,,,0,185,185,185,,,,,,,,,,,,,,,-16.669921875,-10.458984375,0,0,1,2.4790289402,,,,,2015_Sep_21_1205,G,facesParametric,5,59.6477426089,
./stim/MorphM6_07_orig.jpg,186,,,,,,,,,0,186,186,186,,,,,,,,,,,,,,,-16.669921875,-10.458984375,1,0,0,0.937471151352,,,,,2015_Sep_21_1205,G,facesParametric,5,59.6477426089,
./stim/MorphF1_10_orig.jpg,187,,,,,,,,,0,187,187,187,,,,,,,,,,,,,,,-16.611328125,-10.517578125,0,0,1,0.96923995018,,,,,2015_Sep_21_1205,G,facesParametric,5,59.6477426089,
./stim/MorphF7_00_orig.jpg,188,,,,,,,,,0,188,188,188,,,,,,,,,,,,,,,-16.58203125,-10.60546875,1,0,0,1.10251998901,,,,,2015_Sep_21_1205,G,facesParametric,5,59.6477426089,
./stim/MorphM6_06_orig.jpg,189,,,,,,,,,0,189,189,189,,,,,,,,,,,,,,,-16.58203125,-10.60546875,1,0,0,1.22294998169,,,,,2015_Sep_21_1205,G,facesParametric,5,59.6477426089,
./stim/MorphF3_03_orig.jpg,190,,,,,,,,,0,190,190,190,,,,,,,,,,,,,,,-16.552734375,-10.634765625,1,0,0,1.55608987808,,,,,2015_Sep_21_1205,G,facesParametric,5,59.6477426089,
./stim/MorphM7_05_orig.jpg,191,,,,,,,,,0,191,191,191,,,,,,,,,,,,,,,-16.58203125,-10.576171875,0,0,1,2.0254509449,,,,,2015_Sep_21_1205,G,facesParametric,5,59.6477426089,
./stim/MorphM4_08_orig.jpg,192,,,,,,,,,0,192,192,192,,,,,,,,,,,,,,,-16.58203125,-10.576171875,0,0,1,1.18694114685,,,,,2015_Sep_21_1205,G,facesParametric,5,59.6477426089,
./stim/MorphF4_09_orig.jpg,193,,,,,,,,,0,193,193,193,,,,,,,,,,,,,,,-16.640625,-10.634765625,0,0,1,1.90964794159,,,,,2015_Sep_21_1205,G,facesParametric,5,59.6477426089,
./stim/MorphF9_02_orig.jpg,194,,,,,,,,,0,194,194,194,,,,,,,,,,,,,,,-16.669921875,-10.6640625,1,0,0,2.79734396935,,,,,2015_Sep_21_1205,G,facesParametric,5,59.6477426089,
./stim/MorphM9_02_orig.jpg,195,,,,,,,,,0,195,195,195,,,,,,,,,,,,,,,-16.69921875,-10.634765625,1,0,0,1.22272491455,,,,,2015_Sep_21_1205,G,facesParametric,5,59.6477426089,
./stim/MorphM2_04_orig.jpg,196,,,,,,,,,0,196,196,196,,,,,,,,,,,,,,,-16.640625,-10.6640625,1,0,0,1.08754301071,,,,,2015_Sep_21_1205,G,facesParametric,5,59.6477426089,
./stim/MorphF7_03_orig.jpg,197,,,,,,,,,0,197,197,197,,,,,,,,,,,,,,,-16.69921875,-10.634765625,1,0,0,3.36744093895,,,,,2015_Sep_21_1205,G,facesParametric,5,59.6477426089,
./stim/MorphM7_08_orig.jpg,198,,,,,,,,,0,198,198,198,,,,,,,,,,,,,,,-16.69921875,-10.634765625,0,0,1,0.870141983032,,,,,2015_Sep_21_1205,G,facesParametric,5,59.6477426089,
./stim/MorphF6_02_orig.jpg,199,,,,,,,,,0,199,199,199,,,,,,,,,,,,,,,-16.728515625,-10.6640625,1,0,0,1.03767299652,,,,,2015_Sep_21_1205,G,facesParametric,5,59.6477426089,
./stim/MorphM10_02_orig.jpg,200,,,,,,,,,0,200,200,200,,,,,,,,,,,,,,,-16.728515625,-10.6640625,1,0,0,1.54015302658,,,,,2015_Sep_21_1205,G,facesParametric,5,59.6477426089,
./stim/MorphF8_01_orig.jpg,201,,,,,,,,,0,201,201,201,,,,,,,,,,,,,,,-16.728515625,-10.6640625,1,0,0,0.819628953934,,,,,2015_Sep_21_1205,G,facesParametric,5,59.6477426089,
./stim/MorphM4_10_orig.jpg,202,,,,,,,,,0,202,202,202,,,,,,,,,,,,,,,-16.669921875,-10.6640625,0,0,1,1.05480909348,,,,,2015_Sep_21_1205,G,facesParametric,5,59.6477426089,
./stim/MorphM7_03_orig.jpg,203,,,,,,,,,0,203,203,203,,,,,,,,,,,,,,,-16.640625,-10.693359375,1,0,0,3.31799697876,,,,,2015_Sep_21_1205,G,facesParametric,5,59.6477426089,
./stim/MorphM8_05_orig.jpg,204,,,,,,,,,0,204,204,204,,,,,,,,,,,,,,,-16.669921875,-10.6640625,0,0,1,1.20456600189,,,,,2015_Sep_21_1205,G,facesParametric,5,59.6477426089,
./stim/MorphM5_08_orig.jpg,205,,,,,,,,,0,205,205,205,,,,,,,,,,,,,,,-16.787109375,-10.634765625,0,0,1,1.23788404465,,,,,2015_Sep_21_1205,G,facesParametric,5,59.6477426089,
./stim/MorphF2_09_orig.jpg,206,,,,,,,,,0,206,206,206,,,,,,,,,,,,,,,-16.787109375,-10.634765625,0,0,1,0.935471057892,,,,,2015_Sep_21_1205,G,facesParametric,5,59.6477426089,
./stim/MorphF5_08_orig.jpg,207,,,,,,,,,0,207,207,207,,,,,,,,,,,,,,,-17.021484375,-10.693359375,0,0,1,1.22224211693,,,,,2015_Sep_21_1205,G,facesParametric,5,59.6477426089,
./stim/MorphF9_05_orig.jpg,208,,,,,,,,,0,208,208,208,,,,,,,,,,,,,,,-15.5859375,-9.2578125,1,0,0,5.84801101685,,,,,2015_Sep_21_1205,G,facesParametric,5,59.6477426089,
./stim/MorphM1_02_orig.jpg,209,,,,,,,,,0,209,209,209,,,,,,,,,,,,,,,-15.46875,-9.345703125,1,0,0,2.36135697365,,,,,2015_Sep_21_1205,G,facesParametric,5,59.6477426089,
./stim/MorphF10_04_orig.jpg,210,,,,,,,,,0,210,210,210,,,,,,,,,,,,,,,-15.3515625,-9.375,1,0,0,2.02625107765,,,,,2015_Sep_21_1205,G,facesParametric,5,59.6477426089,
./stim/MorphF7_02_orig.jpg,211,,,,,,,,,0,211,211,211,,,,,,,,,,,,,,,-15.322265625,-9.345703125,0,0,1,1.80914902687,,,,,2015_Sep_21_1205,G,facesParametric,5,59.6477426089,
./stim/MorphM7_00_orig.jpg,212,,,,,,,,,0,212,212,212,,,,,,,,,,,,,,,-15.3515625,-9.375,1,0,0,1.22213602066,,,,,2015_Sep_21_1205,G,facesParametric,5,59.6477426089,
./stim/MorphF3_00_orig.jpg,213,,,,,,,,,0,213,213,213,,,,,,,,,,,,,,,-15.3515625,-9.375,1,0,0,1.1713809967,,,,,2015_Sep_21_1205,G,facesParametric,5,59.6477426089,
./stim/MorphM9_10_orig.jpg,214,,,,,,,,,0,214,214,214,,,,,,,,,,,,,,,-15.205078125,-9.375,0,0,1,3.8865249157,,,,,2015_Sep_21_1205,G,facesParametric,5,59.6477426089,
./stim/MorphM4_09_orig.jpg,215,,,,,,,,,0,215,215,215,,,,,,,,,,,,,,,-15.205078125,-9.375,0,0,1,0.869580030441,,,,,2015_Sep_21_1205,G,facesParametric,5,59.6477426089,
./stim/MorphM9_08_orig.jpg,216,,,,,,,,,0,216,216,216,,,,,,,,,,,,,,,-15.205078125,-9.375,0,0,1,1.02139091492,,,,,2015_Sep_21_1205,G,facesParametric,5,59.6477426089,
./stim/MorphF2_02_orig.jpg,217,,,,,,,,,0,217,217,217,,,,,,,,,,,,,,,-15.234375,-9.345703125,1,0,0,1.52398204803,,,,,2015_Sep_21_1205,G,facesParametric,5,59.6477426089,
./stim/MorphM6_00_orig.jpg,218,,,,,,,,,0,218,218,218,,,,,,,,,,,,,,,-15.234375,-9.345703125,1,0,0,1.17035198212,,,,,2015_Sep_21_1205,G,facesParametric,5,59.6477426089,
./stim/MorphM5_00_orig.jpg,219,,,,,,,,,0,219,219,219,,,,,,,,,,,,,,,-15.234375,-9.345703125,0,0,1,1.2386431694,,,,,2015_Sep_21_1205,G,facesParametric,5,59.6477426089,
,,,,,,,,,,,,,,,,,,,,,,,,,,,,,,,,,,,,return,4.35174393654,2015_Sep_21_1205,G,facesParametric,5,59.6477426089,
