img,num,basicLoop.thisRepN,basicLoop.thisTrialN,basicLoop.thisN,basicLoop.thisIndex,trials.thisRepN,trials.thisTrialN,trials.thisN,trials.thisIndex,trials2.thisRepN,trials2.thisTrialN,trials2.thisN,trials2.thisIndex,key_resp_2.keys,key_resp_2.rt,basicRating1.response,basicRating1.rt,basicRating2.response,basicRating2.rt,basicRating3.response,basicRating3.rt,basicRating4.response,basicRating4.rt,key_resp_3.keys,key_resp_3.rt,key_resp_4.keys,key_resp_4.rt,mouseResp.x,mouseResp.y,mouseResp.leftButton,mouseResp.midButton,mouseResp.rightButton,mouseResp.time,key_resp_5.keys,key_resp_5.rt,key_resp_7.keys,key_resp_7.rt,date,group,expName,participant,frameRate,
,,,,,,,,,,,,,,return,49.3849649429,,,,,,,,,,,,,,,,,,,,,,,2015_Sep_21_1604,G,facesParametric,6,59.6466398935,
./basicStim/03F_DI_O.jpg,,0,0,0,15,,,,,,,,,,,None,None,None,None,DIS,5.848,None,None,,,,,,,,,,,,,,,2015_Sep_21_1604,G,facesParametric,6,59.6466398935,
./basicStim/24M_AN_O.jpg,,0,1,1,56,,,,,,,,,,,None,None,ANG,4.753,None,None,None,None,,,,,,,,,,,,,,,2015_Sep_21_1604,G,facesParametric,6,59.6466398935,
./basicStim/34M_SA_C.jpg,,0,2,2,74,,,,,,,,,,,None,None,FEA,4.229,None,None,None,None,,,,,,,,,,,,,,,2015_Sep_21_1604,G,facesParametric,6,59.6466398935,
./basicStim/03F_AN_O.jpg,,0,3,3,14,,,,,,,,,,,None,None,ANG,2.4,None,None,None,None,,,,,,,,,,,,,,,2015_Sep_21_1604,G,facesParametric,6,59.6466398935,
./basicStim/28M_AN_O.jpg,,0,4,4,63,,,,,,,,,,,None,None,ANG,6.188,None,None,None,None,,,,,,,,,,,,,,,2015_Sep_21_1604,G,facesParametric,6,59.6466398935,
./basicStim/03F_SP_O.jpg,,0,5,5,19,,,,,,,,,,,None,None,None,None,SUP,1.611,None,None,,,,,,,,,,,,,,,2015_Sep_21_1604,G,facesParametric,6,59.6466398935,
./basicStim/36M_SA_C.jpg,,0,6,6,81,,,,,,,,,,,None,None,None,None,None,None,NTR,3.872,,,,,,,,,,,,,,,2015_Sep_21_1604,G,facesParametric,6,59.6466398935,
./basicStim/34M_DI_O.jpg,,0,7,7,71,,,,,,,,,,,None,None,None,None,DIS,2.854,None,None,,,,,,,,,,,,,,,2015_Sep_21_1604,G,facesParametric,6,59.6466398935,
./basicStim/02F_HA_O.jpg,,0,8,8,10,,,,,,,,,,,HAP,3.025,None,None,None,None,None,None,,,,,,,,,,,,,,,2015_Sep_21_1604,G,facesParametric,6,59.6466398935,
./basicStim/03F_FE_O.jpg,,0,9,9,16,,,,,,,,,,,None,None,FEA,4.833,None,None,None,None,,,,,,,,,,,,,,,2015_Sep_21_1604,G,facesParametric,6,59.6466398935,
./basicStim/34M_AN_O.jpg,,0,10,10,70,,,,,,,,,,,None,None,ANG,2.485,None,None,None,None,,,,,,,,,,,,,,,2015_Sep_21_1604,G,facesParametric,6,59.6466398935,
./basicStim/23M_DI_O.jpg,,0,11,11,50,,,,,,,,,,,SAD,4.483,None,None,None,None,None,None,,,,,,,,,,,,,,,2015_Sep_21_1604,G,facesParametric,6,59.6466398935,
./basicStim/36M_SP_O.jpg,,0,12,12,82,,,,,,,,,,,None,None,None,None,SUP,2.348,None,None,,,,,,,,,,,,,,,2015_Sep_21_1604,G,facesParametric,6,59.6466398935,
./basicStim/07F_SA_C.jpg,,0,13,13,32,,,,,,,,,,,SAD,7.611,None,None,None,None,None,None,,,,,,,,,,,,,,,2015_Sep_21_1604,G,facesParametric,6,59.6466398935,
./basicStim/34M_FE_O.jpg,,0,14,14,72,,,,,,,,,,,None,None,None,None,SUP,7.11,None,None,,,,,,,,,,,,,,,2015_Sep_21_1604,G,facesParametric,6,59.6466398935,
./basicStim/02F_NE_C.jpg,,0,15,15,13,,,,,,,,,,,None,None,None,None,None,None,NTR,3.17,,,,,,,,,,,,,,,2015_Sep_21_1604,G,facesParametric,6,59.6466398935,
./basicStim/28M_SA_C.jpg,,0,16,16,67,,,,,,,,,,,None,None,ANG,8.406,None,None,None,None,,,,,,,,,,,,,,,2015_Sep_21_1604,G,facesParametric,6,59.6466398935,
./basicStim/28M_SP_O.jpg,,0,17,17,68,,,,,,,,,,,None,None,None,None,SUP,1.847,None,None,,,,,,,,,,,,,,,2015_Sep_21_1604,G,facesParametric,6,59.6466398935,
./basicStim/21M_FE_O.jpg,,0,18,18,44,,,,,,,,,,,None,None,FEA,4.228,None,None,None,None,,,,,,,,,,,,,,,2015_Sep_21_1604,G,facesParametric,6,59.6466398935,
./basicStim/23M_FE_O.jpg,,0,19,19,51,,,,,,,,,,,None,None,None,None,SUP,4.301,None,None,,,,,,,,,,,,,,,2015_Sep_21_1604,G,facesParametric,6,59.6466398935,
./basicStim/07F_NE_C.jpg,,0,20,20,34,,,,,,,,,,,None,None,None,None,None,None,NTR,1.727,,,,,,,,,,,,,,,2015_Sep_21_1604,G,facesParametric,6,59.6466398935,
./basicStim/09F_DI_O.jpg,,0,21,21,36,,,,,,,,,,,None,None,None,None,DIS,1.307,None,None,,,,,,,,,,,,,,,2015_Sep_21_1604,G,facesParametric,6,59.6466398935,
./basicStim/02F_FE_O.jpg,,0,22,22,9,,,,,,,,,,,None,None,None,None,SUP,6.221,None,None,,,,,,,,,,,,,,,2015_Sep_21_1604,G,facesParametric,6,59.6466398935,
./basicStim/02F_SA_C.jpg,,0,23,23,11,,,,,,,,,,,SAD,1.948,None,None,None,None,None,None,,,,,,,,,,,,,,,2015_Sep_21_1604,G,facesParametric,6,59.6466398935,
./basicStim/34M_HA_O.jpg,,0,24,24,73,,,,,,,,,,,HAP,3.158,None,None,None,None,None,None,,,,,,,,,,,,,,,2015_Sep_21_1604,G,facesParametric,6,59.6466398935,
./basicStim/07F_HA_O.jpg,,0,25,25,31,,,,,,,,,,,HAP,0.777,None,None,None,None,None,None,,,,,,,,,,,,,,,2015_Sep_21_1604,G,facesParametric,6,59.6466398935,
./basicStim/28M_FE_O.jpg,,0,26,26,65,,,,,,,,,,,None,None,FEA,3.908,None,None,None,None,,,,,,,,,,,,,,,2015_Sep_21_1604,G,facesParametric,6,59.6466398935,
./basicStim/09F_FE_O.jpg,,0,27,27,37,,,,,,,,,,,None,None,FEA,2.266,None,None,None,None,,,,,,,,,,,,,,,2015_Sep_21_1604,G,facesParametric,6,59.6466398935,
./basicStim/02F_AN_O.jpg,,0,28,28,7,,,,,,,,,,,None,None,ANG,2.52,None,None,None,None,,,,,,,,,,,,,,,2015_Sep_21_1604,G,facesParametric,6,59.6466398935,
./basicStim/02F_SP_O.jpg,,0,29,29,12,,,,,,,,,,,None,None,None,None,SUP,4.694,None,None,,,,,,,,,,,,,,,2015_Sep_21_1604,G,facesParametric,6,59.6466398935,
./basicStim/07F_DI_O.jpg,,0,30,30,29,,,,,,,,,,,None,None,None,None,DIS,1.428,None,None,,,,,,,,,,,,,,,2015_Sep_21_1604,G,facesParametric,6,59.6466398935,
./basicStim/36M_DI_O.jpg,,0,31,31,78,,,,,,,,,,,None,None,None,None,DIS,2.755,None,None,,,,,,,,,,,,,,,2015_Sep_21_1604,G,facesParametric,6,59.6466398935,
./basicStim/01F_FE_O.jpg,,0,32,32,2,,,,,,,,,,,None,None,None,None,SUP,2.296,None,None,,,,,,,,,,,,,,,2015_Sep_21_1604,G,facesParametric,6,59.6466398935,
./basicStim/01F_HA_O.jpg,,0,33,33,3,,,,,,,,,,,None,None,None,None,None,None,NTR,1.821,,,,,,,,,,,,,,,2015_Sep_21_1604,G,facesParametric,6,59.6466398935,
./basicStim/06F_DI_O.jpg,,0,34,34,22,,,,,,,,,,,None,None,None,None,DIS,3.257,None,None,,,,,,,,,,,,,,,2015_Sep_21_1604,G,facesParametric,6,59.6466398935,
./basicStim/06F_HA_O.jpg,,0,35,35,24,,,,,,,,,,,HAP,3.426,None,None,None,None,None,None,,,,,,,,,,,,,,,2015_Sep_21_1604,G,facesParametric,6,59.6466398935,
./basicStim/07F_FE_O.jpg,,0,36,36,30,,,,,,,,,,,None,None,ANG,9.02,None,None,None,None,,,,,,,,,,,,,,,2015_Sep_21_1604,G,facesParametric,6,59.6466398935,
./basicStim/09F_SA_C.jpg,,0,37,37,39,,,,,,,,,,,SAD,6.362,None,None,None,None,None,None,,,,,,,,,,,,,,,2015_Sep_21_1604,G,facesParametric,6,59.6466398935,
./basicStim/09F_AN_O.jpg,,0,38,38,35,,,,,,,,,,,None,None,ANG,2.533,None,None,None,None,,,,,,,,,,,,,,,2015_Sep_21_1604,G,facesParametric,6,59.6466398935,
./basicStim/34M_SP_O.jpg,,0,39,39,75,,,,,,,,,,,None,None,None,None,SUP,2.34,None,None,,,,,,,,,,,,,,,2015_Sep_21_1604,G,facesParametric,6,59.6466398935,
./basicStim/06F_AN_O.jpg,,0,40,40,21,,,,,,,,,,,None,None,ANG,3.845,None,None,None,None,,,,,,,,,,,,,,,2015_Sep_21_1604,G,facesParametric,6,59.6466398935,
./basicStim/24M_SA_C.jpg,,0,41,41,60,,,,,,,,,,,SAD,7.722,None,None,None,None,None,None,,,,,,,,,,,,,,,2015_Sep_21_1604,G,facesParametric,6,59.6466398935,
./basicStim/09F_HA_O.jpg,,0,42,42,38,,,,,,,,,,,None,None,None,None,None,None,NTR,1.442,,,,,,,,,,,,,,,2015_Sep_21_1604,G,facesParametric,6,59.6466398935,
./basicStim/24M_HA_O.jpg,,0,43,43,59,,,,,,,,,,,None,None,None,None,None,None,NTR,2.551,,,,,,,,,,,,,,,2015_Sep_21_1604,G,facesParametric,6,59.6466398935,
./basicStim/24M_SP_O.jpg,,0,44,44,61,,,,,,,,,,,HAP,1.514,None,None,None,None,None,None,,,,,,,,,,,,,,,2015_Sep_21_1604,G,facesParametric,6,59.6466398935,
./basicStim/36M_NE_C.jpg,,0,45,45,83,,,,,,,,,,,None,None,None,None,None,None,NTR,1.144,,,,,,,,,,,,,,,2015_Sep_21_1604,G,facesParametric,6,59.6466398935,
./basicStim/01F_DI_O.jpg,,0,46,46,1,,,,,,,,,,,None,None,None,None,DIS,2.802,None,None,,,,,,,,,,,,,,,2015_Sep_21_1604,G,facesParametric,6,59.6466398935,
./basicStim/09F_SP_O.jpg,,0,47,47,40,,,,,,,,,,,None,None,None,None,SUP,1.38,None,None,,,,,,,,,,,,,,,2015_Sep_21_1604,G,facesParametric,6,59.6466398935,
./basicStim/21M_DI_O.jpg,,0,48,48,43,,,,,,,,,,,None,None,None,None,DIS,2.217,None,None,,,,,,,,,,,,,,,2015_Sep_21_1604,G,facesParametric,6,59.6466398935,
./basicStim/28M_HA_O.jpg,,0,49,49,66,,,,,,,,,,,HAP,3.81,None,None,None,None,None,None,,,,,,,,,,,,,,,2015_Sep_21_1604,G,facesParametric,6,59.6466398935,
./basicStim/01F_NE_C.jpg,,0,50,50,6,,,,,,,,,,,None,None,None,None,None,None,NTR,3.91,,,,,,,,,,,,,,,2015_Sep_21_1604,G,facesParametric,6,59.6466398935,
./basicStim/36M_HA_O.jpg,,0,51,51,80,,,,,,,,,,,None,None,None,None,DIS,1.831,None,None,,,,,,,,,,,,,,,2015_Sep_21_1604,G,facesParametric,6,59.6466398935,
./basicStim/03F_HA_O.jpg,,0,52,52,17,,,,,,,,,,,HAP,3.46,None,None,None,None,None,None,,,,,,,,,,,,,,,2015_Sep_21_1604,G,facesParametric,6,59.6466398935,
./basicStim/21M_SA_C.jpg,,0,53,53,46,,,,,,,,,,,None,None,None,None,None,None,NTR,8.269,,,,,,,,,,,,,,,2015_Sep_21_1604,G,facesParametric,6,59.6466398935,
./basicStim/23M_AN_O.jpg,,0,54,54,49,,,,,,,,,,,None,None,ANG,2.033,None,None,None,None,,,,,,,,,,,,,,,2015_Sep_21_1604,G,facesParametric,6,59.6466398935,
./basicStim/36M_FE_O.jpg,,0,55,55,79,,,,,,,,,,,None,None,FEA,5.6,None,None,None,None,,,,,,,,,,,,,,,2015_Sep_21_1604,G,facesParametric,6,59.6466398935,
./basicStim/21M_HA_O.jpg,,0,56,56,45,,,,,,,,,,,None,None,None,None,None,None,NTR,1.696,,,,,,,,,,,,,,,2015_Sep_21_1604,G,facesParametric,6,59.6466398935,
./basicStim/21M_SP_O.jpg,,0,57,57,47,,,,,,,,,,,HAP,1.511,None,None,None,None,None,None,,,,,,,,,,,,,,,2015_Sep_21_1604,G,facesParametric,6,59.6466398935,
./basicStim/02F_DI_O.jpg,,0,58,58,8,,,,,,,,,,,None,None,None,None,DIS,9.044,None,None,,,,,,,,,,,,,,,2015_Sep_21_1604,G,facesParametric,6,59.6466398935,
./basicStim/28M_DI_O.jpg,,0,59,59,64,,,,,,,,,,,None,None,None,None,DIS,1.347,None,None,,,,,,,,,,,,,,,2015_Sep_21_1604,G,facesParametric,6,59.6466398935,
./basicStim/24M_DI_O.jpg,,0,60,60,57,,,,,,,,,,,None,None,None,None,DIS,7.322,None,None,,,,,,,,,,,,,,,2015_Sep_21_1604,G,facesParametric,6,59.6466398935,
./basicStim/03F_SA_C.jpg,,0,61,61,18,,,,,,,,,,,None,None,FEA,6.307,None,None,None,None,,,,,,,,,,,,,,,2015_Sep_21_1604,G,facesParametric,6,59.6466398935,
./basicStim/01F_AN_O.jpg,,0,62,62,0,,,,,,,,,,,None,None,ANG,2.054,None,None,None,None,,,,,,,,,,,,,,,2015_Sep_21_1604,G,facesParametric,6,59.6466398935,
./basicStim/34M_NE_C.jpg,,0,63,63,76,,,,,,,,,,,None,None,None,None,None,None,NTR,1.344,,,,,,,,,,,,,,,2015_Sep_21_1604,G,facesParametric,6,59.6466398935,
./basicStim/24M_FE_O.jpg,,0,64,64,58,,,,,,,,,,,None,None,FEA,6.005,None,None,None,None,,,,,,,,,,,,,,,2015_Sep_21_1604,G,facesParametric,6,59.6466398935,
./basicStim/24M_NE_C.jpg,,0,65,65,62,,,,,,,,,,,None,None,None,None,None,None,NTR,1.42,,,,,,,,,,,,,,,2015_Sep_21_1604,G,facesParametric,6,59.6466398935,
./basicStim/28M_NE_C.jpg,,0,66,66,69,,,,,,,,,,,None,None,None,None,SUP,4.532,None,None,,,,,,,,,,,,,,,2015_Sep_21_1604,G,facesParametric,6,59.6466398935,
./basicStim/36M_AN_O.jpg,,0,67,67,77,,,,,,,,,,,None,None,ANG,1.612,None,None,None,None,,,,,,,,,,,,,,,2015_Sep_21_1604,G,facesParametric,6,59.6466398935,
./basicStim/21M_AN_O.jpg,,0,68,68,42,,,,,,,,,,,None,None,ANG,0.692,None,None,None,None,,,,,,,,,,,,,,,2015_Sep_21_1604,G,facesParametric,6,59.6466398935,
./basicStim/23M_SP_O.jpg,,0,69,69,54,,,,,,,,,,,None,None,None,None,SUP,1.043,None,None,,,,,,,,,,,,,,,2015_Sep_21_1604,G,facesParametric,6,59.6466398935,
./basicStim/07F_AN_O.jpg,,0,70,70,28,,,,,,,,,,,None,None,ANG,1.514,None,None,None,None,,,,,,,,,,,,,,,2015_Sep_21_1604,G,facesParametric,6,59.6466398935,
./basicStim/23M_HA_O.jpg,,0,71,71,52,,,,,,,,,,,HAP,2.351,None,None,None,None,None,None,,,,,,,,,,,,,,,2015_Sep_21_1604,G,facesParametric,6,59.6466398935,
./basicStim/01F_SP_O.jpg,,0,72,72,5,,,,,,,,,,,None,None,None,None,SUP,2.136,None,None,,,,,,,,,,,,,,,2015_Sep_21_1604,G,facesParametric,6,59.6466398935,
./basicStim/09F_NE_C.jpg,,0,73,73,41,,,,,,,,,,,None,None,None,None,None,None,NTR,3.625,,,,,,,,,,,,,,,2015_Sep_21_1604,G,facesParametric,6,59.6466398935,
./basicStim/03F_NE_C.jpg,,0,74,74,20,,,,,,,,,,,None,None,None,None,None,None,NTR,1.541,,,,,,,,,,,,,,,2015_Sep_21_1604,G,facesParametric,6,59.6466398935,
./basicStim/01F_SA_C.jpg,,0,75,75,4,,,,,,,,,,,None,None,FEA,3.223,None,None,None,None,,,,,,,,,,,,,,,2015_Sep_21_1604,G,facesParametric,6,59.6466398935,
./basicStim/21M_NE_C.jpg,,0,76,76,48,,,,,,,,,,,None,None,None,None,None,None,NTR,1.877,,,,,,,,,,,,,,,2015_Sep_21_1604,G,facesParametric,6,59.6466398935,
./basicStim/23M_SA_C.jpg,,0,77,77,53,,,,,,,,,,,None,None,FEA,6.608,None,None,None,None,,,,,,,,,,,,,,,2015_Sep_21_1604,G,facesParametric,6,59.6466398935,
./basicStim/23M_NE_C.jpg,,0,78,78,55,,,,,,,,,,,None,None,None,None,None,None,NTR,1.61,,,,,,,,,,,,,,,2015_Sep_21_1604,G,facesParametric,6,59.6466398935,
./basicStim/06F_FE_O.jpg,,0,79,79,23,,,,,,,,,,,None,None,FEA,2.602,None,None,None,None,,,,,,,,,,,,,,,2015_Sep_21_1604,G,facesParametric,6,59.6466398935,
./basicStim/06F_SP_O.jpg,,0,80,80,26,,,,,,,,,,,None,None,None,None,SUP,2.434,None,None,,,,,,,,,,,,,,,2015_Sep_21_1604,G,facesParametric,6,59.6466398935,
./basicStim/06F_SA_C.jpg,,0,81,81,25,,,,,,,,,,,None,None,ANG,6.192,None,None,None,None,,,,,,,,,,,,,,,2015_Sep_21_1604,G,facesParametric,6,59.6466398935,
./basicStim/07F_SP_O.jpg,,0,82,82,33,,,,,,,,,,,None,None,FEA,5.418,None,None,None,None,,,,,,,,,,,,,,,2015_Sep_21_1604,G,facesParametric,6,59.6466398935,
./basicStim/06F_NE_C.jpg,,0,83,83,27,,,,,,,,,,,None,None,None,None,None,None,NTR,3.892,,,,,,,,,,,,,,,2015_Sep_21_1604,G,facesParametric,6,59.6466398935,
,,,,,,,,,,,,,,,,,,,,,,,,return,9.60468006134,,,,,,,,,,,,,2015_Sep_21_1604,G,facesParametric,6,59.6466398935,
,,,,,,,,,,,,,,return,12.3849670887,,,,,,,,,,,,,,,,,,,,,,,2015_Sep_21_1604,G,facesParametric,6,59.6466398935,
,,,,,,,,,,,,,,,,,,,,,,,,return,16.8434360027,,,,,,,,,,,,,2015_Sep_21_1604,G,facesParametric,6,59.6466398935,
,,,,,,,,,,,,,,,,,,,,,,,,,,return,8.29577302933,,,,,,,,,,,2015_Sep_21_1604,G,facesParametric,6,59.6466398935,
./stim/MorphM4_02_orig.jpg,0,,,,,0,0,0,0,,,,,,,,,,,,,,,,,,,-23.37890625,-11.30859375,0,0,1,3.64790797234,,,,,2015_Sep_21_1604,G,facesParametric,6,59.6466398935,
./stim/MorphF10_07_orig.jpg,1,,,,,0,1,1,1,,,,,,,,,,,,,,,,,,,-23.4375,-11.337890625,1,0,0,1.73967790604,,,,,2015_Sep_21_1604,G,facesParametric,6,59.6466398935,
./stim/MorphM6_01_orig.jpg,2,,,,,0,2,2,2,,,,,,,,,,,,,,,,,,,-23.4375,-11.689453125,0,0,1,5.66334795952,,,,,2015_Sep_21_1604,G,facesParametric,6,59.6466398935,
./stim/MorphF8_03_orig.jpg,3,,,,,0,3,3,3,,,,,,,,,,,,,,,,,,,-23.408203125,-11.689453125,0,0,1,5.66357898712,,,,,2015_Sep_21_1604,G,facesParametric,6,59.6466398935,
./stim/MorphM1_08_orig.jpg,4,,,,,0,4,4,4,,,,,,,,,,,,,,,,,,,-23.37890625,-11.71875,0,0,1,3.71875786781,,,,,2015_Sep_21_1604,G,facesParametric,6,59.6466398935,
./stim/MorphF2_09_orig.jpg,5,,,,,0,5,5,5,,,,,,,,,,,,,,,,,,,-23.349609375,-11.748046875,1,0,0,1.52180099487,,,,,2015_Sep_21_1604,G,facesParametric,6,59.6466398935,
./stim/MorphF1_08_orig.jpg,6,,,,,0,6,6,6,,,,,,,,,,,,,,,,,,,-23.349609375,-11.748046875,1,0,0,1.15486717224,,,,,2015_Sep_21_1604,G,facesParametric,6,59.6466398935,
./stim/MorphM1_02_orig.jpg,7,,,,,0,7,7,7,,,,,,,,,,,,,,,,,,,-23.349609375,-11.748046875,1,0,0,1.32299304008,,,,,2015_Sep_21_1604,G,facesParametric,6,59.6466398935,
./stim/MorphM10_01_orig.jpg,8,,,,,0,8,8,8,,,,,,,,,,,,,,,,,,,-23.349609375,-11.748046875,0,0,1,1.28899598122,,,,,2015_Sep_21_1604,G,facesParametric,6,59.6466398935,
./stim/MorphM6_00_orig.jpg,9,,,,,0,9,9,9,,,,,,,,,,,,,,,,,,,-23.349609375,-11.748046875,0,0,1,1.72304701805,,,,,2015_Sep_21_1604,G,facesParametric,6,59.6466398935,
./stim/MorphM3_09_orig.jpg,10,,,,,0,10,10,10,,,,,,,,,,,,,,,,,,,-23.349609375,-11.748046875,1,0,0,0.853296995163,,,,,2015_Sep_21_1604,G,facesParametric,6,59.6466398935,
./stim/MorphF6_04_orig.jpg,11,,,,,0,11,11,11,,,,,,,,,,,,,,,,,,,-23.349609375,-11.748046875,1,0,0,2.26149606705,,,,,2015_Sep_21_1604,G,facesParametric,6,59.6466398935,
./stim/MorphM6_07_orig.jpg,12,,,,,0,12,12,12,,,,,,,,,,,,,,,,,,,-23.349609375,-11.748046875,1,0,0,1.90750217438,,,,,2015_Sep_21_1604,G,facesParametric,6,59.6466398935,
./stim/MorphM8_01_orig.jpg,13,,,,,0,13,13,13,,,,,,,,,,,,,,,,,,,-23.349609375,-11.748046875,1,0,0,1.72494602203,,,,,2015_Sep_21_1604,G,facesParametric,6,59.6466398935,
./stim/MorphM1_05_orig.jpg,14,,,,,0,14,14,14,,,,,,,,,,,,,,,,,,,-23.349609375,-11.748046875,1,0,0,1.48839712143,,,,,2015_Sep_21_1604,G,facesParametric,6,59.6466398935,
./stim/MorphM5_00_orig.jpg,15,,,,,0,15,15,15,,,,,,,,,,,,,,,,,,,-23.349609375,-11.748046875,1,0,0,0.918421983719,,,,,2015_Sep_21_1604,G,facesParametric,6,59.6466398935,
./stim/MorphF8_09_orig.jpg,16,,,,,0,16,16,16,,,,,,,,,,,,,,,,,,,-23.349609375,-11.748046875,1,0,0,0.769338846207,,,,,2015_Sep_21_1604,G,facesParametric,6,59.6466398935,
./stim/MorphM2_10_orig.jpg,17,,,,,0,17,17,17,,,,,,,,,,,,,,,,,,,-23.349609375,-11.748046875,1,0,0,0.769837856293,,,,,2015_Sep_21_1604,G,facesParametric,6,59.6466398935,
./stim/MorphM8_04_orig.jpg,18,,,,,0,18,18,18,,,,,,,,,,,,,,,,,,,-23.349609375,-11.748046875,0,0,1,2.27669095993,,,,,2015_Sep_21_1604,G,facesParametric,6,59.6466398935,
./stim/MorphF2_07_orig.jpg,19,,,,,0,19,19,19,,,,,,,,,,,,,,,,,,,-23.349609375,-11.748046875,1,0,0,0.718359947205,,,,,2015_Sep_21_1604,G,facesParametric,6,59.6466398935,
./stim/MorphF1_09_orig.jpg,20,,,,,0,20,20,20,,,,,,,,,,,,,,,,,,,-23.349609375,-11.748046875,1,0,0,0.852217912674,,,,,2015_Sep_21_1604,G,facesParametric,6,59.6466398935,
./stim/MorphF6_00_orig.jpg,21,,,,,0,21,21,21,,,,,,,,,,,,,,,,,,,-23.349609375,-11.748046875,1,0,0,1.00419998169,,,,,2015_Sep_21_1604,G,facesParametric,6,59.6466398935,
./stim/MorphM4_03_orig.jpg,22,,,,,0,22,22,22,,,,,,,,,,,,,,,,,,,-23.349609375,-11.748046875,0,0,1,1.52196288109,,,,,2015_Sep_21_1604,G,facesParametric,6,59.6466398935,
./stim/MorphM10_03_orig.jpg,23,,,,,0,23,23,23,,,,,,,,,,,,,,,,,,,-23.349609375,-11.748046875,0,0,1,1.95950698853,,,,,2015_Sep_21_1604,G,facesParametric,6,59.6466398935,
./stim/MorphF5_05_orig.jpg,24,,,,,0,24,24,24,,,,,,,,,,,,,,,,,,,-23.349609375,-11.748046875,1,0,0,1.49037003517,,,,,2015_Sep_21_1604,G,facesParametric,6,59.6466398935,
./stim/MorphM4_07_orig.jpg,25,,,,,0,25,25,25,,,,,,,,,,,,,,,,,,,-23.349609375,-11.748046875,1,0,0,1.85905504227,,,,,2015_Sep_21_1604,G,facesParametric,6,59.6466398935,
./stim/MorphF7_00_orig.jpg,26,,,,,0,26,26,26,,,,,,,,,,,,,,,,,,,-23.349609375,-11.748046875,0,0,1,1.74202919006,,,,,2015_Sep_21_1604,G,facesParametric,6,59.6466398935,
./stim/MorphF3_10_orig.jpg,27,,,,,0,27,27,27,,,,,,,,,,,,,,,,,,,-23.349609375,-11.748046875,1,0,0,0.886893033981,,,,,2015_Sep_21_1604,G,facesParametric,6,59.6466398935,
./stim/MorphF10_03_orig.jpg,28,,,,,0,28,28,28,,,,,,,,,,,,,,,,,,,-23.349609375,-11.748046875,0,0,1,0.97087597847,,,,,2015_Sep_21_1604,G,facesParametric,6,59.6466398935,
./stim/MorphM9_04_orig.jpg,29,,,,,0,29,29,29,,,,,,,,,,,,,,,,,,,-23.349609375,-11.748046875,0,0,1,3.14987492561,,,,,2015_Sep_21_1604,G,facesParametric,6,59.6466398935,
./stim/MorphF6_01_orig.jpg,30,,,,,0,30,30,30,,,,,,,,,,,,,,,,,,,-23.3203125,-11.77734375,0,0,1,0.935081005096,,,,,2015_Sep_21_1604,G,facesParametric,6,59.6466398935,
./stim/MorphM7_05_orig.jpg,31,,,,,0,31,31,31,,,,,,,,,,,,,,,,,,,-23.3203125,-11.77734375,1,0,0,3.16552901268,,,,,2015_Sep_21_1604,G,facesParametric,6,59.6466398935,
./stim/MorphM1_06_orig.jpg,32,,,,,0,32,32,32,,,,,,,,,,,,,,,,,,,-23.3203125,-11.77734375,1,0,0,1.10511898994,,,,,2015_Sep_21_1604,G,facesParametric,6,59.6466398935,
./stim/MorphM3_10_orig.jpg,33,,,,,0,33,33,33,,,,,,,,,,,,,,,,,,,-23.3203125,-11.77734375,1,0,0,2.24446296692,,,,,2015_Sep_21_1604,G,facesParametric,6,59.6466398935,
./stim/MorphF1_10_orig.jpg,34,,,,,0,34,34,34,,,,,,,,,,,,,,,,,,,-23.3203125,-11.77734375,1,0,0,5.84817790985,,,,,2015_Sep_21_1604,G,facesParametric,6,59.6466398935,
./stim/MorphF5_09_orig.jpg,35,,,,,0,35,35,35,,,,,,,,,,,,,,,,,,,-23.3203125,-11.77734375,1,0,0,0.734332084656,,,,,2015_Sep_21_1604,G,facesParametric,6,59.6466398935,
./stim/MorphF10_02_orig.jpg,36,,,,,0,36,36,36,,,,,,,,,,,,,,,,,,,-23.3203125,-11.77734375,0,0,1,0.937390089035,,,,,2015_Sep_21_1604,G,facesParametric,6,59.6466398935,
./stim/MorphF7_08_orig.jpg,37,,,,,0,37,37,37,,,,,,,,,,,,,,,,,,,-23.349609375,-11.71875,1,0,0,3.39938592911,,,,,2015_Sep_21_1604,G,facesParametric,6,59.6466398935,
./stim/MorphM10_02_orig.jpg,38,,,,,0,38,38,38,,,,,,,,,,,,,,,,,,,-23.349609375,-11.71875,1,0,0,0.685997009277,,,,,2015_Sep_21_1604,G,facesParametric,6,59.6466398935,
./stim/MorphM8_08_orig.jpg,39,,,,,0,39,39,39,,,,,,,,,,,,,,,,,,,-23.349609375,-11.71875,1,0,0,3.0829231739,,,,,2015_Sep_21_1604,G,facesParametric,6,59.6466398935,
./stim/MorphF6_05_orig.jpg,40,,,,,0,40,40,40,,,,,,,,,,,,,,,,,,,-23.349609375,-11.71875,0,0,1,2.12708306313,,,,,2015_Sep_21_1604,G,facesParametric,6,59.6466398935,
./stim/MorphF1_05_orig.jpg,41,,,,,0,41,41,41,,,,,,,,,,,,,,,,,,,-23.349609375,-11.71875,0,0,1,1.02066588402,,,,,2015_Sep_21_1604,G,facesParametric,6,59.6466398935,
./stim/MorphF9_08_orig.jpg,42,,,,,0,42,42,42,,,,,,,,,,,,,,,,,,,-23.349609375,-11.71875,1,0,0,1.08667993546,,,,,2015_Sep_21_1604,G,facesParametric,6,59.6466398935,
./stim/MorphM9_02_orig.jpg,43,,,,,0,43,43,43,,,,,,,,,,,,,,,,,,,-23.349609375,-11.71875,0,0,1,0.987524032593,,,,,2015_Sep_21_1604,G,facesParametric,6,59.6466398935,
./stim/MorphF2_00_orig.jpg,44,,,,,0,44,44,44,,,,,,,,,,,,,,,,,,,-23.349609375,-11.71875,0,0,1,1.08818387985,,,,,2015_Sep_21_1604,G,facesParametric,6,59.6466398935,
./stim/MorphF3_03_orig.jpg,45,,,,,0,45,45,45,,,,,,,,,,,,,,,,,,,-23.3203125,-11.748046875,0,0,1,1.12171816826,,,,,2015_Sep_21_1604,G,facesParametric,6,59.6466398935,
./stim/MorphF8_01_orig.jpg,46,,,,,0,46,46,46,,,,,,,,,,,,,,,,,,,-23.3203125,-11.748046875,0,0,1,0.820015907288,,,,,2015_Sep_21_1604,G,facesParametric,6,59.6466398935,
./stim/MorphM6_03_orig.jpg,47,,,,,0,47,47,47,,,,,,,,,,,,,,,,,,,-23.3203125,-11.748046875,0,0,1,1.07041716576,,,,,2015_Sep_21_1604,G,facesParametric,6,59.6466398935,
./stim/MorphF3_02_orig.jpg,48,,,,,0,48,48,48,,,,,,,,,,,,,,,,,,,-23.349609375,-11.748046875,0,0,1,1.13763904572,,,,,2015_Sep_21_1604,G,facesParametric,6,59.6466398935,
./stim/MorphM9_06_orig.jpg,49,,,,,0,49,49,49,,,,,,,,,,,,,,,,,,,-23.37890625,-11.748046875,0,0,1,1.9249420166,,,,,2015_Sep_21_1604,G,facesParametric,6,59.6466398935,
./stim/MorphM4_05_orig.jpg,50,,,,,0,50,50,50,,,,,,,,,,,,,,,,,,,-23.408203125,-11.748046875,1,0,0,1.1549680233,,,,,2015_Sep_21_1604,G,facesParametric,6,59.6466398935,
./stim/MorphM9_08_orig.jpg,51,,,,,0,51,51,51,,,,,,,,,,,,,,,,,,,-23.408203125,-11.748046875,1,0,0,3.66811513901,,,,,2015_Sep_21_1604,G,facesParametric,6,59.6466398935,
./stim/MorphM1_01_orig.jpg,52,,,,,0,52,52,52,,,,,,,,,,,,,,,,,,,-23.408203125,-11.748046875,0,0,1,1.27194690704,,,,,2015_Sep_21_1604,G,facesParametric,6,59.6466398935,
./stim/MorphF3_09_orig.jpg,53,,,,,0,53,53,53,,,,,,,,,,,,,,,,,,,-23.4375,-11.748046875,1,0,0,1.35640597343,,,,,2015_Sep_21_1604,G,facesParametric,6,59.6466398935,
./stim/MorphM9_10_orig.jpg,54,,,,,0,54,54,54,,,,,,,,,,,,,,,,,,,-23.4375,-11.748046875,1,0,0,6.19931602478,,,,,2015_Sep_21_1604,G,facesParametric,6,59.6466398935,
./stim/MorphF4_01_orig.jpg,55,,,,,0,55,55,55,,,,,,,,,,,,,,,,,,,-23.4375,-11.748046875,0,0,1,0.78631901741,,,,,2015_Sep_21_1604,G,facesParametric,6,59.6466398935,
./stim/MorphF9_09_orig.jpg,56,,,,,0,56,56,56,,,,,,,,,,,,,,,,,,,-23.4375,-11.748046875,1,0,0,4.77621817589,,,,,2015_Sep_21_1604,G,facesParametric,6,59.6466398935,
./stim/MorphF5_06_orig.jpg,57,,,,,0,57,57,57,,,,,,,,,,,,,,,,,,,-23.4375,-11.748046875,1,0,0,0.852388858795,,,,,2015_Sep_21_1604,G,facesParametric,6,59.6466398935,
./stim/MorphM5_05_orig.jpg,58,,,,,0,58,58,58,,,,,,,,,,,,,,,,,,,-23.4375,-11.748046875,1,0,0,1.1883649826,,,,,2015_Sep_21_1604,G,facesParametric,6,59.6466398935,
./stim/MorphM1_00_orig.jpg,59,,,,,0,59,59,59,,,,,,,,,,,,,,,,,,,-23.4375,-11.748046875,0,0,1,1.52382707596,,,,,2015_Sep_21_1604,G,facesParametric,6,59.6466398935,
./stim/MorphM6_09_orig.jpg,60,,,,,0,60,60,60,,,,,,,,,,,,,,,,,,,-23.115234375,-11.8359375,1,0,0,5.15943694115,,,,,2015_Sep_21_1604,G,facesParametric,6,59.6466398935,
./stim/MorphF3_05_orig.jpg,61,,,,,0,61,61,61,,,,,,,,,,,,,,,,,,,-23.0859375,-11.8359375,0,0,1,1.40598201752,,,,,2015_Sep_21_1604,G,facesParametric,6,59.6466398935,
./stim/MorphF2_05_orig.jpg,62,,,,,0,62,62,62,,,,,,,,,,,,,,,,,,,-23.0859375,-11.8359375,0,0,1,2.07692694664,,,,,2015_Sep_21_1604,G,facesParametric,6,59.6466398935,
./stim/MorphF3_08_orig.jpg,63,,,,,0,63,63,63,,,,,,,,,,,,,,,,,,,-22.880859375,-11.77734375,0,0,1,8.94682812691,,,,,2015_Sep_21_1604,G,facesParametric,6,59.6466398935,
./stim/MorphM10_00_orig.jpg,64,,,,,0,64,64,64,,,,,,,,,,,,,,,,,,,-22.8515625,-11.748046875,0,0,1,0.786487102509,,,,,2015_Sep_21_1604,G,facesParametric,6,59.6466398935,
./stim/MorphF4_10_orig.jpg,65,,,,,0,65,65,65,,,,,,,,,,,,,,,,,,,-22.8515625,-11.748046875,1,0,0,0.988434791565,,,,,2015_Sep_21_1604,G,facesParametric,6,59.6466398935,
./stim/MorphF8_06_orig.jpg,66,,,,,0,66,66,66,,,,,,,,,,,,,,,,,,,-22.822265625,-11.71875,0,0,1,4.60698008537,,,,,2015_Sep_21_1604,G,facesParametric,6,59.6466398935,
./stim/MorphF2_04_orig.jpg,67,,,,,0,67,67,67,,,,,,,,,,,,,,,,,,,-22.79296875,-11.71875,0,0,1,0.870561122894,,,,,2015_Sep_21_1604,G,facesParametric,6,59.6466398935,
./stim/MorphM3_03_orig.jpg,68,,,,,0,68,68,68,,,,,,,,,,,,,,,,,,,-22.763671875,-11.748046875,0,0,1,1.25458884239,,,,,2015_Sep_21_1604,G,facesParametric,6,59.6466398935,
./stim/MorphM1_09_orig.jpg,69,,,,,0,69,69,69,,,,,,,,,,,,,,,,,,,-22.763671875,-11.748046875,1,0,0,1.30397510529,,,,,2015_Sep_21_1604,G,facesParametric,6,59.6466398935,
./stim/MorphM5_04_orig.jpg,70,,,,,0,70,70,70,,,,,,,,,,,,,,,,,,,-22.79296875,-11.77734375,0,0,1,1.72483611107,,,,,2015_Sep_21_1604,G,facesParametric,6,59.6466398935,
./stim/MorphM2_06_orig.jpg,71,,,,,0,71,71,71,,,,,,,,,,,,,,,,,,,-22.79296875,-11.77734375,0,0,1,3.88701891899,,,,,2015_Sep_21_1604,G,facesParametric,6,59.6466398935,
./stim/MorphM9_01_orig.jpg,72,,,,,0,72,72,72,,,,,,,,,,,,,,,,,,,-22.8515625,-11.77734375,0,0,1,0.88686299324,,,,,2015_Sep_21_1604,G,facesParametric,6,59.6466398935,
./stim/MorphM3_02_orig.jpg,73,,,,,0,73,73,73,,,,,,,,,,,,,,,,,,,-22.880859375,-11.77734375,0,0,1,1.32256603241,,,,,2015_Sep_21_1604,G,facesParametric,6,59.6466398935,
./stim/MorphF4_05_orig.jpg,74,,,,,0,74,74,74,,,,,,,,,,,,,,,,,,,-22.91015625,-11.806640625,0,0,1,0.752341985703,,,,,2015_Sep_21_1604,G,facesParametric,6,59.6466398935,
./stim/MorphF9_06_orig.jpg,75,,,,,0,75,75,75,,,,,,,,,,,,,,,,,,,-22.939453125,-11.806640625,0,0,1,2.21053290367,,,,,2015_Sep_21_1604,G,facesParametric,6,59.6466398935,
./stim/MorphM5_10_orig.jpg,76,,,,,0,76,76,76,,,,,,,,,,,,,,,,,,,-22.96875,-11.8359375,1,0,0,1.16957998276,,,,,2015_Sep_21_1604,G,facesParametric,6,59.6466398935,
./stim/MorphF8_00_orig.jpg,77,,,,,0,77,77,77,,,,,,,,,,,,,,,,,,,-22.96875,-11.8359375,0,0,1,1.47360992432,,,,,2015_Sep_21_1604,G,facesParametric,6,59.6466398935,
./stim/MorphM6_06_orig.jpg,78,,,,,0,78,78,78,,,,,,,,,,,,,,,,,,,-22.96875,-11.8359375,0,0,1,1.37033510208,,,,,2015_Sep_21_1604,G,facesParametric,6,59.6466398935,
./stim/MorphM3_01_orig.jpg,79,,,,,0,79,79,79,,,,,,,,,,,,,,,,,,,-22.998046875,-11.865234375,0,0,1,0.987780809402,,,,,2015_Sep_21_1604,G,facesParametric,6,59.6466398935,
./stim/MorphM9_00_orig.jpg,80,,,,,0,80,80,80,,,,,,,,,,,,,,,,,,,-23.02734375,-11.89453125,0,0,1,1.05380296707,,,,,2015_Sep_21_1604,G,facesParametric,6,59.6466398935,
./stim/MorphM5_07_orig.jpg,81,,,,,0,81,81,81,,,,,,,,,,,,,,,,,,,-23.02734375,-11.89453125,1,0,0,0.836309909821,,,,,2015_Sep_21_1604,G,facesParametric,6,59.6466398935,
./stim/MorphM2_03_orig.jpg,82,,,,,0,82,82,82,,,,,,,,,,,,,,,,,,,-23.02734375,-11.89453125,0,0,1,2.37824082375,,,,,2015_Sep_21_1604,G,facesParametric,6,59.6466398935,
./stim/MorphM10_06_orig.jpg,83,,,,,0,83,83,83,,,,,,,,,,,,,,,,,,,-23.02734375,-11.89453125,1,0,0,0.702945947647,,,,,2015_Sep_21_1604,G,facesParametric,6,59.6466398935,
./stim/MorphM5_03_orig.jpg,84,,,,,0,84,84,84,,,,,,,,,,,,,,,,,,,-23.02734375,-11.89453125,1,0,0,0.953691005707,,,,,2015_Sep_21_1604,G,facesParametric,6,59.6466398935,
./stim/MorphM10_08_orig.jpg,85,,,,,0,85,85,85,,,,,,,,,,,,,,,,,,,-23.02734375,-11.89453125,0,0,1,1.2539639473,,,,,2015_Sep_21_1604,G,facesParametric,6,59.6466398935,
./stim/MorphF5_10_orig.jpg,86,,,,,0,86,86,86,,,,,,,,,,,,,,,,,,,-23.0859375,-11.865234375,1,0,0,1.08863687515,,,,,2015_Sep_21_1604,G,facesParametric,6,59.6466398935,
./stim/MorphM8_05_orig.jpg,87,,,,,0,87,87,87,,,,,,,,,,,,,,,,,,,-23.0859375,-11.865234375,1,0,0,2.64610695839,,,,,2015_Sep_21_1604,G,facesParametric,6,59.6466398935,
./stim/MorphM2_08_orig.jpg,88,,,,,0,88,88,88,,,,,,,,,,,,,,,,,,,-23.0859375,-11.865234375,1,0,0,1.70851397514,,,,,2015_Sep_21_1604,G,facesParametric,6,59.6466398935,
./stim/MorphF6_08_orig.jpg,89,,,,,0,89,89,89,,,,,,,,,,,,,,,,,,,-23.0859375,-11.865234375,1,0,0,1.00193500519,,,,,2015_Sep_21_1604,G,facesParametric,6,59.6466398935,
./stim/MorphM8_00_orig.jpg,90,,,,,0,90,90,90,,,,,,,,,,,,,,,,,,,-23.0859375,-11.865234375,0,0,1,0.937742948532,,,,,2015_Sep_21_1604,G,facesParametric,6,59.6466398935,
./stim/MorphM5_02_orig.jpg,91,,,,,0,91,91,91,,,,,,,,,,,,,,,,,,,-23.0859375,-11.8359375,0,0,1,4.70776581764,,,,,2015_Sep_21_1604,G,facesParametric,6,59.6466398935,
./stim/MorphM2_04_orig.jpg,92,,,,,0,92,92,92,,,,,,,,,,,,,,,,,,,-23.0859375,-11.8359375,0,0,1,2.00975608826,,,,,2015_Sep_21_1604,G,facesParametric,6,59.6466398935,
./stim/MorphF4_04_orig.jpg,93,,,,,0,93,93,93,,,,,,,,,,,,,,,,,,,-23.0859375,-11.8359375,0,0,1,1.30582118034,,,,,2015_Sep_21_1604,G,facesParametric,6,59.6466398935,
./stim/MorphF7_04_orig.jpg,94,,,,,0,94,94,94,,,,,,,,,,,,,,,,,,,-23.056640625,-11.806640625,0,0,1,1.33764815331,,,,,2015_Sep_21_1604,G,facesParametric,6,59.6466398935,
./stim/MorphM7_08_orig.jpg,95,,,,,0,95,95,95,,,,,,,,,,,,,,,,,,,-23.056640625,-11.806640625,1,0,0,1.33953785896,,,,,2015_Sep_21_1604,G,facesParametric,6,59.6466398935,
./stim/MorphF1_06_orig.jpg,96,,,,,0,96,96,96,,,,,,,,,,,,,,,,,,,-23.056640625,-11.806640625,0,0,1,1.33944201469,,,,,2015_Sep_21_1604,G,facesParametric,6,59.6466398935,
./stim/MorphF7_10_orig.jpg,97,,,,,0,97,97,97,,,,,,,,,,,,,,,,,,,-23.0859375,-11.77734375,1,0,0,1.69135403633,,,,,2015_Sep_21_1604,G,facesParametric,6,59.6466398935,
./stim/MorphM3_00_orig.jpg,98,,,,,0,98,98,98,,,,,,,,,,,,,,,,,,,-23.0859375,-11.77734375,0,0,1,7.00415587425,,,,,2015_Sep_21_1604,G,facesParametric,6,59.6466398935,
./stim/MorphF8_02_orig.jpg,99,,,,,0,99,99,99,,,,,,,,,,,,,,,,,,,-23.0859375,-11.77734375,0,0,1,1.08800792694,,,,,2015_Sep_21_1604,G,facesParametric,6,59.6466398935,
./stim/MorphM7_10_orig.jpg,100,,,,,0,100,100,100,,,,,,,,,,,,,,,,,,,-23.0859375,-11.77734375,1,0,0,0.601973056793,,,,,2015_Sep_21_1604,G,facesParametric,6,59.6466398935,
./stim/MorphM1_10_orig.jpg,101,,,,,0,101,101,101,,,,,,,,,,,,,,,,,,,-23.0859375,-11.77734375,1,0,0,2.39574193954,,,,,2015_Sep_21_1604,G,facesParametric,6,59.6466398935,
./stim/MorphM2_01_orig.jpg,102,,,,,0,102,102,102,,,,,,,,,,,,,,,,,,,-23.0859375,-11.77734375,0,0,1,1.4564268589,,,,,2015_Sep_21_1604,G,facesParametric,6,59.6466398935,
./stim/MorphM10_09_orig.jpg,103,,,,,0,103,103,103,,,,,,,,,,,,,,,,,,,-23.0859375,-11.77734375,1,0,0,0.784685134888,,,,,2015_Sep_21_1604,G,facesParametric,6,59.6466398935,
./stim/MorphF3_06_orig.jpg,104,,,,,0,104,104,104,,,,,,,,,,,,,,,,,,,-23.0859375,-11.77734375,1,0,0,2.22645807266,,,,,2015_Sep_21_1604,G,facesParametric,6,59.6466398935,
./stim/MorphF6_02_orig.jpg,105,,,,,0,105,105,105,,,,,,,,,,,,,,,,,,,-23.0859375,-11.77734375,0,0,1,1.62430596352,,,,,2015_Sep_21_1604,G,facesParametric,6,59.6466398935,
./stim/MorphF9_05_orig.jpg,106,,,,,0,106,106,106,,,,,,,,,,,,,,,,,,,-23.4375,-13.154296875,0,0,1,4.28963208199,,,,,2015_Sep_21_1604,G,facesParametric,6,59.6466398935,
./stim/MorphM7_07_orig.jpg,107,,,,,0,107,107,107,,,,,,,,,,,,,,,,,,,-23.4375,-13.154296875,1,0,0,1.97662401199,,,,,2015_Sep_21_1604,G,facesParametric,6,59.6466398935,
./stim/MorphM2_00_orig.jpg,108,,,,,0,108,108,108,,,,,,,,,,,,,,,,,,,-23.4375,-13.154296875,0,0,1,1.45639705658,,,,,2015_Sep_21_1604,G,facesParametric,6,59.6466398935,
./stim/MorphF8_07_orig.jpg,109,,,,,0,109,109,109,,,,,,,,,,,,,,,,,,,-23.4375,-13.154296875,1,0,0,1.25587320328,,,,,2015_Sep_21_1604,G,facesParametric,6,59.6466398935,
./stim/MorphF9_02_orig.jpg,110,,,,,0,110,110,110,,,,,,,,,,,,,,,,,,,-23.4375,-13.154296875,0,0,1,0.81942486763,,,,,2015_Sep_21_1604,G,facesParametric,6,59.6466398935,
./stim/MorphF5_00_orig.jpg,111,,,,,0,111,111,111,,,,,,,,,,,,,,,,,,,-23.4375,-13.154296875,1,0,0,2.16068696976,,,,,2015_Sep_21_1604,G,facesParametric,6,59.6466398935,
./stim/MorphM6_05_orig.jpg,112,,,,,0,112,112,112,,,,,,,,,,,,,,,,,,,-23.4375,-13.154296875,0,0,1,4.5241060257,,,,,2015_Sep_21_1604,G,facesParametric,6,59.6466398935,
./stim/MorphM9_07_orig.jpg,113,,,,,0,113,113,113,,,,,,,,,,,,,,,,,,,-23.4375,-13.154296875,0,0,1,2.3282661438,,,,,2015_Sep_21_1604,G,facesParametric,6,59.6466398935,
./stim/MorphF1_02_orig.jpg,114,,,,,0,114,114,114,,,,,,,,,,,,,,,,,,,-23.4375,-13.154296875,0,0,1,1.50522494316,,,,,2015_Sep_21_1604,G,facesParametric,6,59.6466398935,
./stim/MorphM2_09_orig.jpg,115,,,,,0,115,115,115,,,,,,,,,,,,,,,,,,,-23.4375,-13.154296875,1,0,0,1.23676300049,,,,,2015_Sep_21_1604,G,facesParametric,6,59.6466398935,
./stim/MorphM3_04_orig.jpg,116,,,,,0,116,116,116,,,,,,,,,,,,,,,,,,,-23.4375,-13.154296875,0,0,1,1.99301695824,,,,,2015_Sep_21_1604,G,facesParametric,6,59.6466398935,
./stim/MorphM4_10_orig.jpg,117,,,,,0,117,117,117,,,,,,,,,,,,,,,,,,,-23.4375,-13.154296875,1,0,0,0.870082139969,,,,,2015_Sep_21_1604,G,facesParametric,6,59.6466398935,
./stim/MorphF10_10_orig.jpg,118,,,,,0,118,118,118,,,,,,,,,,,,,,,,,,,-23.4375,-13.154296875,1,0,0,1.00421595573,,,,,2015_Sep_21_1604,G,facesParametric,6,59.6466398935,
./stim/MorphM1_04_orig.jpg,119,,,,,0,119,119,119,,,,,,,,,,,,,,,,,,,-23.4375,-13.125,0,0,1,1.0699338913,,,,,2015_Sep_21_1604,G,facesParametric,6,59.6466398935,
./stim/MorphM6_10_orig.jpg,120,,,,,0,120,120,120,,,,,,,,,,,,,,,,,,,-23.4375,-13.125,1,0,0,0.968855142593,,,,,2015_Sep_21_1604,G,facesParametric,6,59.6466398935,
./stim/MorphF7_09_orig.jpg,121,,,,,0,121,121,121,,,,,,,,,,,,,,,,,,,-23.4375,-13.125,1,0,0,1.45618104935,,,,,2015_Sep_21_1604,G,facesParametric,6,59.6466398935,
./stim/MorphF4_02_orig.jpg,122,,,,,0,122,122,122,,,,,,,,,,,,,,,,,,,-23.4375,-13.125,0,0,1,0.803611040115,,,,,2015_Sep_21_1604,G,facesParametric,6,59.6466398935,
./stim/MorphF7_06_orig.jpg,123,,,,,0,123,123,123,,,,,,,,,,,,,,,,,,,-23.4375,-13.125,1,0,0,2.52861404419,,,,,2015_Sep_21_1604,G,facesParametric,6,59.6466398935,
./stim/MorphM7_00_orig.jpg,124,,,,,0,124,124,124,,,,,,,,,,,,,,,,,,,-23.4375,-13.125,0,0,1,2.98198390007,,,,,2015_Sep_21_1604,G,facesParametric,6,59.6466398935,
./stim/MorphF2_10_orig.jpg,125,,,,,0,125,125,125,,,,,,,,,,,,,,,,,,,-23.4375,-13.125,0,0,1,0.870463132858,,,,,2015_Sep_21_1604,G,facesParametric,6,59.6466398935,
./stim/MorphF5_08_orig.jpg,126,,,,,0,126,126,126,,,,,,,,,,,,,,,,,,,-23.349609375,-13.125,1,0,0,0.769570827484,,,,,2015_Sep_21_1604,G,facesParametric,6,59.6466398935,
./stim/MorphM4_01_orig.jpg,127,,,,,0,127,127,127,,,,,,,,,,,,,,,,,,,-23.232421875,-13.06640625,0,0,1,1.55567288399,,,,,2015_Sep_21_1604,G,facesParametric,6,59.6466398935,
./stim/MorphF1_01_orig.jpg,128,,,,,0,128,128,128,,,,,,,,,,,,,,,,,,,-23.232421875,-13.06640625,0,0,1,1.13823699951,,,,,2015_Sep_21_1604,G,facesParametric,6,59.6466398935,
./stim/MorphF7_07_orig.jpg,129,,,,,0,129,129,129,,,,,,,,,,,,,,,,,,,-23.232421875,-13.06640625,1,0,0,0.71967792511,,,,,2015_Sep_21_1604,G,facesParametric,6,59.6466398935,
./stim/MorphF1_07_orig.jpg,130,,,,,0,130,130,130,,,,,,,,,,,,,,,,,,,-23.232421875,-13.06640625,1,0,0,1.62421798706,,,,,2015_Sep_21_1604,G,facesParametric,6,59.6466398935,
./stim/MorphF7_05_orig.jpg,131,,,,,0,131,131,131,,,,,,,,,,,,,,,,,,,-23.203125,-13.037109375,1,0,0,3.88549113274,,,,,2015_Sep_21_1604,G,facesParametric,6,59.6466398935,
./stim/MorphF4_03_orig.jpg,132,,,,,0,132,132,132,,,,,,,,,,,,,,,,,,,-23.203125,-13.037109375,0,0,1,0.769840955734,,,,,2015_Sep_21_1604,G,facesParametric,6,59.6466398935,
./stim/MorphM6_08_orig.jpg,133,,,,,0,133,133,133,,,,,,,,,,,,,,,,,,,-23.203125,-13.037109375,1,0,0,1.08664798737,,,,,2015_Sep_21_1604,G,facesParametric,6,59.6466398935,
./stim/MorphM7_02_orig.jpg,134,,,,,0,134,134,134,,,,,,,,,,,,,,,,,,,-23.203125,-13.037109375,0,0,1,1.47354793549,,,,,2015_Sep_21_1604,G,facesParametric,6,59.6466398935,
./stim/MorphF5_04_orig.jpg,135,,,,,0,135,135,135,,,,,,,,,,,,,,,,,,,-23.203125,-13.037109375,0,0,1,1.72383594513,,,,,2015_Sep_21_1604,G,facesParametric,6,59.6466398935,
./stim/MorphM8_10_orig.jpg,136,,,,,0,136,136,136,,,,,,,,,,,,,,,,,,,-23.203125,-13.037109375,1,0,0,2.24479079247,,,,,2015_Sep_21_1604,G,facesParametric,6,59.6466398935,
./stim/MorphF5_03_orig.jpg,137,,,,,0,137,137,137,,,,,,,,,,,,,,,,,,,-23.203125,-13.037109375,0,0,1,1.28738689423,,,,,2015_Sep_21_1604,G,facesParametric,6,59.6466398935,
./stim/MorphM8_09_orig.jpg,138,,,,,0,138,138,138,,,,,,,,,,,,,,,,,,,-23.203125,-13.037109375,1,0,0,5.17750620842,,,,,2015_Sep_21_1604,G,facesParametric,6,59.6466398935,
./stim/MorphF10_00_orig.jpg,139,,,,,0,139,139,139,,,,,,,,,,,,,,,,,,,-23.203125,-13.037109375,0,0,1,3.50195193291,,,,,2015_Sep_21_1604,G,facesParametric,6,59.6466398935,
./stim/MorphF7_01_orig.jpg,140,,,,,0,140,140,140,,,,,,,,,,,,,,,,,,,-23.203125,-13.037109375,0,0,1,1.43761110306,,,,,2015_Sep_21_1604,G,facesParametric,6,59.6466398935,
./stim/MorphM3_05_orig.jpg,141,,,,,0,141,141,141,,,,,,,,,,,,,,,,,,,-23.203125,-13.037109375,0,0,1,2.04379701614,,,,,2015_Sep_21_1604,G,facesParametric,6,59.6466398935,
./stim/MorphM8_03_orig.jpg,142,,,,,0,142,142,142,,,,,,,,,,,,,,,,,,,-23.203125,-13.037109375,1,0,0,2.17736506462,,,,,2015_Sep_21_1604,G,facesParametric,6,59.6466398935,
./stim/MorphF9_07_orig.jpg,143,,,,,0,143,143,143,,,,,,,,,,,,,,,,,,,-23.14453125,-13.037109375,1,0,0,0.934860944748,,,,,2015_Sep_21_1604,G,facesParametric,6,59.6466398935,
./stim/MorphF3_00_orig.jpg,144,,,,,0,144,144,144,,,,,,,,,,,,,,,,,,,-22.8515625,-13.037109375,0,0,1,0.937556028366,,,,,2015_Sep_21_1604,G,facesParametric,6,59.6466398935,
./stim/MorphM7_09_orig.jpg,145,,,,,0,145,145,145,,,,,,,,,,,,,,,,,,,-22.8515625,-13.037109375,1,0,0,0.735785007477,,,,,2015_Sep_21_1604,G,facesParametric,6,59.6466398935,
./stim/MorphF6_03_orig.jpg,146,,,,,0,146,146,146,,,,,,,,,,,,,,,,,,,-22.734375,-13.0078125,0,0,1,1.07149505615,,,,,2015_Sep_21_1604,G,facesParametric,6,59.6466398935,
./stim/MorphF8_04_orig.jpg,147,,,,,0,147,147,147,,,,,,,,,,,,,,,,,,,-22.705078125,-12.978515625,0,0,1,3.75113105774,,,,,2015_Sep_21_1604,G,facesParametric,6,59.6466398935,
./stim/MorphM4_09_orig.jpg,148,,,,,0,148,148,148,,,,,,,,,,,,,,,,,,,-22.705078125,-12.978515625,1,0,0,0.769801139832,,,,,2015_Sep_21_1604,G,facesParametric,6,59.6466398935,
./stim/MorphM2_02_orig.jpg,149,,,,,0,149,149,149,,,,,,,,,,,,,,,,,,,-22.470703125,-13.125,0,0,1,4.62420105934,,,,,2015_Sep_21_1604,G,facesParametric,6,59.6466398935,
./stim/MorphF9_01_orig.jpg,150,,,,,0,150,150,150,,,,,,,,,,,,,,,,,,,-22.412109375,-13.125,0,0,1,0.803165912628,,,,,2015_Sep_21_1604,G,facesParametric,6,59.6466398935,
./stim/MorphM7_06_orig.jpg,151,,,,,0,151,151,151,,,,,,,,,,,,,,,,,,,-22.412109375,-13.125,1,0,0,0.568426847458,,,,,2015_Sep_21_1604,G,facesParametric,6,59.6466398935,
./stim/MorphF5_01_orig.jpg,152,,,,,0,152,152,152,,,,,,,,,,,,,,,,,,,-22.3828125,-13.125,0,0,1,1.27224302292,,,,,2015_Sep_21_1604,G,facesParametric,6,59.6466398935,
./stim/MorphF6_09_orig.jpg,153,,,,,0,153,153,153,,,,,,,,,,,,,,,,,,,-22.3828125,-13.125,1,0,0,1.22214198112,,,,,2015_Sep_21_1604,G,facesParametric,6,59.6466398935,
./stim/MorphF8_10_orig.jpg,154,,,,,0,154,154,154,,,,,,,,,,,,,,,,,,,-22.3828125,-13.125,1,0,0,0.904108047485,,,,,2015_Sep_21_1604,G,facesParametric,6,59.6466398935,
./stim/MorphF6_10_orig.jpg,155,,,,,0,155,155,155,,,,,,,,,,,,,,,,,,,-22.294921875,-13.095703125,1,0,0,0.668913841248,,,,,2015_Sep_21_1604,G,facesParametric,6,59.6466398935,
./stim/MorphM7_03_orig.jpg,156,,,,,0,156,156,156,,,,,,,,,,,,,,,,,,,-22.294921875,-13.095703125,0,0,1,1.64081120491,,,,,2015_Sep_21_1604,G,facesParametric,6,59.6466398935,
./stim/MorphM9_09_orig.jpg,157,,,,,0,157,157,157,,,,,,,,,,,,,,,,,,,-22.294921875,-13.095703125,1,0,0,1.82367181778,,,,,2015_Sep_21_1604,G,facesParametric,6,59.6466398935,
./stim/MorphM4_06_orig.jpg,158,,,,,0,158,158,158,,,,,,,,,,,,,,,,,,,-22.20703125,-13.037109375,1,0,0,2.7980120182,,,,,2015_Sep_21_1604,G,facesParametric,6,59.6466398935,
./stim/MorphF9_10_orig.jpg,159,,,,,0,159,159,159,,,,,,,,,,,,,,,,,,,-22.001953125,-13.154296875,1,0,0,5.66328692436,,,,,2015_Sep_21_1604,G,facesParametric,6,59.6466398935,
./stim/MorphF2_03_orig.jpg,160,,,,,0,160,160,160,,,,,,,,,,,,,,,,,,,-23.26171875,-13.06640625,0,0,1,2.6802880764,,,,,2015_Sep_21_1604,G,facesParametric,6,59.6466398935,
./stim/MorphM3_06_orig.jpg,161,,,,,0,161,161,161,,,,,,,,,,,,,,,,,,,-23.4375,-13.154296875,1,0,0,0.870018005371,,,,,2015_Sep_21_1604,G,facesParametric,6,59.6466398935,
./stim/MorphF4_07_orig.jpg,162,,,,,0,162,162,162,,,,,,,,,,,,,,,,,,,-23.4375,-13.154296875,1,0,0,1.85858082771,,,,,2015_Sep_21_1604,G,facesParametric,6,59.6466398935,
./stim/MorphF1_03_orig.jpg,163,,,,,0,163,163,163,,,,,,,,,,,,,,,,,,,-23.291015625,-13.154296875,0,0,1,1.15416502953,,,,,2015_Sep_21_1604,G,facesParametric,6,59.6466398935,
./stim/MorphF3_01_orig.jpg,164,,,,,0,164,164,164,,,,,,,,,,,,,,,,,,,-23.173828125,-13.037109375,0,0,1,1.05263185501,,,,,2015_Sep_21_1604,G,facesParametric,6,59.6466398935,
./stim/MorphF10_01_orig.jpg,165,,,,,0,165,165,165,,,,,,,,,,,,,,,,,,,-23.173828125,-13.037109375,0,0,1,1.92476201057,,,,,2015_Sep_21_1604,G,facesParametric,6,59.6466398935,
./stim/MorphM6_02_orig.jpg,166,,,,,0,166,166,166,,,,,,,,,,,,,,,,,,,-23.14453125,-13.0078125,1,0,0,0.768919944763,,,,,2015_Sep_21_1604,G,facesParametric,6,59.6466398935,
./stim/MorphF4_06_orig.jpg,167,,,,,0,167,167,167,,,,,,,,,,,,,,,,,,,-23.056640625,-12.890625,0,0,1,0.920252084732,,,,,2015_Sep_21_1604,G,facesParametric,6,59.6466398935,
./stim/MorphM9_05_orig.jpg,168,,,,,0,168,168,168,,,,,,,,,,,,,,,,,,,-23.02734375,-12.919921875,0,0,1,1.52208900452,,,,,2015_Sep_21_1604,G,facesParametric,6,59.6466398935,
./stim/MorphF4_08_orig.jpg,169,,,,,0,169,169,169,,,,,,,,,,,,,,,,,,,-23.02734375,-12.919921875,1,0,0,0.95401096344,,,,,2015_Sep_21_1604,G,facesParametric,6,59.6466398935,
./stim/MorphM7_01_orig.jpg,170,,,,,0,170,170,170,,,,,,,,,,,,,,,,,,,-23.02734375,-12.919921875,0,0,1,1.10499405861,,,,,2015_Sep_21_1604,G,facesParametric,6,59.6466398935,
./stim/MorphM10_05_orig.jpg,171,,,,,0,171,171,171,,,,,,,,,,,,,,,,,,,-23.056640625,-12.890625,1,0,0,0.718741893768,,,,,2015_Sep_21_1604,G,facesParametric,6,59.6466398935,
./stim/MorphM3_07_orig.jpg,172,,,,,0,172,172,172,,,,,,,,,,,,,,,,,,,-23.056640625,-12.890625,1,0,0,0.903151035309,,,,,2015_Sep_21_1604,G,facesParametric,6,59.6466398935,
./stim/MorphF10_05_orig.jpg,173,,,,,0,173,173,173,,,,,,,,,,,,,,,,,,,-23.056640625,-12.890625,1,0,0,1.23865318298,,,,,2015_Sep_21_1604,G,facesParametric,6,59.6466398935,
./stim/MorphM6_04_orig.jpg,174,,,,,0,174,174,174,,,,,,,,,,,,,,,,,,,-23.056640625,-12.890625,0,0,1,1.0713660717,,,,,2015_Sep_21_1604,G,facesParametric,6,59.6466398935,
./stim/MorphF10_04_orig.jpg,175,,,,,0,175,175,175,,,,,,,,,,,,,,,,,,,-22.998046875,-12.861328125,0,0,1,2.02780294418,,,,,2015_Sep_21_1604,G,facesParametric,6,59.6466398935,
./stim/MorphM4_04_orig.jpg,176,,,,,0,176,176,176,,,,,,,,,,,,,,,,,,,-22.998046875,-12.861328125,1,0,0,0.701761960983,,,,,2015_Sep_21_1604,G,facesParametric,6,59.6466398935,
./stim/MorphF5_02_orig.jpg,177,,,,,0,177,177,177,,,,,,,,,,,,,,,,,,,-22.96875,-12.861328125,0,0,1,0.937311172485,,,,,2015_Sep_21_1604,G,facesParametric,6,59.6466398935,
./stim/MorphM4_00_orig.jpg,178,,,,,0,178,178,178,,,,,,,,,,,,,,,,,,,-22.939453125,-12.83203125,1,0,0,0.718045949936,,,,,2015_Sep_21_1604,G,facesParametric,6,59.6466398935,
./stim/MorphM10_10_orig.jpg,179,,,,,0,179,179,179,,,,,,,,,,,,,,,,,,,-22.939453125,-12.83203125,1,0,0,1.120043993,,,,,2015_Sep_21_1604,G,facesParametric,6,59.6466398935,
./stim/MorphF4_09_orig.jpg,180,,,,,0,180,180,180,,,,,,,,,,,,,,,,,,,-22.939453125,-12.83203125,1,0,0,0.886030912399,,,,,2015_Sep_21_1604,G,facesParametric,6,59.6466398935,
./stim/MorphM1_07_orig.jpg,181,,,,,0,181,181,181,,,,,,,,,,,,,,,,,,,-22.939453125,-12.83203125,1,0,0,0.76499414444,,,,,2015_Sep_21_1604,G,facesParametric,6,59.6466398935,
./stim/MorphF2_06_orig.jpg,182,,,,,0,182,182,182,,,,,,,,,,,,,,,,,,,-22.939453125,-12.83203125,1,0,0,1.80888700485,,,,,2015_Sep_21_1604,G,facesParametric,6,59.6466398935,
./stim/MorphM8_07_orig.jpg,183,,,,,0,183,183,183,,,,,,,,,,,,,,,,,,,-22.939453125,-12.83203125,1,0,0,1.87334012985,,,,,2015_Sep_21_1604,G,facesParametric,6,59.6466398935,
./stim/MorphM5_01_orig.jpg,184,,,,,0,184,184,184,,,,,,,,,,,,,,,,,,,-22.939453125,-12.83203125,0,0,1,3.33506202698,,,,,2015_Sep_21_1604,G,facesParametric,6,59.6466398935,
./stim/MorphF3_04_orig.jpg,185,,,,,0,185,185,185,,,,,,,,,,,,,,,,,,,-22.91015625,-12.83203125,1,0,0,1.27083992958,,,,,2015_Sep_21_1604,G,facesParametric,6,59.6466398935,
./stim/MorphF1_00_orig.jpg,186,,,,,0,186,186,186,,,,,,,,,,,,,,,,,,,-22.91015625,-12.83203125,0,0,1,1.0546040535,,,,,2015_Sep_21_1604,G,facesParametric,6,59.6466398935,
./stim/MorphM10_04_orig.jpg,187,,,,,0,187,187,187,,,,,,,,,,,,,,,,,,,-22.91015625,-12.83203125,1,0,0,1.57427310944,,,,,2015_Sep_21_1604,G,facesParametric,6,59.6466398935,
./stim/MorphM8_06_orig.jpg,188,,,,,0,188,188,188,,,,,,,,,,,,,,,,,,,-22.91015625,-12.83203125,1,0,0,1.13838505745,,,,,2015_Sep_21_1604,G,facesParametric,6,59.6466398935,
./stim/MorphF5_07_orig.jpg,189,,,,,0,189,189,189,,,,,,,,,,,,,,,,,,,-22.91015625,-12.83203125,1,0,0,0.852849006653,,,,,2015_Sep_21_1604,G,facesParametric,6,59.6466398935,
./stim/MorphM5_09_orig.jpg,190,,,,,0,190,190,190,,,,,,,,,,,,,,,,,,,-22.91015625,-12.83203125,1,0,0,0.767946958542,,,,,2015_Sep_21_1604,G,facesParametric,6,59.6466398935,
./stim/MorphF2_08_orig.jpg,191,,,,,0,191,191,191,,,,,,,,,,,,,,,,,,,-22.880859375,-12.861328125,1,0,0,0.820161104202,,,,,2015_Sep_21_1604,G,facesParametric,6,59.6466398935,
./stim/MorphF1_04_orig.jpg,192,,,,,0,192,192,192,,,,,,,,,,,,,,,,,,,-22.880859375,-12.861328125,0,0,1,1.55514502525,,,,,2015_Sep_21_1604,G,facesParametric,6,59.6466398935,
./stim/MorphM10_07_orig.jpg,193,,,,,0,193,193,193,,,,,,,,,,,,,,,,,,,-22.91015625,-12.890625,1,0,0,0.802376031876,,,,,2015_Sep_21_1604,G,facesParametric,6,59.6466398935,
./stim/MorphF4_00_orig.jpg,194,,,,,0,194,194,194,,,,,,,,,,,,,,,,,,,-22.880859375,-12.919921875,0,0,1,1.3058578968,,,,,2015_Sep_21_1604,G,facesParametric,6,59.6466398935,
./stim/MorphF7_03_orig.jpg,195,,,,,0,195,195,195,,,,,,,,,,,,,,,,,,,-22.3828125,-12.59765625,0,0,1,1.08773398399,,,,,2015_Sep_21_1604,G,facesParametric,6,59.6466398935,
./stim/MorphF9_00_orig.jpg,196,,,,,0,196,196,196,,,,,,,,,,,,,,,,,,,-20.712890625,-12.509765625,0,0,1,3.21504616737,,,,,2015_Sep_21_1604,G,facesParametric,6,59.6466398935,
./stim/MorphM3_08_orig.jpg,197,,,,,0,197,197,197,,,,,,,,,,,,,,,,,,,-20.654296875,-12.509765625,1,0,0,0.652689933777,,,,,2015_Sep_21_1604,G,facesParametric,6,59.6466398935,
./stim/MorphF2_01_orig.jpg,198,,,,,0,198,198,198,,,,,,,,,,,,,,,,,,,-20.5078125,-12.5390625,0,0,1,1.7229180336,,,,,2015_Sep_21_1604,G,facesParametric,6,59.6466398935,
./stim/MorphM1_03_orig.jpg,199,,,,,0,199,199,199,,,,,,,,,,,,,,,,,,,-20.5078125,-12.5390625,0,0,1,1.03887891769,,,,,2015_Sep_21_1604,G,facesParametric,6,59.6466398935,
./stim/MorphM2_05_orig.jpg,200,,,,,0,200,200,200,,,,,,,,,,,,,,,,,,,-20.5078125,-12.5390625,0,0,1,1.18794298172,,,,,2015_Sep_21_1604,G,facesParametric,6,59.6466398935,
./stim/MorphM5_06_orig.jpg,201,,,,,0,201,201,201,,,,,,,,,,,,,,,,,,,-20.5078125,-12.5390625,1,0,0,0.635751008987,,,,,2015_Sep_21_1604,G,facesParametric,6,59.6466398935,
./stim/MorphF8_08_orig.jpg,202,,,,,0,202,202,202,,,,,,,,,,,,,,,,,,,-20.5078125,-12.5390625,1,0,0,0.801910877228,,,,,2015_Sep_21_1604,G,facesParametric,6,59.6466398935,
./stim/MorphF10_06_orig.jpg,203,,,,,0,203,203,203,,,,,,,,,,,,,,,,,,,-20.537109375,-12.568359375,1,0,0,0.666968107224,,,,,2015_Sep_21_1604,G,facesParametric,6,59.6466398935,
./stim/MorphM4_08_orig.jpg,204,,,,,0,204,204,204,,,,,,,,,,,,,,,,,,,-20.537109375,-12.568359375,1,0,0,0.754011869431,,,,,2015_Sep_21_1604,G,facesParametric,6,59.6466398935,
./stim/MorphM9_03_orig.jpg,205,,,,,0,205,205,205,,,,,,,,,,,,,,,,,,,-20.537109375,-12.568359375,0,0,1,1.69064211845,,,,,2015_Sep_21_1604,G,facesParametric,6,59.6466398935,
./stim/MorphM8_02_orig.jpg,206,,,,,0,206,206,206,,,,,,,,,,,,,,,,,,,-20.537109375,-12.568359375,0,0,1,2.6467089653,,,,,2015_Sep_21_1604,G,facesParametric,6,59.6466398935,
./stim/MorphF7_02_orig.jpg,207,,,,,0,207,207,207,,,,,,,,,,,,,,,,,,,-20.537109375,-12.568359375,0,0,1,2.07681298256,,,,,2015_Sep_21_1604,G,facesParametric,6,59.6466398935,
./stim/MorphF9_04_orig.jpg,208,,,,,0,208,208,208,,,,,,,,,,,,,,,,,,,-20.537109375,-12.568359375,0,0,1,0.986880064011,,,,,2015_Sep_21_1604,G,facesParametric,6,59.6466398935,
./stim/MorphF6_06_orig.jpg,209,,,,,0,209,209,209,,,,,,,,,,,,,,,,,,,-20.537109375,-12.568359375,1,0,0,0.767174959183,,,,,2015_Sep_21_1604,G,facesParametric,6,59.6466398935,
./stim/MorphM2_07_orig.jpg,210,,,,,0,210,210,210,,,,,,,,,,,,,,,,,,,-20.537109375,-12.568359375,1,0,0,0.970144987106,,,,,2015_Sep_21_1604,G,facesParametric,6,59.6466398935,
./stim/MorphF9_03_orig.jpg,211,,,,,0,211,211,211,,,,,,,,,,,,,,,,,,,-20.537109375,-12.5390625,1,0,0,1.28857398033,,,,,2015_Sep_21_1604,G,facesParametric,6,59.6466398935,
./stim/MorphF10_08_orig.jpg,212,,,,,0,212,212,212,,,,,,,,,,,,,,,,,,,-20.537109375,-12.5390625,1,0,0,0.702591896057,,,,,2015_Sep_21_1604,G,facesParametric,6,59.6466398935,
./stim/MorphM5_08_orig.jpg,213,,,,,0,213,213,213,,,,,,,,,,,,,,,,,,,-20.537109375,-12.5390625,1,0,0,0.82012796402,,,,,2015_Sep_21_1604,G,facesParametric,6,59.6466398935,
./stim/MorphF3_07_orig.jpg,214,,,,,0,214,214,214,,,,,,,,,,,,,,,,,,,-20.537109375,-12.5390625,1,0,0,3.43458986282,,,,,2015_Sep_21_1604,G,facesParametric,6,59.6466398935,
./stim/MorphF8_05_orig.jpg,215,,,,,0,215,215,215,,,,,,,,,,,,,,,,,,,-20.537109375,-12.5390625,0,0,1,2.94903683662,,,,,2015_Sep_21_1604,G,facesParametric,6,59.6466398935,
./stim/MorphF2_02_orig.jpg,216,,,,,0,216,216,216,,,,,,,,,,,,,,,,,,,-20.5078125,-12.568359375,0,0,1,0.852599143982,,,,,2015_Sep_21_1604,G,facesParametric,6,59.6466398935,
./stim/MorphF6_07_orig.jpg,217,,,,,0,217,217,217,,,,,,,,,,,,,,,,,,,-20.419921875,-12.5390625,1,0,0,0.785524845123,,,,,2015_Sep_21_1604,G,facesParametric,6,59.6466398935,
./stim/MorphF10_09_orig.jpg,218,,,,,0,218,218,218,,,,,,,,,,,,,,,,,,,-20.390625,-12.509765625,1,0,0,1.87580704689,,,,,2015_Sep_21_1604,G,facesParametric,6,59.6466398935,
./stim/MorphM7_04_orig.jpg,219,,,,,0,219,219,219,,,,,,,,,,,,,,,,,,,-20.390625,-12.509765625,1,0,0,3.59994888306,,,,,2015_Sep_21_1604,G,facesParametric,6,59.6466398935,
,,,,,,,,,,,,,,,,,,,,,,,,,,,,,,,,,,return,10.5251040459,,,2015_Sep_21_1604,G,facesParametric,6,59.6466398935,
./stim/MorphM4_05_orig.jpg,0,,,,,,,,,0,0,0,0,,,,,,,,,,,,,,,-20.9765625,-12.509765625,1,0,0,4.20604109764,,,,,2015_Sep_21_1604,G,facesParametric,6,59.6466398935,
./stim/MorphF6_02_orig.jpg,1,,,,,,,,,0,1,1,1,,,,,,,,,,,,,,,-20.068359375,-12.392578125,0,0,1,1.06851887703,,,,,2015_Sep_21_1604,G,facesParametric,6,59.6466398935,
./stim/MorphF4_10_orig.jpg,2,,,,,,,,,0,2,2,2,,,,,,,,,,,,,,,-20.15625,-12.421875,1,0,0,0.752624988556,,,,,2015_Sep_21_1604,G,facesParametric,6,59.6466398935,
./stim/MorphM9_00_orig.jpg,3,,,,,,,,,0,3,3,3,,,,,,,,,,,,,,,-20.09765625,-12.392578125,0,0,1,1.23876595497,,,,,2015_Sep_21_1604,G,facesParametric,6,59.6466398935,
./stim/MorphF10_03_orig.jpg,4,,,,,,,,,0,4,4,4,,,,,,,,,,,,,,,-20.09765625,-12.392578125,0,0,1,5.59669685364,,,,,2015_Sep_21_1604,G,facesParametric,6,59.6466398935,
./stim/MorphF3_01_orig.jpg,5,,,,,,,,,0,5,5,5,,,,,,,,,,,,,,,-20.09765625,-12.392578125,0,0,1,0.903323888779,,,,,2015_Sep_21_1604,G,facesParametric,6,59.6466398935,
./stim/MorphM6_02_orig.jpg,6,,,,,,,,,0,6,6,6,,,,,,,,,,,,,,,-20.0390625,-12.392578125,0,0,1,1.33919215202,,,,,2015_Sep_21_1604,G,facesParametric,6,59.6466398935,
./stim/MorphM2_03_orig.jpg,7,,,,,,,,,0,7,7,7,,,,,,,,,,,,,,,-20.009765625,-12.36328125,0,0,1,0.870371103287,,,,,2015_Sep_21_1604,G,facesParametric,6,59.6466398935,
./stim/MorphM9_04_orig.jpg,8,,,,,,,,,0,8,8,8,,,,,,,,,,,,,,,-20.009765625,-12.36328125,0,0,1,0.903800010681,,,,,2015_Sep_21_1604,G,facesParametric,6,59.6466398935,
./stim/MorphF10_00_orig.jpg,9,,,,,,,,,0,9,9,9,,,,,,,,,,,,,,,-20.009765625,-12.36328125,0,0,1,1.02123093605,,,,,2015_Sep_21_1604,G,facesParametric,6,59.6466398935,
./stim/MorphF5_08_orig.jpg,10,,,,,,,,,0,10,10,10,,,,,,,,,,,,,,,-20.009765625,-12.36328125,1,0,0,0.702335119247,,,,,2015_Sep_21_1604,G,facesParametric,6,59.6466398935,
./stim/MorphM6_05_orig.jpg,11,,,,,,,,,0,11,11,11,,,,,,,,,,,,,,,-20.0390625,-12.392578125,0,0,1,3.19971108437,,,,,2015_Sep_21_1604,G,facesParametric,6,59.6466398935,
./stim/MorphF1_02_orig.jpg,12,,,,,,,,,0,12,12,12,,,,,,,,,,,,,,,-20.0390625,-12.392578125,0,0,1,0.987516880035,,,,,2015_Sep_21_1604,G,facesParametric,6,59.6466398935,
./stim/MorphF2_00_orig.jpg,13,,,,,,,,,0,13,13,13,,,,,,,,,,,,,,,-20.0390625,-12.392578125,1,0,0,1.28948807716,,,,,2015_Sep_21_1604,G,facesParametric,6,59.6466398935,
./stim/MorphF9_09_orig.jpg,14,,,,,,,,,0,14,14,14,,,,,,,,,,,,,,,-20.0390625,-12.392578125,1,0,0,0.819818019867,,,,,2015_Sep_21_1604,G,facesParametric,6,59.6466398935,
./stim/MorphF6_08_orig.jpg,15,,,,,,,,,0,15,15,15,,,,,,,,,,,,,,,-20.0390625,-12.392578125,1,0,0,0.753144025803,,,,,2015_Sep_21_1604,G,facesParametric,6,59.6466398935,
./stim/MorphM7_03_orig.jpg,16,,,,,,,,,0,16,16,16,,,,,,,,,,,,,,,-20.0390625,-12.392578125,1,0,0,0.63552904129,,,,,2015_Sep_21_1604,G,facesParametric,6,59.6466398935,
./stim/MorphF6_05_orig.jpg,17,,,,,,,,,0,17,17,17,,,,,,,,,,,,,,,-20.0390625,-12.392578125,1,0,0,0.702796936035,,,,,2015_Sep_21_1604,G,facesParametric,6,59.6466398935,
./stim/MorphF1_08_orig.jpg,18,,,,,,,,,0,18,18,18,,,,,,,,,,,,,,,-20.0390625,-12.392578125,1,0,0,1.18843007088,,,,,2015_Sep_21_1604,G,facesParametric,6,59.6466398935,
./stim/MorphM3_00_orig.jpg,19,,,,,,,,,0,19,19,19,,,,,,,,,,,,,,,-20.0390625,-12.392578125,0,0,1,1.95852208138,,,,,2015_Sep_21_1604,G,facesParametric,6,59.6466398935,
./stim/MorphM5_00_orig.jpg,20,,,,,,,,,0,20,20,20,,,,,,,,,,,,,,,-20.068359375,-12.333984375,1,0,0,0.937787055969,,,,,2015_Sep_21_1604,G,facesParametric,6,59.6466398935,
./stim/MorphM8_04_orig.jpg,21,,,,,,,,,0,21,21,21,,,,,,,,,,,,,,,-20.068359375,-12.333984375,1,0,0,0.852378845215,,,,,2015_Sep_21_1604,G,facesParametric,6,59.6466398935,
./stim/MorphM7_08_orig.jpg,22,,,,,,,,,0,22,22,22,,,,,,,,,,,,,,,-20.068359375,-12.333984375,1,0,0,1.17215394974,,,,,2015_Sep_21_1604,G,facesParametric,6,59.6466398935,
./stim/MorphF8_09_orig.jpg,23,,,,,,,,,0,23,23,23,,,,,,,,,,,,,,,-20.068359375,-12.333984375,1,0,0,2.88029909134,,,,,2015_Sep_21_1604,G,facesParametric,6,59.6466398935,
./stim/MorphF7_08_orig.jpg,24,,,,,,,,,0,24,24,24,,,,,,,,,,,,,,,-20.068359375,-12.333984375,1,0,0,0.619023084641,,,,,2015_Sep_21_1604,G,facesParametric,6,59.6466398935,
./stim/MorphM10_08_orig.jpg,25,,,,,,,,,0,25,25,25,,,,,,,,,,,,,,,-20.068359375,-12.333984375,1,0,0,1.69107413292,,,,,2015_Sep_21_1604,G,facesParametric,6,59.6466398935,
./stim/MorphM9_07_orig.jpg,26,,,,,,,,,0,26,26,26,,,,,,,,,,,,,,,-20.068359375,-12.333984375,1,0,0,0.853694915771,,,,,2015_Sep_21_1604,G,facesParametric,6,59.6466398935,
./stim/MorphF2_04_orig.jpg,27,,,,,,,,,0,27,27,27,,,,,,,,,,,,,,,-20.0390625,-12.3046875,0,0,1,1.27248597145,,,,,2015_Sep_21_1604,G,facesParametric,6,59.6466398935,
./stim/MorphF4_03_orig.jpg,28,,,,,,,,,0,28,28,28,,,,,,,,,,,,,,,-20.0390625,-12.3046875,0,0,1,0.752341985703,,,,,2015_Sep_21_1604,G,facesParametric,6,59.6466398935,
./stim/MorphF9_07_orig.jpg,29,,,,,,,,,0,29,29,29,,,,,,,,,,,,,,,-20.0390625,-12.3046875,1,0,0,3.66863298416,,,,,2015_Sep_21_1604,G,facesParametric,6,59.6466398935,
./stim/MorphF3_05_orig.jpg,30,,,,,,,,,0,30,30,30,,,,,,,,,,,,,,,-20.009765625,-12.275390625,0,0,1,1.59079790115,,,,,2015_Sep_21_1604,G,facesParametric,6,59.6466398935,
./stim/MorphM6_10_orig.jpg,31,,,,,,,,,0,31,31,31,,,,,,,,,,,,,,,-20.009765625,-12.275390625,1,0,0,0.7344789505,,,,,2015_Sep_21_1604,G,facesParametric,6,59.6466398935,
./stim/MorphM2_01_orig.jpg,32,,,,,,,,,0,32,32,32,,,,,,,,,,,,,,,-20.009765625,-12.275390625,0,0,1,0.870174884796,,,,,2015_Sep_21_1604,G,facesParametric,6,59.6466398935,
./stim/MorphM5_06_orig.jpg,33,,,,,,,,,0,33,33,33,,,,,,,,,,,,,,,-20.009765625,-12.275390625,1,0,0,0.919987916946,,,,,2015_Sep_21_1604,G,facesParametric,6,59.6466398935,
./stim/MorphM2_06_orig.jpg,34,,,,,,,,,0,34,34,34,,,,,,,,,,,,,,,-20.009765625,-12.275390625,1,0,0,3.14965295792,,,,,2015_Sep_21_1604,G,facesParametric,6,59.6466398935,
./stim/MorphF7_03_orig.jpg,35,,,,,,,,,0,35,35,35,,,,,,,,,,,,,,,-20.009765625,-12.275390625,1,0,0,1.10475301743,,,,,2015_Sep_21_1604,G,facesParametric,6,59.6466398935,
./stim/MorphF4_01_orig.jpg,36,,,,,,,,,0,36,36,36,,,,,,,,,,,,,,,-20.009765625,-12.275390625,0,0,1,1.97486805916,,,,,2015_Sep_21_1604,G,facesParametric,6,59.6466398935,
./stim/MorphF1_03_orig.jpg,37,,,,,,,,,0,37,37,37,,,,,,,,,,,,,,,-20.009765625,-12.275390625,0,0,1,1.60776519775,,,,,2015_Sep_21_1604,G,facesParametric,6,59.6466398935,
./stim/MorphF2_08_orig.jpg,38,,,,,,,,,0,38,38,38,,,,,,,,,,,,,,,-20.009765625,-12.275390625,1,0,0,0.803206920624,,,,,2015_Sep_21_1604,G,facesParametric,6,59.6466398935,
./stim/MorphF10_07_orig.jpg,39,,,,,,,,,0,39,39,39,,,,,,,,,,,,,,,-20.009765625,-12.275390625,1,0,0,0.853605031967,,,,,2015_Sep_21_1604,G,facesParametric,6,59.6466398935,
./stim/MorphM3_09_orig.jpg,40,,,,,,,,,0,40,40,40,,,,,,,,,,,,,,,-20.009765625,-12.275390625,1,0,0,0.869987010956,,,,,2015_Sep_21_1604,G,facesParametric,6,59.6466398935,
./stim/MorphF10_08_orig.jpg,41,,,,,,,,,0,41,41,41,,,,,,,,,,,,,,,-20.009765625,-12.275390625,1,0,0,0.685645103455,,,,,2015_Sep_21_1604,G,facesParametric,6,59.6466398935,
./stim/MorphF5_03_orig.jpg,42,,,,,,,,,0,42,42,42,,,,,,,,,,,,,,,-20.009765625,-12.275390625,1,0,0,0.718263149261,,,,,2015_Sep_21_1604,G,facesParametric,6,59.6466398935,
./stim/MorphF10_04_orig.jpg,43,,,,,,,,,0,43,43,43,,,,,,,,,,,,,,,-20.009765625,-12.275390625,1,0,0,1.27228403091,,,,,2015_Sep_21_1604,G,facesParametric,6,59.6466398935,
./stim/MorphM4_01_orig.jpg,44,,,,,,,,,0,44,44,44,,,,,,,,,,,,,,,-20.009765625,-12.275390625,0,0,1,1.89328098297,,,,,2015_Sep_21_1604,G,facesParametric,6,59.6466398935,
./stim/MorphF1_04_orig.jpg,45,,,,,,,,,0,45,45,45,,,,,,,,,,,,,,,-20.009765625,-12.3046875,0,0,1,1.32135510445,,,,,2015_Sep_21_1604,G,facesParametric,6,59.6466398935,
./stim/MorphF10_09_orig.jpg,46,,,,,,,,,0,46,46,46,,,,,,,,,,,,,,,-20.009765625,-12.333984375,1,0,0,1.28892707825,,,,,2015_Sep_21_1604,G,facesParametric,6,59.6466398935,
./stim/MorphM9_02_orig.jpg,47,,,,,,,,,0,47,47,47,,,,,,,,,,,,,,,-20.009765625,-12.333984375,0,0,1,1.25527691841,,,,,2015_Sep_21_1604,G,facesParametric,6,59.6466398935,
./stim/MorphF7_09_orig.jpg,48,,,,,,,,,0,48,48,48,,,,,,,,,,,,,,,-20.009765625,-12.333984375,1,0,0,0.668866872787,,,,,2015_Sep_21_1604,G,facesParametric,6,59.6466398935,
./stim/MorphM1_07_orig.jpg,49,,,,,,,,,0,49,49,49,,,,,,,,,,,,,,,-20.009765625,-12.333984375,1,0,0,1.02102613449,,,,,2015_Sep_21_1604,G,facesParametric,6,59.6466398935,
./stim/MorphF6_07_orig.jpg,50,,,,,,,,,0,50,50,50,,,,,,,,,,,,,,,-20.009765625,-12.333984375,1,0,0,1.23866510391,,,,,2015_Sep_21_1604,G,facesParametric,6,59.6466398935,
./stim/MorphM3_03_orig.jpg,51,,,,,,,,,0,51,51,51,,,,,,,,,,,,,,,-20.009765625,-12.333984375,0,0,1,1.70822405815,,,,,2015_Sep_21_1604,G,facesParametric,6,59.6466398935,
./stim/MorphF6_04_orig.jpg,52,,,,,,,,,0,52,52,52,,,,,,,,,,,,,,,-20.009765625,-12.333984375,1,0,0,0.970670938492,,,,,2015_Sep_21_1604,G,facesParametric,6,59.6466398935,
./stim/MorphM9_10_orig.jpg,53,,,,,,,,,0,53,53,53,,,,,,,,,,,,,,,-20.009765625,-12.333984375,1,0,0,2.07725405693,,,,,2015_Sep_21_1604,G,facesParametric,6,59.6466398935,
./stim/MorphF3_00_orig.jpg,54,,,,,,,,,0,54,54,54,,,,,,,,,,,,,,,-20.0390625,-12.3046875,0,0,1,1.13790416718,,,,,2015_Sep_21_1604,G,facesParametric,6,59.6466398935,
./stim/MorphF5_09_orig.jpg,55,,,,,,,,,0,55,55,55,,,,,,,,,,,,,,,-20.0390625,-12.3046875,1,0,0,0.768081188202,,,,,2015_Sep_21_1604,G,facesParametric,6,59.6466398935,
./stim/MorphF10_06_orig.jpg,56,,,,,,,,,0,56,56,56,,,,,,,,,,,,,,,-20.0390625,-12.3046875,1,0,0,1.35668110847,,,,,2015_Sep_21_1604,G,facesParametric,6,59.6466398935,
./stim/MorphF5_02_orig.jpg,57,,,,,,,,,0,57,57,57,,,,,,,,,,,,,,,-20.009765625,-12.275390625,0,0,1,0.786161184311,,,,,2015_Sep_21_1604,G,facesParametric,6,59.6466398935,
./stim/MorphM1_03_orig.jpg,58,,,,,,,,,0,58,58,58,,,,,,,,,,,,,,,-20.009765625,-12.275390625,0,0,1,2.2428381443,,,,,2015_Sep_21_1604,G,facesParametric,6,59.6466398935,
./stim/MorphM6_09_orig.jpg,59,,,,,,,,,0,59,59,59,,,,,,,,,,,,,,,-20.009765625,-12.275390625,1,0,0,0.886893033981,,,,,2015_Sep_21_1604,G,facesParametric,6,59.6466398935,
./stim/MorphM1_06_orig.jpg,60,,,,,,,,,0,60,60,60,,,,,,,,,,,,,,,-20.009765625,-12.275390625,1,0,0,0.920958042145,,,,,2015_Sep_21_1604,G,facesParametric,6,59.6466398935,
./stim/MorphM9_01_orig.jpg,61,,,,,,,,,0,61,61,61,,,,,,,,,,,,,,,-20.009765625,-12.275390625,0,0,1,0.886694908142,,,,,2015_Sep_21_1604,G,facesParametric,6,59.6466398935,
./stim/MorphF8_06_orig.jpg,62,,,,,,,,,0,62,62,62,,,,,,,,,,,,,,,-20.009765625,-12.275390625,1,0,0,0.70245218277,,,,,2015_Sep_21_1604,G,facesParametric,6,59.6466398935,
./stim/MorphF10_05_orig.jpg,63,,,,,,,,,0,63,63,63,,,,,,,,,,,,,,,-20.009765625,-12.275390625,1,0,0,0.685440063477,,,,,2015_Sep_21_1604,G,facesParametric,6,59.6466398935,
./stim/MorphM2_05_orig.jpg,64,,,,,,,,,0,64,64,64,,,,,,,,,,,,,,,-20.009765625,-12.275390625,0,0,1,1.4735250473,,,,,2015_Sep_21_1604,G,facesParametric,6,59.6466398935,
./stim/MorphF2_06_orig.jpg,65,,,,,,,,,0,65,65,65,,,,,,,,,,,,,,,-20.009765625,-12.275390625,1,0,0,0.702738046646,,,,,2015_Sep_21_1604,G,facesParametric,6,59.6466398935,
./stim/MorphF1_10_orig.jpg,66,,,,,,,,,0,66,66,66,,,,,,,,,,,,,,,-20.009765625,-12.275390625,0,0,1,0.937160968781,,,,,2015_Sep_21_1604,G,facesParametric,6,59.6466398935,
./stim/MorphF8_01_orig.jpg,67,,,,,,,,,0,67,67,67,,,,,,,,,,,,,,,-20.0390625,-12.24609375,0,0,1,4.95975494385,,,,,2015_Sep_21_1604,G,facesParametric,6,59.6466398935,
./stim/MorphF3_04_orig.jpg,68,,,,,,,,,0,68,68,68,,,,,,,,,,,,,,,-20.09765625,-12.216796875,0,0,1,0.71964097023,,,,,2015_Sep_21_1604,G,facesParametric,6,59.6466398935,
./stim/MorphM8_09_orig.jpg,69,,,,,,,,,0,69,69,69,,,,,,,,,,,,,,,-20.09765625,-12.216796875,1,0,0,1.221763134,,,,,2015_Sep_21_1604,G,facesParametric,6,59.6466398935,
./stim/MorphM5_03_orig.jpg,70,,,,,,,,,0,70,70,70,,,,,,,,,,,,,,,-20.0390625,-12.275390625,0,0,1,1.70814085007,,,,,2015_Sep_21_1604,G,facesParametric,6,59.6466398935,
./stim/MorphF2_03_orig.jpg,71,,,,,,,,,0,71,71,71,,,,,,,,,,,,,,,-19.716796875,-12.158203125,0,0,1,2.86470890045,,,,,2015_Sep_21_1604,G,facesParametric,6,59.6466398935,
./stim/MorphF3_03_orig.jpg,72,,,,,,,,,0,72,72,72,,,,,,,,,,,,,,,-19.716796875,-12.158203125,0,0,1,0.903721094131,,,,,2015_Sep_21_1604,G,facesParametric,6,59.6466398935,
./stim/MorphF8_10_orig.jpg,73,,,,,,,,,0,73,73,73,,,,,,,,,,,,,,,-19.6875,-12.12890625,1,0,0,0.569183111191,,,,,2015_Sep_21_1604,G,facesParametric,6,59.6466398935,
./stim/MorphF9_06_orig.jpg,74,,,,,,,,,0,74,74,74,,,,,,,,,,,,,,,-19.62890625,-12.12890625,0,0,1,5.14340305328,,,,,2015_Sep_21_1604,G,facesParametric,6,59.6466398935,
./stim/MorphM4_09_orig.jpg,75,,,,,,,,,0,75,75,75,,,,,,,,,,,,,,,-19.6875,-12.1875,1,0,0,5.57973194122,,,,,2015_Sep_21_1604,G,facesParametric,6,59.6466398935,
./stim/MorphM6_07_orig.jpg,76,,,,,,,,,0,76,76,76,,,,,,,,,,,,,,,-19.599609375,-12.158203125,0,0,1,1.94276785851,,,,,2015_Sep_21_1604,G,facesParametric,6,59.6466398935,
./stim/MorphM8_10_orig.jpg,77,,,,,,,,,0,77,77,77,,,,,,,,,,,,,,,-19.62890625,-12.01171875,1,0,0,6.65225100517,,,,,2015_Sep_21_1604,G,facesParametric,6,59.6466398935,
./stim/MorphF1_05_orig.jpg,78,,,,,,,,,0,78,78,78,,,,,,,,,,,,,,,-19.51171875,-11.953125,0,0,1,1.95753502846,,,,,2015_Sep_21_1604,G,facesParametric,6,59.6466398935,
./stim/MorphM10_03_orig.jpg,79,,,,,,,,,0,79,79,79,,,,,,,,,,,,,,,-19.541015625,-11.923828125,0,0,1,1.7584540844,,,,,2015_Sep_21_1604,G,facesParametric,6,59.6466398935,
./stim/MorphF2_01_orig.jpg,80,,,,,,,,,0,80,80,80,,,,,,,,,,,,,,,-19.5703125,-11.89453125,0,0,1,1.23894786835,,,,,2015_Sep_21_1604,G,facesParametric,6,59.6466398935,
./stim/MorphF6_10_orig.jpg,81,,,,,,,,,0,81,81,81,,,,,,,,,,,,,,,-19.599609375,-11.923828125,1,0,0,0.786478042603,,,,,2015_Sep_21_1604,G,facesParametric,6,59.6466398935,
./stim/MorphM5_10_orig.jpg,82,,,,,,,,,0,82,82,82,,,,,,,,,,,,,,,-19.599609375,-11.923828125,1,0,0,0.800870895386,,,,,2015_Sep_21_1604,G,facesParametric,6,59.6466398935,
./stim/MorphM1_05_orig.jpg,83,,,,,,,,,0,83,83,83,,,,,,,,,,,,,,,-19.599609375,-11.923828125,0,0,1,1.70829486847,,,,,2015_Sep_21_1604,G,facesParametric,6,59.6466398935,
./stim/MorphM10_05_orig.jpg,84,,,,,,,,,0,84,84,84,,,,,,,,,,,,,,,-19.599609375,-11.923828125,1,0,0,0.770052194595,,,,,2015_Sep_21_1604,G,facesParametric,6,59.6466398935,
./stim/MorphM7_09_orig.jpg,85,,,,,,,,,0,85,85,85,,,,,,,,,,,,,,,-19.62890625,-11.89453125,1,0,0,0.887065887451,,,,,2015_Sep_21_1604,G,facesParametric,6,59.6466398935,
./stim/MorphF3_10_orig.jpg,86,,,,,,,,,0,86,86,86,,,,,,,,,,,,,,,-19.62890625,-11.89453125,1,0,0,0.85301399231,,,,,2015_Sep_21_1604,G,facesParametric,6,59.6466398935,
./stim/MorphF7_00_orig.jpg,87,,,,,,,,,0,87,87,87,,,,,,,,,,,,,,,-19.716796875,-11.8359375,0,0,1,3.03028702736,,,,,2015_Sep_21_1604,G,facesParametric,6,59.6466398935,
./stim/MorphM2_08_orig.jpg,88,,,,,,,,,0,88,88,88,,,,,,,,,,,,,,,-19.716796875,-11.77734375,0,0,1,3.5016040802,,,,,2015_Sep_21_1604,G,facesParametric,6,59.6466398935,
./stim/MorphF4_05_orig.jpg,89,,,,,,,,,0,89,89,89,,,,,,,,,,,,,,,-19.716796875,-11.77734375,0,0,1,0.686069011688,,,,,2015_Sep_21_1604,G,facesParametric,6,59.6466398935,
./stim/MorphM8_06_orig.jpg,90,,,,,,,,,0,90,90,90,,,,,,,,,,,,,,,-19.716796875,-11.77734375,1,0,0,0.868800163269,,,,,2015_Sep_21_1604,G,facesParametric,6,59.6466398935,
./stim/MorphF4_04_orig.jpg,91,,,,,,,,,0,91,91,91,,,,,,,,,,,,,,,-19.716796875,-11.77734375,0,0,1,0.753118038177,,,,,2015_Sep_21_1604,G,facesParametric,6,59.6466398935,
./stim/MorphF3_02_orig.jpg,92,,,,,,,,,0,92,92,92,,,,,,,,,,,,,,,-19.716796875,-11.77734375,1,0,0,1.55689001083,,,,,2015_Sep_21_1604,G,facesParametric,6,59.6466398935,
./stim/MorphM2_10_orig.jpg,93,,,,,,,,,0,93,93,93,,,,,,,,,,,,,,,-19.716796875,-11.77734375,1,0,0,0.885679960251,,,,,2015_Sep_21_1604,G,facesParametric,6,59.6466398935,
./stim/MorphF8_08_orig.jpg,94,,,,,,,,,0,94,94,94,,,,,,,,,,,,,,,-19.716796875,-11.77734375,1,0,0,0.668437957764,,,,,2015_Sep_21_1604,G,facesParametric,6,59.6466398935,
./stim/MorphF5_10_orig.jpg,95,,,,,,,,,0,95,95,95,,,,,,,,,,,,,,,-19.716796875,-11.77734375,1,0,0,0.618972063065,,,,,2015_Sep_21_1604,G,facesParametric,6,59.6466398935,
./stim/MorphM5_01_orig.jpg,96,,,,,,,,,0,96,96,96,,,,,,,,,,,,,,,-19.716796875,-11.77734375,0,0,1,1.85908198357,,,,,2015_Sep_21_1604,G,facesParametric,6,59.6466398935,
./stim/MorphM6_00_orig.jpg,97,,,,,,,,,0,97,97,97,,,,,,,,,,,,,,,-19.716796875,-11.77734375,0,0,1,0.819109916687,,,,,2015_Sep_21_1604,G,facesParametric,6,59.6466398935,
./stim/MorphF6_00_orig.jpg,98,,,,,,,,,0,98,98,98,,,,,,,,,,,,,,,-19.716796875,-11.77734375,1,0,0,0.668994903564,,,,,2015_Sep_21_1604,G,facesParametric,6,59.6466398935,
./stim/MorphM7_06_orig.jpg,99,,,,,,,,,0,99,99,99,,,,,,,,,,,,,,,-19.716796875,-11.77734375,1,0,0,2.59673714638,,,,,2015_Sep_21_1604,G,facesParametric,6,59.6466398935,
./stim/MorphM6_03_orig.jpg,100,,,,,,,,,0,100,100,100,,,,,,,,,,,,,,,-19.74609375,-11.748046875,0,0,1,1.05445814133,,,,,2015_Sep_21_1604,G,facesParametric,6,59.6466398935,
./stim/MorphM4_00_orig.jpg,101,,,,,,,,,0,101,101,101,,,,,,,,,,,,,,,-19.74609375,-11.748046875,0,0,1,2.69745492935,,,,,2015_Sep_21_1604,G,facesParametric,6,59.6466398935,
./stim/MorphM10_07_orig.jpg,102,,,,,,,,,0,102,102,102,,,,,,,,,,,,,,,-19.775390625,-11.77734375,1,0,0,0.970179080963,,,,,2015_Sep_21_1604,G,facesParametric,6,59.6466398935,
./stim/MorphM9_03_orig.jpg,103,,,,,,,,,0,103,103,103,,,,,,,,,,,,,,,-19.775390625,-11.77734375,0,0,1,1.45671701431,,,,,2015_Sep_21_1604,G,facesParametric,6,59.6466398935,
./stim/MorphM5_04_orig.jpg,104,,,,,,,,,0,104,104,104,,,,,,,,,,,,,,,-19.8046875,-11.77734375,1,0,0,1.85917401314,,,,,2015_Sep_21_1604,G,facesParametric,6,59.6466398935,
./stim/MorphM4_04_orig.jpg,105,,,,,,,,,0,105,105,105,,,,,,,,,,,,,,,-19.833984375,-11.806640625,1,0,0,1.02088594437,,,,,2015_Sep_21_1604,G,facesParametric,6,59.6466398935,
./stim/MorphF2_09_orig.jpg,106,,,,,,,,,0,106,106,106,,,,,,,,,,,,,,,-19.833984375,-11.806640625,1,0,0,0.701107025146,,,,,2015_Sep_21_1604,G,facesParametric,6,59.6466398935,
./stim/MorphM7_05_orig.jpg,107,,,,,,,,,0,107,107,107,,,,,,,,,,,,,,,-19.833984375,-11.806640625,1,0,0,1.52278184891,,,,,2015_Sep_21_1604,G,facesParametric,6,59.6466398935,
./stim/MorphM8_02_orig.jpg,108,,,,,,,,,0,108,108,108,,,,,,,,,,,,,,,-19.833984375,-11.806640625,0,0,1,1.80828404427,,,,,2015_Sep_21_1604,G,facesParametric,6,59.6466398935,
./stim/MorphM3_10_orig.jpg,109,,,,,,,,,0,109,109,109,,,,,,,,,,,,,,,-19.86328125,-11.806640625,1,0,0,1.02120995522,,,,,2015_Sep_21_1604,G,facesParametric,6,59.6466398935,
./stim/MorphF6_03_orig.jpg,110,,,,,,,,,0,110,110,110,,,,,,,,,,,,,,,-19.921875,-11.77734375,0,0,1,3.18294095993,,,,,2015_Sep_21_1604,G,facesParametric,6,59.6466398935,
./stim/MorphF1_00_orig.jpg,111,,,,,,,,,0,111,111,111,,,,,,,,,,,,,,,-19.892578125,-11.77734375,0,0,1,1.32269382477,,,,,2015_Sep_21_1604,G,facesParametric,6,59.6466398935,
./stim/MorphM9_06_orig.jpg,112,,,,,,,,,0,112,112,112,,,,,,,,,,,,,,,-19.86328125,-11.748046875,0,0,1,1.38951611519,,,,,2015_Sep_21_1604,G,facesParametric,6,59.6466398935,
./stim/MorphF8_07_orig.jpg,113,,,,,,,,,0,113,113,113,,,,,,,,,,,,,,,-19.833984375,-11.748046875,1,0,0,0.820225954056,,,,,2015_Sep_21_1604,G,facesParametric,6,59.6466398935,
./stim/MorphF5_06_orig.jpg,114,,,,,,,,,0,114,114,114,,,,,,,,,,,,,,,-19.892578125,-11.748046875,1,0,0,3.80300402641,,,,,2015_Sep_21_1604,G,facesParametric,6,59.6466398935,
./stim/MorphM4_07_orig.jpg,115,,,,,,,,,0,115,115,115,,,,,,,,,,,,,,,-19.892578125,-11.748046875,1,0,0,0.61919593811,,,,,2015_Sep_21_1604,G,facesParametric,6,59.6466398935,
./stim/MorphM3_06_orig.jpg,116,,,,,,,,,0,116,116,116,,,,,,,,,,,,,,,-19.921875,-11.77734375,1,0,0,1.22205615044,,,,,2015_Sep_21_1604,G,facesParametric,6,59.6466398935,
./stim/MorphM6_08_orig.jpg,117,,,,,,,,,0,117,117,117,,,,,,,,,,,,,,,-19.921875,-11.77734375,1,0,0,0.719450950623,,,,,2015_Sep_21_1604,G,facesParametric,6,59.6466398935,
./stim/MorphM8_07_orig.jpg,118,,,,,,,,,0,118,118,118,,,,,,,,,,,,,,,-19.921875,-11.77734375,1,0,0,3.33327889442,,,,,2015_Sep_21_1604,G,facesParametric,6,59.6466398935,
./stim/MorphM2_04_orig.jpg,119,,,,,,,,,0,119,119,119,,,,,,,,,,,,,,,-19.921875,-11.77734375,0,0,1,1.1219689846,,,,,2015_Sep_21_1604,G,facesParametric,6,59.6466398935,
./stim/MorphM1_00_orig.jpg,120,,,,,,,,,0,120,120,120,,,,,,,,,,,,,,,-19.892578125,-11.748046875,0,0,1,0.953950881958,,,,,2015_Sep_21_1604,G,facesParametric,6,59.6466398935,
./stim/MorphF3_08_orig.jpg,121,,,,,,,,,0,121,121,121,,,,,,,,,,,,,,,-19.892578125,-11.748046875,1,0,0,0.868418931961,,,,,2015_Sep_21_1604,G,facesParametric,6,59.6466398935,
./stim/MorphM3_07_orig.jpg,122,,,,,,,,,0,122,122,122,,,,,,,,,,,,,,,-19.892578125,-11.748046875,1,0,0,1.35559606552,,,,,2015_Sep_21_1604,G,facesParametric,6,59.6466398935,
./stim/MorphF9_05_orig.jpg,123,,,,,,,,,0,123,123,123,,,,,,,,,,,,,,,-19.892578125,-11.748046875,0,0,1,1.07152700424,,,,,2015_Sep_21_1604,G,facesParametric,6,59.6466398935,
./stim/MorphF6_09_orig.jpg,124,,,,,,,,,0,124,124,124,,,,,,,,,,,,,,,-19.892578125,-11.748046875,1,0,0,0.853552103043,,,,,2015_Sep_21_1604,G,facesParametric,6,59.6466398935,
./stim/MorphM5_07_orig.jpg,125,,,,,,,,,0,125,125,125,,,,,,,,,,,,,,,-19.892578125,-11.748046875,1,0,0,1.05252194405,,,,,2015_Sep_21_1604,G,facesParametric,6,59.6466398935,
./stim/MorphF7_04_orig.jpg,126,,,,,,,,,0,126,126,126,,,,,,,,,,,,,,,-19.892578125,-11.748046875,0,0,1,8.09291696548,,,,,2015_Sep_21_1604,G,facesParametric,6,59.6466398935,
./stim/MorphF4_08_orig.jpg,127,,,,,,,,,0,127,127,127,,,,,,,,,,,,,,,-19.892578125,-11.748046875,1,0,0,1.05155110359,,,,,2015_Sep_21_1604,G,facesParametric,6,59.6466398935,
./stim/MorphF9_10_orig.jpg,128,,,,,,,,,0,128,128,128,,,,,,,,,,,,,,,-19.892578125,-11.748046875,0,0,1,0.719273090363,,,,,2015_Sep_21_1604,G,facesParametric,6,59.6466398935,
./stim/MorphM7_02_orig.jpg,129,,,,,,,,,0,129,129,129,,,,,,,,,,,,,,,-19.86328125,-11.748046875,0,0,1,1.12027597427,,,,,2015_Sep_21_1604,G,facesParametric,6,59.6466398935,
./stim/MorphF7_10_orig.jpg,130,,,,,,,,,0,130,130,130,,,,,,,,,,,,,,,-19.833984375,-11.77734375,1,0,0,0.652613162994,,,,,2015_Sep_21_1604,G,facesParametric,6,59.6466398935,
./stim/MorphM9_09_orig.jpg,131,,,,,,,,,0,131,131,131,,,,,,,,,,,,,,,-19.833984375,-11.77734375,1,0,0,0.885288953781,,,,,2015_Sep_21_1604,G,facesParametric,6,59.6466398935,
./stim/MorphF7_01_orig.jpg,132,,,,,,,,,0,132,132,132,,,,,,,,,,,,,,,-19.833984375,-11.77734375,0,0,1,1.1378390789,,,,,2015_Sep_21_1604,G,facesParametric,6,59.6466398935,
./stim/MorphM7_07_orig.jpg,133,,,,,,,,,0,133,133,133,,,,,,,,,,,,,,,-19.833984375,-11.77734375,1,0,0,1.42197608948,,,,,2015_Sep_21_1604,G,facesParametric,6,59.6466398935,
./stim/MorphM8_03_orig.jpg,134,,,,,,,,,0,134,134,134,,,,,,,,,,,,,,,-19.833984375,-11.77734375,1,0,0,2.144094944,,,,,2015_Sep_21_1604,G,facesParametric,6,59.6466398935,
./stim/MorphM4_06_orig.jpg,135,,,,,,,,,0,135,135,135,,,,,,,,,,,,,,,-19.833984375,-11.77734375,1,0,0,2.32793998718,,,,,2015_Sep_21_1604,G,facesParametric,6,59.6466398935,
./stim/MorphM1_10_orig.jpg,136,,,,,,,,,0,136,136,136,,,,,,,,,,,,,,,-19.833984375,-11.77734375,1,0,0,0.920099020004,,,,,2015_Sep_21_1604,G,facesParametric,6,59.6466398935,
./stim/MorphF2_07_orig.jpg,137,,,,,,,,,0,137,137,137,,,,,,,,,,,,,,,-19.833984375,-11.806640625,1,0,0,2.12661504745,,,,,2015_Sep_21_1604,G,facesParametric,6,59.6466398935,
./stim/MorphM2_07_orig.jpg,138,,,,,,,,,0,138,138,138,,,,,,,,,,,,,,,-19.833984375,-11.806640625,1,0,0,1.57423114777,,,,,2015_Sep_21_1604,G,facesParametric,6,59.6466398935,
./stim/MorphM1_02_orig.jpg,139,,,,,,,,,0,139,139,139,,,,,,,,,,,,,,,-19.86328125,-11.8359375,0,0,1,1.03808689117,,,,,2015_Sep_21_1604,G,facesParametric,6,59.6466398935,
./stim/MorphM3_05_orig.jpg,140,,,,,,,,,0,140,140,140,,,,,,,,,,,,,,,-19.86328125,-11.8359375,1,0,0,1.03642988205,,,,,2015_Sep_21_1604,G,facesParametric,6,59.6466398935,
./stim/MorphF10_02_orig.jpg,141,,,,,,,,,0,141,141,141,,,,,,,,,,,,,,,-19.86328125,-11.8359375,0,0,1,1.0018529892,,,,,2015_Sep_21_1604,G,facesParametric,6,59.6466398935,
./stim/MorphM2_00_orig.jpg,142,,,,,,,,,0,142,142,142,,,,,,,,,,,,,,,-19.892578125,-11.806640625,0,0,1,0.987243175507,,,,,2015_Sep_21_1604,G,facesParametric,6,59.6466398935,
./stim/MorphM4_10_orig.jpg,143,,,,,,,,,0,143,143,143,,,,,,,,,,,,,,,-19.892578125,-11.806640625,1,0,0,0.736106872559,,,,,2015_Sep_21_1604,G,facesParametric,6,59.6466398935,
./stim/MorphF5_07_orig.jpg,144,,,,,,,,,0,144,144,144,,,,,,,,,,,,,,,-19.892578125,-11.806640625,1,0,0,0.803198099136,,,,,2015_Sep_21_1604,G,facesParametric,6,59.6466398935,
./stim/MorphM8_01_orig.jpg,145,,,,,,,,,0,145,145,145,,,,,,,,,,,,,,,-19.892578125,-11.806640625,1,0,0,0.784734010696,,,,,2015_Sep_21_1604,G,facesParametric,6,59.6466398935,
./stim/MorphF1_01_orig.jpg,146,,,,,,,,,0,146,146,146,,,,,,,,,,,,,,,-19.86328125,-11.923828125,0,0,1,1.02050280571,,,,,2015_Sep_21_1604,G,facesParametric,6,59.6466398935,
./stim/MorphM7_10_orig.jpg,147,,,,,,,,,0,147,147,147,,,,,,,,,,,,,,,-19.86328125,-11.923828125,1,0,0,0.803326845169,,,,,2015_Sep_21_1604,G,facesParametric,6,59.6466398935,
./stim/MorphF9_00_orig.jpg,148,,,,,,,,,0,148,148,148,,,,,,,,,,,,,,,-19.86328125,-11.923828125,0,0,1,0.970525026321,,,,,2015_Sep_21_1604,G,facesParametric,6,59.6466398935,
./stim/MorphM10_00_orig.jpg,149,,,,,,,,,0,149,149,149,,,,,,,,,,,,,,,-19.86328125,-11.923828125,0,0,1,0.937237024307,,,,,2015_Sep_21_1604,G,facesParametric,6,59.6466398935,
./stim/MorphF6_06_orig.jpg,150,,,,,,,,,0,150,150,150,,,,,,,,,,,,,,,-19.86328125,-11.923828125,1,0,0,1.08857893944,,,,,2015_Sep_21_1604,G,facesParametric,6,59.6466398935,
./stim/MorphF5_04_orig.jpg,151,,,,,,,,,0,151,151,151,,,,,,,,,,,,,,,-19.86328125,-11.923828125,0,0,1,2.74749088287,,,,,2015_Sep_21_1604,G,facesParametric,6,59.6466398935,
./stim/MorphF2_05_orig.jpg,152,,,,,,,,,0,152,152,152,,,,,,,,,,,,,,,-19.892578125,-11.89453125,1,0,0,1.18803811073,,,,,2015_Sep_21_1604,G,facesParametric,6,59.6466398935,
./stim/MorphM3_04_orig.jpg,153,,,,,,,,,0,153,153,153,,,,,,,,,,,,,,,-19.892578125,-11.89453125,1,0,0,0.937246799469,,,,,2015_Sep_21_1604,G,facesParametric,6,59.6466398935,
./stim/MorphM4_08_orig.jpg,154,,,,,,,,,0,154,154,154,,,,,,,,,,,,,,,-19.892578125,-11.89453125,1,0,0,0.66835308075,,,,,2015_Sep_21_1604,G,facesParametric,6,59.6466398935,
./stim/MorphF3_07_orig.jpg,155,,,,,,,,,0,155,155,155,,,,,,,,,,,,,,,-19.892578125,-11.89453125,1,0,0,0.887269973755,,,,,2015_Sep_21_1604,G,facesParametric,6,59.6466398935,
./stim/MorphM3_01_orig.jpg,156,,,,,,,,,0,156,156,156,,,,,,,,,,,,,,,-19.892578125,-11.89453125,0,0,1,0.78599190712,,,,,2015_Sep_21_1604,G,facesParametric,6,59.6466398935,
./stim/MorphF8_04_orig.jpg,157,,,,,,,,,0,157,157,157,,,,,,,,,,,,,,,-19.892578125,-11.89453125,0,0,1,1.79235601425,,,,,2015_Sep_21_1604,G,facesParametric,6,59.6466398935,
./stim/MorphF9_02_orig.jpg,158,,,,,,,,,0,158,158,158,,,,,,,,,,,,,,,-19.892578125,-11.89453125,0,0,1,1.85921502113,,,,,2015_Sep_21_1604,G,facesParametric,6,59.6466398935,
./stim/MorphM1_09_orig.jpg,159,,,,,,,,,0,159,159,159,,,,,,,,,,,,,,,-19.892578125,-11.89453125,1,0,0,0.701773881912,,,,,2015_Sep_21_1604,G,facesParametric,6,59.6466398935,
./stim/MorphM10_04_orig.jpg,160,,,,,,,,,0,160,160,160,,,,,,,,,,,,,,,-19.921875,-11.923828125,1,0,0,0.6357858181,,,,,2015_Sep_21_1604,G,facesParametric,6,59.6466398935,
./stim/MorphM3_08_orig.jpg,161,,,,,,,,,0,161,161,161,,,,,,,,,,,,,,,-19.921875,-11.923828125,1,0,0,0.651177167892,,,,,2015_Sep_21_1604,G,facesParametric,6,59.6466398935,
./stim/MorphM5_08_orig.jpg,162,,,,,,,,,0,162,162,162,,,,,,,,,,,,,,,-19.921875,-11.923828125,1,0,0,0.786295890808,,,,,2015_Sep_21_1604,G,facesParametric,6,59.6466398935,
./stim/MorphF4_00_orig.jpg,163,,,,,,,,,0,163,163,163,,,,,,,,,,,,,,,-19.921875,-11.923828125,0,0,1,1.23910188675,,,,,2015_Sep_21_1604,G,facesParametric,6,59.6466398935,
./stim/MorphF7_07_orig.jpg,164,,,,,,,,,0,164,164,164,,,,,,,,,,,,,,,-19.921875,-11.923828125,1,0,0,0.953845024109,,,,,2015_Sep_21_1604,G,facesParametric,6,59.6466398935,
./stim/MorphF10_01_orig.jpg,165,,,,,,,,,0,165,165,165,,,,,,,,,,,,,,,-19.921875,-11.923828125,0,0,1,0.769217014313,,,,,2015_Sep_21_1604,G,facesParametric,6,59.6466398935,
./stim/MorphM8_08_orig.jpg,166,,,,,,,,,0,166,166,166,,,,,,,,,,,,,,,-19.951171875,-11.89453125,1,0,0,1.62321281433,,,,,2015_Sep_21_1604,G,facesParametric,6,59.6466398935,
./stim/MorphF7_02_orig.jpg,167,,,,,,,,,0,167,167,167,,,,,,,,,,,,,,,-19.951171875,-11.89453125,0,0,1,0.88720202446,,,,,2015_Sep_21_1604,G,facesParametric,6,59.6466398935,
./stim/MorphM6_01_orig.jpg,168,,,,,,,,,0,168,168,168,,,,,,,,,,,,,,,-19.921875,-11.865234375,0,0,1,1.27256298065,,,,,2015_Sep_21_1604,G,facesParametric,6,59.6466398935,
./stim/MorphF4_09_orig.jpg,169,,,,,,,,,0,169,169,169,,,,,,,,,,,,,,,-19.921875,-11.865234375,1,0,0,0.97012090683,,,,,2015_Sep_21_1604,G,facesParametric,6,59.6466398935,
./stim/MorphM4_02_orig.jpg,170,,,,,,,,,0,170,170,170,,,,,,,,,,,,,,,-19.921875,-11.865234375,1,0,0,0.869743108749,,,,,2015_Sep_21_1604,G,facesParametric,6,59.6466398935,
./stim/MorphM7_00_orig.jpg,171,,,,,,,,,0,171,171,171,,,,,,,,,,,,,,,-19.921875,-11.865234375,0,0,1,1.12196302414,,,,,2015_Sep_21_1604,G,facesParametric,6,59.6466398935,
./stim/MorphM1_08_orig.jpg,172,,,,,,,,,0,172,172,172,,,,,,,,,,,,,,,-20.0390625,-12.0703125,1,0,0,2.22767615318,,,,,2015_Sep_21_1604,G,facesParametric,6,59.6466398935,
./stim/MorphM7_04_orig.jpg,173,,,,,,,,,0,173,173,173,,,,,,,,,,,,,,,-20.44921875,-12.5390625,0,0,1,3.78604412079,,,,,2015_Sep_21_1604,G,facesParametric,6,59.6466398935,
./stim/MorphF3_09_orig.jpg,174,,,,,,,,,0,174,174,174,,,,,,,,,,,,,,,-20.419921875,-12.509765625,1,0,0,1.65841197968,,,,,2015_Sep_21_1604,G,facesParametric,6,59.6466398935,
./stim/MorphM5_02_orig.jpg,175,,,,,,,,,0,175,175,175,,,,,,,,,,,,,,,-20.419921875,-12.509765625,1,0,0,0.920112848282,,,,,2015_Sep_21_1604,G,facesParametric,6,59.6466398935,
./stim/MorphM10_01_orig.jpg,176,,,,,,,,,0,176,176,176,,,,,,,,,,,,,,,-20.654296875,-12.71484375,0,0,1,6.29955005646,,,,,2015_Sep_21_1604,G,facesParametric,6,59.6466398935,
./stim/MorphF7_05_orig.jpg,177,,,,,,,,,0,177,177,177,,,,,,,,,,,,,,,-20.654296875,-12.744140625,1,0,0,2.41181588173,,,,,2015_Sep_21_1604,G,facesParametric,6,59.6466398935,
./stim/MorphF4_07_orig.jpg,178,,,,,,,,,0,178,178,178,,,,,,,,,,,,,,,-20.80078125,-12.83203125,1,0,0,1.89251899719,,,,,2015_Sep_21_1604,G,facesParametric,6,59.6466398935,
./stim/MorphF1_07_orig.jpg,179,,,,,,,,,0,179,179,179,,,,,,,,,,,,,,,-20.80078125,-12.83203125,0,0,1,0.817826986313,,,,,2015_Sep_21_1604,G,facesParametric,6,59.6466398935,
./stim/MorphF8_02_orig.jpg,180,,,,,,,,,0,180,180,180,,,,,,,,,,,,,,,-20.80078125,-12.83203125,0,0,1,0.853511095047,,,,,2015_Sep_21_1604,G,facesParametric,6,59.6466398935,
./stim/MorphM1_01_orig.jpg,181,,,,,,,,,0,181,181,181,,,,,,,,,,,,,,,-20.7421875,-12.7734375,0,0,1,1.00412893295,,,,,2015_Sep_21_1604,G,facesParametric,6,59.6466398935,
./stim/MorphM2_09_orig.jpg,182,,,,,,,,,0,182,182,182,,,,,,,,,,,,,,,-20.712890625,-12.744140625,1,0,0,1.42343306541,,,,,2015_Sep_21_1604,G,facesParametric,6,59.6466398935,
./stim/MorphM6_06_orig.jpg,183,,,,,,,,,0,183,183,183,,,,,,,,,,,,,,,-20.712890625,-12.7734375,1,0,0,1.69185781479,,,,,2015_Sep_21_1604,G,facesParametric,6,59.6466398935,
./stim/MorphM5_09_orig.jpg,184,,,,,,,,,0,184,184,184,,,,,,,,,,,,,,,-20.7421875,-12.7734375,1,0,0,0.736142158508,,,,,2015_Sep_21_1604,G,facesParametric,6,59.6466398935,
./stim/MorphM10_09_orig.jpg,185,,,,,,,,,0,185,185,185,,,,,,,,,,,,,,,-20.830078125,-12.83203125,1,0,0,0.685769081116,,,,,2015_Sep_21_1604,G,facesParametric,6,59.6466398935,
./stim/MorphF9_03_orig.jpg,186,,,,,,,,,0,186,186,186,,,,,,,,,,,,,,,-20.947265625,-12.94921875,0,0,1,0.667923927307,,,,,2015_Sep_21_1604,G,facesParametric,6,59.6466398935,
./stim/MorphF4_02_orig.jpg,187,,,,,,,,,0,187,187,187,,,,,,,,,,,,,,,-22.03125,-13.154296875,0,0,1,2.47902107239,,,,,2015_Sep_21_1604,G,facesParametric,6,59.6466398935,
./stim/MorphF10_10_orig.jpg,188,,,,,,,,,0,188,188,188,,,,,,,,,,,,,,,-21.181640625,-13.154296875,1,0,0,2.02646684647,,,,,2015_Sep_21_1604,G,facesParametric,6,59.6466398935,
./stim/MorphM9_05_orig.jpg,189,,,,,,,,,0,189,189,189,,,,,,,,,,,,,,,-21.26953125,-13.154296875,0,0,1,1.92627906799,,,,,2015_Sep_21_1604,G,facesParametric,6,59.6466398935,
./stim/MorphF5_01_orig.jpg,190,,,,,,,,,0,190,190,190,,,,,,,,,,,,,,,-21.26953125,-13.037109375,0,0,1,1.40645289421,,,,,2015_Sep_21_1604,G,facesParametric,6,59.6466398935,
./stim/MorphM2_02_orig.jpg,191,,,,,,,,,0,191,191,191,,,,,,,,,,,,,,,-20.9765625,-12.7734375,0,0,1,2.56297111511,,,,,2015_Sep_21_1604,G,facesParametric,6,59.6466398935,
./stim/MorphF5_05_orig.jpg,192,,,,,,,,,0,192,192,192,,,,,,,,,,,,,,,-21.09375,-12.7734375,1,0,0,1.03774809837,,,,,2015_Sep_21_1604,G,facesParametric,6,59.6466398935,
./stim/MorphF4_06_orig.jpg,193,,,,,,,,,0,193,193,193,,,,,,,,,,,,,,,-21.005859375,-12.685546875,1,0,0,2.99881720543,,,,,2015_Sep_21_1604,G,facesParametric,6,59.6466398935,
./stim/MorphM7_01_orig.jpg,194,,,,,,,,,0,194,194,194,,,,,,,,,,,,,,,-21.03515625,-12.71484375,0,0,1,1.35628390312,,,,,2015_Sep_21_1604,G,facesParametric,6,59.6466398935,
./stim/MorphM10_02_orig.jpg,195,,,,,,,,,0,195,195,195,,,,,,,,,,,,,,,-21.09375,-12.48046875,0,0,1,1.02053499222,,,,,2015_Sep_21_1604,G,facesParametric,6,59.6466398935,
./stim/MorphM8_00_orig.jpg,196,,,,,,,,,0,196,196,196,,,,,,,,,,,,,,,-21.064453125,-12.48046875,0,0,1,1.97636890411,,,,,2015_Sep_21_1604,G,facesParametric,6,59.6466398935,
./stim/MorphF9_04_orig.jpg,197,,,,,,,,,0,197,197,197,,,,,,,,,,,,,,,-21.064453125,-12.48046875,0,0,1,1.03757309914,,,,,2015_Sep_21_1604,G,facesParametric,6,59.6466398935,
./stim/MorphF1_06_orig.jpg,198,,,,,,,,,0,198,198,198,,,,,,,,,,,,,,,-21.09375,-12.5390625,0,0,1,0.73604798317,,,,,2015_Sep_21_1604,G,facesParametric,6,59.6466398935,
./stim/MorphM8_05_orig.jpg,199,,,,,,,,,0,199,199,199,,,,,,,,,,,,,,,-21.064453125,-12.626953125,1,0,0,2.3278298378,,,,,2015_Sep_21_1604,G,facesParametric,6,59.6466398935,
./stim/MorphM4_03_orig.jpg,200,,,,,,,,,0,200,200,200,,,,,,,,,,,,,,,-20.947265625,-12.685546875,0,0,1,1.72536015511,,,,,2015_Sep_21_1604,G,facesParametric,6,59.6466398935,
./stim/MorphF3_06_orig.jpg,201,,,,,,,,,0,201,201,201,,,,,,,,,,,,,,,-20.91796875,-12.59765625,0,0,1,3.25003790855,,,,,2015_Sep_21_1604,G,facesParametric,6,59.6466398935,
./stim/MorphF9_08_orig.jpg,202,,,,,,,,,0,202,202,202,,,,,,,,,,,,,,,-20.712890625,-12.861328125,0,0,1,1.85733509064,,,,,2015_Sep_21_1604,G,facesParametric,6,59.6466398935,
./stim/MorphM1_04_orig.jpg,203,,,,,,,,,0,203,203,203,,,,,,,,,,,,,,,-20.7421875,-12.890625,0,0,1,1.15541601181,,,,,2015_Sep_21_1604,G,facesParametric,6,59.6466398935,
./stim/MorphF7_06_orig.jpg,204,,,,,,,,,0,204,204,204,,,,,,,,,,,,,,,-20.5078125,-12.802734375,1,0,0,2.07684993744,,,,,2015_Sep_21_1604,G,facesParametric,6,59.6466398935,
./stim/MorphM5_05_orig.jpg,205,,,,,,,,,0,205,205,205,,,,,,,,,,,,,,,-20.419921875,-12.861328125,1,0,0,1.27233290672,,,,,2015_Sep_21_1604,G,facesParametric,6,59.6466398935,
./stim/MorphF6_01_orig.jpg,206,,,,,,,,,0,206,206,206,,,,,,,,,,,,,,,-19.62890625,-11.953125,0,0,1,5.17629790306,,,,,2015_Sep_21_1604,G,facesParametric,6,59.6466398935,
./stim/MorphF2_02_orig.jpg,207,,,,,,,,,0,207,207,207,,,,,,,,,,,,,,,-21.09375,-12.421875,0,0,1,1.15596795082,,,,,2015_Sep_21_1604,G,facesParametric,6,59.6466398935,
./stim/MorphF9_01_orig.jpg,208,,,,,,,,,0,208,208,208,,,,,,,,,,,,,,,-21.650390625,-11.54296875,0,0,1,2.29409503937,,,,,2015_Sep_21_1604,G,facesParametric,6,59.6466398935,
./stim/MorphM3_02_orig.jpg,209,,,,,,,,,0,209,209,209,,,,,,,,,,,,,,,-22.119140625,-11.630859375,0,0,1,1.03526496887,,,,,2015_Sep_21_1604,G,facesParametric,6,59.6466398935,
./stim/MorphF2_10_orig.jpg,210,,,,,,,,,0,210,210,210,,,,,,,,,,,,,,,-21.2109375,-11.337890625,1,0,0,0.853874921799,,,,,2015_Sep_21_1604,G,facesParametric,6,59.6466398935,
./stim/MorphM10_10_orig.jpg,211,,,,,,,,,0,211,211,211,,,,,,,,,,,,,,,-21.4453125,-11.337890625,1,0,0,0.750960111618,,,,,2015_Sep_21_1604,G,facesParametric,6,59.6466398935,
./stim/MorphF8_05_orig.jpg,212,,,,,,,,,0,212,212,212,,,,,,,,,,,,,,,-21.4453125,-11.337890625,1,0,0,1.25489616394,,,,,2015_Sep_21_1604,G,facesParametric,6,59.6466398935,
./stim/MorphM9_08_orig.jpg,213,,,,,,,,,0,213,213,213,,,,,,,,,,,,,,,-21.4453125,-11.337890625,1,0,0,0.668098211288,,,,,2015_Sep_21_1604,G,facesParametric,6,59.6466398935,
./stim/MorphM10_06_orig.jpg,214,,,,,,,,,0,214,214,214,,,,,,,,,,,,,,,-21.4453125,-11.337890625,1,0,0,0.719266891479,,,,,2015_Sep_21_1604,G,facesParametric,6,59.6466398935,
./stim/MorphF8_00_orig.jpg,215,,,,,,,,,0,215,215,215,,,,,,,,,,,,,,,-21.474609375,-11.3671875,0,0,1,0.803550004959,,,,,2015_Sep_21_1604,G,facesParametric,6,59.6466398935,
./stim/MorphF1_09_orig.jpg,216,,,,,,,,,0,216,216,216,,,,,,,,,,,,,,,-21.474609375,-11.396484375,0,0,1,1.4730629921,,,,,2015_Sep_21_1604,G,facesParametric,6,59.6466398935,
./stim/MorphM6_04_orig.jpg,217,,,,,,,,,0,217,217,217,,,,,,,,,,,,,,,-21.474609375,-11.42578125,0,0,1,1.87634801865,,,,,2015_Sep_21_1604,G,facesParametric,6,59.6466398935,
./stim/MorphF5_00_orig.jpg,218,,,,,,,,,0,218,218,218,,,,,,,,,,,,,,,-21.50390625,-11.455078125,0,0,1,0.986059904099,,,,,2015_Sep_21_1604,G,facesParametric,6,59.6466398935,
./stim/MorphF8_03_orig.jpg,219,,,,,,,,,0,219,219,219,,,,,,,,,,,,,,,-21.50390625,-11.455078125,0,0,1,1.37352395058,,,,,2015_Sep_21_1604,G,facesParametric,6,59.6466398935,
,,,,,,,,,,,,,,,,,,,,,,,,,,,,,,,,,,,,return,2.55292201042,2015_Sep_21_1604,G,facesParametric,6,59.6466398935,
