img,num,basicLoop.thisRepN,basicLoop.thisTrialN,basicLoop.thisN,basicLoop.thisIndex,trials.thisRepN,trials.thisTrialN,trials.thisN,trials.thisIndex,trials2.thisRepN,trials2.thisTrialN,trials2.thisN,trials2.thisIndex,key_resp_2.keys,key_resp_2.rt,basicRating1.response,basicRating1.rt,basicRating2.response,basicRating2.rt,basicRating3.response,basicRating3.rt,basicRating4.response,basicRating4.rt,key_resp_3.keys,key_resp_3.rt,key_resp_4.keys,key_resp_4.rt,mouseResp.x,mouseResp.y,mouseResp.leftButton,mouseResp.midButton,mouseResp.rightButton,mouseResp.time,key_resp_5.keys,key_resp_5.rt,key_resp_7.keys,key_resp_7.rt,date,group,expName,participant,frameRate,
,,,,,,,,,,,,,,return,41.7586679459,,,,,,,,,,,,,,,,,,,,,,,2015_Sep_24_1639,G,facesParametric,7,59.7568582195,
./basicStim/07F_SA_C.jpg,,0,0,0,32,,,,,,,,,,,SAD,10.563,None,None,None,None,None,None,,,,,,,,,,,,,,,2015_Sep_24_1639,G,facesParametric,7,59.7568582195,
./basicStim/01F_SA_C.jpg,,0,1,1,4,,,,,,,,,,,SAD,9.308,None,None,None,None,None,None,,,,,,,,,,,,,,,2015_Sep_24_1639,G,facesParametric,7,59.7568582195,
./basicStim/24M_FE_O.jpg,,0,2,2,58,,,,,,,,,,,None,None,FEA,2.133,None,None,None,None,,,,,,,,,,,,,,,2015_Sep_24_1639,G,facesParametric,7,59.7568582195,
./basicStim/23M_AN_O.jpg,,0,3,3,49,,,,,,,,,,,None,None,ANG,2.519,None,None,None,None,,,,,,,,,,,,,,,2015_Sep_24_1639,G,facesParametric,7,59.7568582195,
./basicStim/01F_AN_O.jpg,,0,4,4,0,,,,,,,,,,,None,None,ANG,3.774,None,None,None,None,,,,,,,,,,,,,,,2015_Sep_24_1639,G,facesParametric,7,59.7568582195,
./basicStim/28M_AN_O.jpg,,0,5,5,63,,,,,,,,,,,None,None,None,None,DIS,3.005,None,None,,,,,,,,,,,,,,,2015_Sep_24_1639,G,facesParametric,7,59.7568582195,
./basicStim/03F_SA_C.jpg,,0,6,6,18,,,,,,,,,,,SAD,12.021,None,None,None,None,None,None,,,,,,,,,,,,,,,2015_Sep_24_1639,G,facesParametric,7,59.7568582195,
./basicStim/09F_AN_O.jpg,,0,7,7,35,,,,,,,,,,,None,None,ANG,2.116,None,None,None,None,,,,,,,,,,,,,,,2015_Sep_24_1639,G,facesParametric,7,59.7568582195,
./basicStim/23M_FE_O.jpg,,0,8,8,51,,,,,,,,,,,None,None,None,None,SUP,1.561,None,None,,,,,,,,,,,,,,,2015_Sep_24_1639,G,facesParametric,7,59.7568582195,
./basicStim/34M_AN_O.jpg,,0,9,9,70,,,,,,,,,,,None,None,ANG,2.503,None,None,None,None,,,,,,,,,,,,,,,2015_Sep_24_1639,G,facesParametric,7,59.7568582195,
./basicStim/21M_SA_C.jpg,,0,10,10,46,,,,,,,,,,,None,None,None,None,SUP,4.126,None,None,,,,,,,,,,,,,,,2015_Sep_24_1639,G,facesParametric,7,59.7568582195,
./basicStim/09F_FE_O.jpg,,0,11,11,37,,,,,,,,,,,None,None,None,None,SUP,3.039,None,None,,,,,,,,,,,,,,,2015_Sep_24_1639,G,facesParametric,7,59.7568582195,
./basicStim/21M_SP_O.jpg,,0,12,12,47,,,,,,,,,,,HAP,1.885,None,None,None,None,None,None,,,,,,,,,,,,,,,2015_Sep_24_1639,G,facesParametric,7,59.7568582195,
./basicStim/01F_NE_C.jpg,,0,13,13,6,,,,,,,,,,,SAD,18.547,None,None,None,None,None,None,,,,,,,,,,,,,,,2015_Sep_24_1639,G,facesParametric,7,59.7568582195,
./basicStim/28M_FE_O.jpg,,0,14,14,65,,,,,,,,,,,None,None,None,None,SUP,4.706,None,None,,,,,,,,,,,,,,,2015_Sep_24_1639,G,facesParametric,7,59.7568582195,
./basicStim/06F_SA_C.jpg,,0,15,15,25,,,,,,,,,,,SAD,10.433,None,None,None,None,None,None,,,,,,,,,,,,,,,2015_Sep_24_1639,G,facesParametric,7,59.7568582195,
./basicStim/28M_SP_O.jpg,,0,16,16,68,,,,,,,,,,,None,None,None,None,SUP,1.596,None,None,,,,,,,,,,,,,,,2015_Sep_24_1639,G,facesParametric,7,59.7568582195,
./basicStim/23M_HA_O.jpg,,0,17,17,52,,,,,,,,,,,HAP,1.435,None,None,None,None,None,None,,,,,,,,,,,,,,,2015_Sep_24_1639,G,facesParametric,7,59.7568582195,
./basicStim/02F_FE_O.jpg,,0,18,18,9,,,,,,,,,,,None,None,None,None,SUP,5.301,None,None,,,,,,,,,,,,,,,2015_Sep_24_1639,G,facesParametric,7,59.7568582195,
./basicStim/06F_AN_O.jpg,,0,19,19,21,,,,,,,,,,,None,None,None,None,DIS,4.325,None,None,,,,,,,,,,,,,,,2015_Sep_24_1639,G,facesParametric,7,59.7568582195,
./basicStim/07F_SP_O.jpg,,0,20,20,33,,,,,,,,,,,None,None,None,None,SUP,1.535,None,None,,,,,,,,,,,,,,,2015_Sep_24_1639,G,facesParametric,7,59.7568582195,
./basicStim/02F_SP_O.jpg,,0,21,21,12,,,,,,,,,,,None,None,None,None,SUP,1.849,None,None,,,,,,,,,,,,,,,2015_Sep_24_1639,G,facesParametric,7,59.7568582195,
./basicStim/23M_SA_C.jpg,,0,22,22,53,,,,,,,,,,,None,None,None,None,DIS,3.033,None,None,,,,,,,,,,,,,,,2015_Sep_24_1639,G,facesParametric,7,59.7568582195,
./basicStim/34M_NE_C.jpg,,0,23,23,76,,,,,,,,,,,None,None,None,None,None,None,NTR,1.444,,,,,,,,,,,,,,,2015_Sep_24_1639,G,facesParametric,7,59.7568582195,
./basicStim/03F_AN_O.jpg,,0,24,24,14,,,,,,,,,,,None,None,ANG,2.396,None,None,None,None,,,,,,,,,,,,,,,2015_Sep_24_1639,G,facesParametric,7,59.7568582195,
./basicStim/36M_FE_O.jpg,,0,25,25,79,,,,,,,,,,,None,None,None,None,SUP,1.628,None,None,,,,,,,,,,,,,,,2015_Sep_24_1639,G,facesParametric,7,59.7568582195,
./basicStim/23M_DI_O.jpg,,0,26,26,50,,,,,,,,,,,None,None,None,None,DIS,1.191,None,None,,,,,,,,,,,,,,,2015_Sep_24_1639,G,facesParametric,7,59.7568582195,
./basicStim/01F_HA_O.jpg,,0,27,27,3,,,,,,,,,,,None,None,None,None,None,None,NTR,4.428,,,,,,,,,,,,,,,2015_Sep_24_1639,G,facesParametric,7,59.7568582195,
./basicStim/03F_HA_O.jpg,,0,28,28,17,,,,,,,,,,,HAP,2.687,None,None,None,None,None,None,,,,,,,,,,,,,,,2015_Sep_24_1639,G,facesParametric,7,59.7568582195,
./basicStim/24M_SA_C.jpg,,0,29,29,60,,,,,,,,,,,SAD,5.885,None,None,None,None,None,None,,,,,,,,,,,,,,,2015_Sep_24_1639,G,facesParametric,7,59.7568582195,
./basicStim/21M_NE_C.jpg,,0,30,30,48,,,,,,,,,,,None,None,None,None,None,None,NTR,2.315,,,,,,,,,,,,,,,2015_Sep_24_1639,G,facesParametric,7,59.7568582195,
./basicStim/06F_FE_O.jpg,,0,31,31,23,,,,,,,,,,,None,None,FEA,7.494,None,None,None,None,,,,,,,,,,,,,,,2015_Sep_24_1639,G,facesParametric,7,59.7568582195,
./basicStim/28M_NE_C.jpg,,0,32,32,69,,,,,,,,,,,None,None,None,None,None,None,NTR,1.408,,,,,,,,,,,,,,,2015_Sep_24_1639,G,facesParametric,7,59.7568582195,
./basicStim/21M_HA_O.jpg,,0,33,33,45,,,,,,,,,,,HAP,1.948,None,None,None,None,None,None,,,,,,,,,,,,,,,2015_Sep_24_1639,G,facesParametric,7,59.7568582195,
./basicStim/24M_NE_C.jpg,,0,34,34,62,,,,,,,,,,,None,None,None,None,None,None,NTR,3.517,,,,,,,,,,,,,,,2015_Sep_24_1639,G,facesParametric,7,59.7568582195,
./basicStim/21M_DI_O.jpg,,0,35,35,43,,,,,,,,,,,None,None,None,None,DIS,2.003,None,None,,,,,,,,,,,,,,,2015_Sep_24_1639,G,facesParametric,7,59.7568582195,
./basicStim/09F_HA_O.jpg,,0,36,36,38,,,,,,,,,,,HAP,2.506,None,None,None,None,None,None,,,,,,,,,,,,,,,2015_Sep_24_1639,G,facesParametric,7,59.7568582195,
./basicStim/07F_HA_O.jpg,,0,37,37,31,,,,,,,,,,,HAP,5.643,None,None,None,None,None,None,,,,,,,,,,,,,,,2015_Sep_24_1639,G,facesParametric,7,59.7568582195,
./basicStim/24M_AN_O.jpg,,0,38,38,56,,,,,,,,,,,None,None,ANG,4.716,None,None,None,None,,,,,,,,,,,,,,,2015_Sep_24_1639,G,facesParametric,7,59.7568582195,
./basicStim/03F_NE_C.jpg,,0,39,39,20,,,,,,,,,,,None,None,None,None,None,None,NTR,2.265,,,,,,,,,,,,,,,2015_Sep_24_1639,G,facesParametric,7,59.7568582195,
./basicStim/09F_DI_O.jpg,,0,40,40,36,,,,,,,,,,,None,None,None,None,DIS,1.044,None,None,,,,,,,,,,,,,,,2015_Sep_24_1639,G,facesParametric,7,59.7568582195,
./basicStim/09F_SP_O.jpg,,0,41,41,40,,,,,,,,,,,None,None,None,None,SUP,1.903,None,None,,,,,,,,,,,,,,,2015_Sep_24_1639,G,facesParametric,7,59.7568582195,
./basicStim/36M_DI_O.jpg,,0,42,42,78,,,,,,,,,,,None,None,None,None,DIS,1.057,None,None,,,,,,,,,,,,,,,2015_Sep_24_1639,G,facesParametric,7,59.7568582195,
./basicStim/28M_DI_O.jpg,,0,43,43,64,,,,,,,,,,,None,None,None,None,DIS,1.045,None,None,,,,,,,,,,,,,,,2015_Sep_24_1639,G,facesParametric,7,59.7568582195,
./basicStim/24M_SP_O.jpg,,0,44,44,61,,,,,,,,,,,None,None,None,None,SUP,2.306,None,None,,,,,,,,,,,,,,,2015_Sep_24_1639,G,facesParametric,7,59.7568582195,
./basicStim/34M_DI_O.jpg,,0,45,45,71,,,,,,,,,,,None,None,None,None,DIS,1.412,None,None,,,,,,,,,,,,,,,2015_Sep_24_1639,G,facesParametric,7,59.7568582195,
./basicStim/09F_SA_C.jpg,,0,46,46,39,,,,,,,,,,,SAD,4.497,None,None,None,None,None,None,,,,,,,,,,,,,,,2015_Sep_24_1639,G,facesParametric,7,59.7568582195,
./basicStim/36M_AN_O.jpg,,0,47,47,77,,,,,,,,,,,None,None,ANG,0.947,None,None,None,None,,,,,,,,,,,,,,,2015_Sep_24_1639,G,facesParametric,7,59.7568582195,
./basicStim/24M_DI_O.jpg,,0,48,48,57,,,,,,,,,,,None,None,None,None,DIS,4.014,None,None,,,,,,,,,,,,,,,2015_Sep_24_1639,G,facesParametric,7,59.7568582195,
./basicStim/06F_NE_C.jpg,,0,49,49,27,,,,,,,,,,,None,None,None,None,None,None,NTR,0.958,,,,,,,,,,,,,,,2015_Sep_24_1639,G,facesParametric,7,59.7568582195,
./basicStim/23M_NE_C.jpg,,0,50,50,55,,,,,,,,,,,None,None,None,None,None,None,NTR,1.244,,,,,,,,,,,,,,,2015_Sep_24_1639,G,facesParametric,7,59.7568582195,
./basicStim/34M_SP_O.jpg,,0,51,51,75,,,,,,,,,,,None,None,None,None,SUP,1.512,None,None,,,,,,,,,,,,,,,2015_Sep_24_1639,G,facesParametric,7,59.7568582195,
./basicStim/02F_SA_C.jpg,,0,52,52,11,,,,,,,,,,,SAD,3.409,None,None,None,None,None,None,,,,,,,,,,,,,,,2015_Sep_24_1639,G,facesParametric,7,59.7568582195,
./basicStim/07F_AN_O.jpg,,0,53,53,28,,,,,,,,,,,None,None,ANG,0.858,None,None,None,None,,,,,,,,,,,,,,,2015_Sep_24_1639,G,facesParametric,7,59.7568582195,
./basicStim/03F_SP_O.jpg,,0,54,54,19,,,,,,,,,,,None,None,None,None,SUP,2.784,None,None,,,,,,,,,,,,,,,2015_Sep_24_1639,G,facesParametric,7,59.7568582195,
./basicStim/01F_FE_O.jpg,,0,55,55,2,,,,,,,,,,,None,None,None,None,SUP,3.175,None,None,,,,,,,,,,,,,,,2015_Sep_24_1639,G,facesParametric,7,59.7568582195,
./basicStim/07F_DI_O.jpg,,0,56,56,29,,,,,,,,,,,None,None,None,None,DIS,1.01,None,None,,,,,,,,,,,,,,,2015_Sep_24_1639,G,facesParametric,7,59.7568582195,
./basicStim/02F_AN_O.jpg,,0,57,57,7,,,,,,,,,,,None,None,ANG,3.001,None,None,None,None,,,,,,,,,,,,,,,2015_Sep_24_1639,G,facesParametric,7,59.7568582195,
./basicStim/03F_DI_O.jpg,,0,58,58,15,,,,,,,,,,,None,None,None,None,DIS,0.789,None,None,,,,,,,,,,,,,,,2015_Sep_24_1639,G,facesParametric,7,59.7568582195,
./basicStim/01F_DI_O.jpg,,0,59,59,1,,,,,,,,,,,None,None,None,None,DIS,3.318,None,None,,,,,,,,,,,,,,,2015_Sep_24_1639,G,facesParametric,7,59.7568582195,
./basicStim/07F_NE_C.jpg,,0,60,60,34,,,,,,,,,,,None,None,None,None,None,None,NTR,1.824,,,,,,,,,,,,,,,2015_Sep_24_1639,G,facesParametric,7,59.7568582195,
./basicStim/01F_SP_O.jpg,,0,61,61,5,,,,,,,,,,,None,None,None,None,SUP,1.378,None,None,,,,,,,,,,,,,,,2015_Sep_24_1639,G,facesParametric,7,59.7568582195,
./basicStim/36M_SP_O.jpg,,0,62,62,82,,,,,,,,,,,None,None,None,None,SUP,1.88,None,None,,,,,,,,,,,,,,,2015_Sep_24_1639,G,facesParametric,7,59.7568582195,
./basicStim/24M_HA_O.jpg,,0,63,63,59,,,,,,,,,,,HAP,1.063,None,None,None,None,None,None,,,,,,,,,,,,,,,2015_Sep_24_1639,G,facesParametric,7,59.7568582195,
./basicStim/03F_FE_O.jpg,,0,64,64,16,,,,,,,,,,,None,None,None,None,SUP,2.617,None,None,,,,,,,,,,,,,,,2015_Sep_24_1639,G,facesParametric,7,59.7568582195,
./basicStim/34M_SA_C.jpg,,0,65,65,74,,,,,,,,,,,SAD,2.123,None,None,None,None,None,None,,,,,,,,,,,,,,,2015_Sep_24_1639,G,facesParametric,7,59.7568582195,
./basicStim/06F_DI_O.jpg,,0,66,66,22,,,,,,,,,,,None,None,None,None,DIS,0.959,None,None,,,,,,,,,,,,,,,2015_Sep_24_1639,G,facesParametric,7,59.7568582195,
./basicStim/28M_SA_C.jpg,,0,67,67,67,,,,,,,,,,,None,None,FEA,2.715,None,None,None,None,,,,,,,,,,,,,,,2015_Sep_24_1639,G,facesParametric,7,59.7568582195,
./basicStim/34M_HA_O.jpg,,0,68,68,73,,,,,,,,,,,HAP,0.958,None,None,None,None,None,None,,,,,,,,,,,,,,,2015_Sep_24_1639,G,facesParametric,7,59.7568582195,
./basicStim/07F_FE_O.jpg,,0,69,69,30,,,,,,,,,,,None,None,None,None,SUP,2.229,None,None,,,,,,,,,,,,,,,2015_Sep_24_1639,G,facesParametric,7,59.7568582195,
./basicStim/09F_NE_C.jpg,,0,70,70,41,,,,,,,,,,,None,None,None,None,None,None,NTR,0.822,,,,,,,,,,,,,,,2015_Sep_24_1639,G,facesParametric,7,59.7568582195,
./basicStim/36M_NE_C.jpg,,0,71,71,83,,,,,,,,,,,None,None,None,None,None,None,NTR,0.585,,,,,,,,,,,,,,,2015_Sep_24_1639,G,facesParametric,7,59.7568582195,
./basicStim/02F_NE_C.jpg,,0,72,72,13,,,,,,,,,,,None,None,None,None,None,None,NTR,1.207,,,,,,,,,,,,,,,2015_Sep_24_1639,G,facesParametric,7,59.7568582195,
./basicStim/36M_SA_C.jpg,,0,73,73,81,,,,,,,,,,,SAD,7.352,None,None,None,None,None,None,,,,,,,,,,,,,,,2015_Sep_24_1639,G,facesParametric,7,59.7568582195,
./basicStim/06F_SP_O.jpg,,0,74,74,26,,,,,,,,,,,None,None,None,None,SUP,1.209,None,None,,,,,,,,,,,,,,,2015_Sep_24_1639,G,facesParametric,7,59.7568582195,
./basicStim/21M_AN_O.jpg,,0,75,75,42,,,,,,,,,,,None,None,ANG,1.833,None,None,None,None,,,,,,,,,,,,,,,2015_Sep_24_1639,G,facesParametric,7,59.7568582195,
./basicStim/28M_HA_O.jpg,,0,76,76,66,,,,,,,,,,,HAP,1.331,None,None,None,None,None,None,,,,,,,,,,,,,,,2015_Sep_24_1639,G,facesParametric,7,59.7568582195,
./basicStim/02F_DI_O.jpg,,0,77,77,8,,,,,,,,,,,None,None,None,None,DIS,8.866,None,None,,,,,,,,,,,,,,,2015_Sep_24_1639,G,facesParametric,7,59.7568582195,
./basicStim/06F_HA_O.jpg,,0,78,78,24,,,,,,,,,,,HAP,1.279,None,None,None,None,None,None,,,,,,,,,,,,,,,2015_Sep_24_1639,G,facesParametric,7,59.7568582195,
./basicStim/34M_FE_O.jpg,,0,79,79,72,,,,,,,,,,,None,None,None,None,SUP,1.494,None,None,,,,,,,,,,,,,,,2015_Sep_24_1639,G,facesParametric,7,59.7568582195,
./basicStim/36M_HA_O.jpg,,0,80,80,80,,,,,,,,,,,HAP,5.117,None,None,None,None,None,None,,,,,,,,,,,,,,,2015_Sep_24_1639,G,facesParametric,7,59.7568582195,
./basicStim/02F_HA_O.jpg,,0,81,81,10,,,,,,,,,,,HAP,6.679,None,None,None,None,None,None,,,,,,,,,,,,,,,2015_Sep_24_1639,G,facesParametric,7,59.7568582195,
./basicStim/21M_FE_O.jpg,,0,82,82,44,,,,,,,,,,,None,None,None,None,SUP,3.137,None,None,,,,,,,,,,,,,,,2015_Sep_24_1639,G,facesParametric,7,59.7568582195,
./basicStim/23M_SP_O.jpg,,0,83,83,54,,,,,,,,,,,None,None,None,None,SUP,2.151,None,None,,,,,,,,,,,,,,,2015_Sep_24_1639,G,facesParametric,7,59.7568582195,
,,,,,,,,,,,,,,,,,,,,,,,,return,3.30124807358,,,,,,,,,,,,,2015_Sep_24_1639,G,facesParametric,7,59.7568582195,
,,,,,,,,,,,,,,return,20.6810879707,,,,,,,,,,,,,,,,,,,,,,,2015_Sep_24_1639,G,facesParametric,7,59.7568582195,
,,,,,,,,,,,,,,,,,,,,,,,,return,12.8211500645,,,,,,,,,,,,,2015_Sep_24_1639,G,facesParametric,7,59.7568582195,
,,,,,,,,,,,,,,,,,,,,,,,,,,return,2.34680604935,,,,,,,,,,,2015_Sep_24_1639,G,facesParametric,7,59.7568582195,
./stim/MorphM6_08_orig.jpg,0,,,,,0,0,0,0,,,,,,,,,,,,,,,,,,,14.501953125,-10.341796875,0,0,1,11.7990989685,,,,,2015_Sep_24_1639,G,facesParametric,7,59.7568582195,
./stim/MorphF4_09_orig.jpg,1,,,,,0,1,1,1,,,,,,,,,,,,,,,,,,,14.501953125,-10.341796875,0,0,1,1.67391610146,,,,,2015_Sep_24_1639,G,facesParametric,7,59.7568582195,
./stim/MorphM4_03_orig.jpg,2,,,,,0,2,2,2,,,,,,,,,,,,,,,,,,,14.501953125,-10.341796875,1,0,0,3.01521706581,,,,,2015_Sep_24_1639,G,facesParametric,7,59.7568582195,
./stim/MorphM6_10_orig.jpg,3,,,,,0,3,3,3,,,,,,,,,,,,,,,,,,,18.57421875,-9.19921875,0,0,1,16.4565310478,,,,,2015_Sep_24_1639,G,facesParametric,7,59.7568582195,
./stim/MorphF1_01_orig.jpg,4,,,,,0,4,4,4,,,,,,,,,,,,,,,,,,,18.57421875,-9.19921875,1,0,0,1.25555300713,,,,,2015_Sep_24_1639,G,facesParametric,7,59.7568582195,
./stim/MorphM9_03_orig.jpg,5,,,,,0,5,5,5,,,,,,,,,,,,,,,,,,,18.57421875,-9.169921875,1,0,0,1.67430090904,,,,,2015_Sep_24_1639,G,facesParametric,7,59.7568582195,
./stim/MorphF2_08_orig.jpg,6,,,,,0,6,6,6,,,,,,,,,,,,,,,,,,,18.515625,-9.111328125,0,0,1,1.70849895477,,,,,2015_Sep_24_1639,G,facesParametric,7,59.7568582195,
./stim/MorphF9_06_orig.jpg,7,,,,,0,7,7,7,,,,,,,,,,,,,,,,,,,18.3984375,-9.08203125,1,0,0,1.23918294907,,,,,2015_Sep_24_1639,G,facesParametric,7,59.7568582195,
./stim/MorphF2_07_orig.jpg,8,,,,,0,8,8,8,,,,,,,,,,,,,,,,,,,18.310546875,-9.111328125,0,0,1,1.00390505791,,,,,2015_Sep_24_1639,G,facesParametric,7,59.7568582195,
./stim/MorphM2_03_orig.jpg,9,,,,,0,9,9,9,,,,,,,,,,,,,,,,,,,18.28125,-9.169921875,1,0,0,1.43810915947,,,,,2015_Sep_24_1639,G,facesParametric,7,59.7568582195,
./stim/MorphM3_01_orig.jpg,10,,,,,0,10,10,10,,,,,,,,,,,,,,,,,,,18.28125,-9.169921875,1,0,0,1.44039392471,,,,,2015_Sep_24_1639,G,facesParametric,7,59.7568582195,
./stim/MorphF5_10_orig.jpg,11,,,,,0,11,11,11,,,,,,,,,,,,,,,,,,,18.369140625,-9.169921875,0,0,1,2.6465420723,,,,,2015_Sep_24_1639,G,facesParametric,7,59.7568582195,
./stim/MorphF3_05_orig.jpg,12,,,,,0,12,12,12,,,,,,,,,,,,,,,,,,,18.427734375,-9.287109375,1,0,0,9.43460416794,,,,,2015_Sep_24_1639,G,facesParametric,7,59.7568582195,
./stim/MorphM1_08_orig.jpg,13,,,,,0,13,13,13,,,,,,,,,,,,,,,,,,,18.45703125,-9.31640625,1,0,0,3.63551592827,,,,,2015_Sep_24_1639,G,facesParametric,7,59.7568582195,
./stim/MorphM5_06_orig.jpg,14,,,,,0,14,14,14,,,,,,,,,,,,,,,,,,,18.486328125,-9.345703125,0,0,1,2.36131095886,,,,,2015_Sep_24_1639,G,facesParametric,7,59.7568582195,
./stim/MorphM7_10_orig.jpg,15,,,,,0,15,15,15,,,,,,,,,,,,,,,,,,,18.486328125,-9.375,0,0,1,0.853903055191,,,,,2015_Sep_24_1639,G,facesParametric,7,59.7568582195,
./stim/MorphM3_03_orig.jpg,16,,,,,0,16,16,16,,,,,,,,,,,,,,,,,,,18.486328125,-9.404296875,1,0,0,1.1385371685,,,,,2015_Sep_24_1639,G,facesParametric,7,59.7568582195,
./stim/MorphM4_05_orig.jpg,17,,,,,0,17,17,17,,,,,,,,,,,,,,,,,,,18.45703125,-9.462890625,0,0,1,3.26712012291,,,,,2015_Sep_24_1639,G,facesParametric,7,59.7568582195,
./stim/MorphM1_05_orig.jpg,18,,,,,0,18,18,18,,,,,,,,,,,,,,,,,,,18.45703125,-9.462890625,1,0,0,2.36165785789,,,,,2015_Sep_24_1639,G,facesParametric,7,59.7568582195,
./stim/MorphM9_04_orig.jpg,19,,,,,0,19,19,19,,,,,,,,,,,,,,,,,,,18.45703125,-9.462890625,1,0,0,0.88586807251,,,,,2015_Sep_24_1639,G,facesParametric,7,59.7568582195,
./stim/MorphM1_07_orig.jpg,20,,,,,0,20,20,20,,,,,,,,,,,,,,,,,,,18.3984375,-9.4921875,1,0,0,1.48760390282,,,,,2015_Sep_24_1639,G,facesParametric,7,59.7568582195,
./stim/MorphF3_00_orig.jpg,21,,,,,0,21,21,21,,,,,,,,,,,,,,,,,,,18.369140625,-9.4921875,1,0,0,6.08162307739,,,,,2015_Sep_24_1639,G,facesParametric,7,59.7568582195,
./stim/MorphF6_03_orig.jpg,22,,,,,0,22,22,22,,,,,,,,,,,,,,,,,,,18.369140625,-9.4921875,1,0,0,1.23814105988,,,,,2015_Sep_24_1639,G,facesParametric,7,59.7568582195,
./stim/MorphF1_08_orig.jpg,23,,,,,0,23,23,23,,,,,,,,,,,,,,,,,,,18.369140625,-9.4921875,1,0,0,1.85655498505,,,,,2015_Sep_24_1639,G,facesParametric,7,59.7568582195,
./stim/MorphM7_05_orig.jpg,24,,,,,0,24,24,24,,,,,,,,,,,,,,,,,,,18.369140625,-9.4921875,0,0,1,0.802351951599,,,,,2015_Sep_24_1639,G,facesParametric,7,59.7568582195,
./stim/MorphM2_01_orig.jpg,25,,,,,0,25,25,25,,,,,,,,,,,,,,,,,,,18.369140625,-9.4921875,1,0,0,1.08843588829,,,,,2015_Sep_24_1639,G,facesParametric,7,59.7568582195,
./stim/MorphF10_01_orig.jpg,26,,,,,0,26,26,26,,,,,,,,,,,,,,,,,,,18.369140625,-9.4921875,1,0,0,2.16054415703,,,,,2015_Sep_24_1639,G,facesParametric,7,59.7568582195,
./stim/MorphM4_04_orig.jpg,27,,,,,0,27,27,27,,,,,,,,,,,,,,,,,,,18.369140625,-9.462890625,0,0,1,2.32636284828,,,,,2015_Sep_24_1639,G,facesParametric,7,59.7568582195,
./stim/MorphF5_01_orig.jpg,28,,,,,0,28,28,28,,,,,,,,,,,,,,,,,,,18.369140625,-9.43359375,1,0,0,5.76430106163,,,,,2015_Sep_24_1639,G,facesParametric,7,59.7568582195,
./stim/MorphF6_01_orig.jpg,29,,,,,0,29,29,29,,,,,,,,,,,,,,,,,,,18.3984375,-9.404296875,1,0,0,2.81337189674,,,,,2015_Sep_24_1639,G,facesParametric,7,59.7568582195,
./stim/MorphM5_05_orig.jpg,30,,,,,0,30,30,30,,,,,,,,,,,,,,,,,,,18.3984375,-9.404296875,0,0,1,1.67460393906,,,,,2015_Sep_24_1639,G,facesParametric,7,59.7568582195,
./stim/MorphM1_00_orig.jpg,31,,,,,0,31,31,31,,,,,,,,,,,,,,,,,,,18.33984375,-9.375,1,0,0,3.09933900833,,,,,2015_Sep_24_1639,G,facesParametric,7,59.7568582195,
./stim/MorphF3_02_orig.jpg,32,,,,,0,32,32,32,,,,,,,,,,,,,,,,,,,18.33984375,-9.375,1,0,0,5.73020505905,,,,,2015_Sep_24_1639,G,facesParametric,7,59.7568582195,
./stim/MorphF6_06_orig.jpg,33,,,,,0,33,33,33,,,,,,,,,,,,,,,,,,,18.28125,-9.345703125,0,0,1,5.47940802574,,,,,2015_Sep_24_1639,G,facesParametric,7,59.7568582195,
./stim/MorphF8_05_orig.jpg,34,,,,,0,34,34,34,,,,,,,,,,,,,,,,,,,18.251953125,-9.31640625,0,0,1,1.47208786011,,,,,2015_Sep_24_1639,G,facesParametric,7,59.7568582195,
./stim/MorphF1_09_orig.jpg,35,,,,,0,35,35,35,,,,,,,,,,,,,,,,,,,18.251953125,-9.31640625,0,0,1,1.90901303291,,,,,2015_Sep_24_1639,G,facesParametric,7,59.7568582195,
./stim/MorphF7_07_orig.jpg,36,,,,,0,36,36,36,,,,,,,,,,,,,,,,,,,18.193359375,-9.31640625,0,0,1,2.36197900772,,,,,2015_Sep_24_1639,G,facesParametric,7,59.7568582195,
./stim/MorphM6_09_orig.jpg,37,,,,,0,37,37,37,,,,,,,,,,,,,,,,,,,18.193359375,-9.31640625,0,0,1,0.869147062302,,,,,2015_Sep_24_1639,G,facesParametric,7,59.7568582195,
./stim/MorphF3_10_orig.jpg,38,,,,,0,38,38,38,,,,,,,,,,,,,,,,,,,18.193359375,-9.31640625,0,0,1,2.06016802788,,,,,2015_Sep_24_1639,G,facesParametric,7,59.7568582195,
./stim/MorphF10_03_orig.jpg,39,,,,,0,39,39,39,,,,,,,,,,,,,,,,,,,18.22265625,-9.43359375,0,0,1,1.97531485558,,,,,2015_Sep_24_1639,G,facesParametric,7,59.7568582195,
./stim/MorphF8_00_orig.jpg,40,,,,,0,40,40,40,,,,,,,,,,,,,,,,,,,18.193359375,-9.462890625,1,0,0,1.02192020416,,,,,2015_Sep_24_1639,G,facesParametric,7,59.7568582195,
./stim/MorphM7_00_orig.jpg,41,,,,,0,41,41,41,,,,,,,,,,,,,,,,,,,18.193359375,-9.462890625,1,0,0,1.2549738884,,,,,2015_Sep_24_1639,G,facesParametric,7,59.7568582195,
./stim/MorphM4_09_orig.jpg,42,,,,,0,42,42,42,,,,,,,,,,,,,,,,,,,18.1640625,-9.462890625,0,0,1,2.21101903915,,,,,2015_Sep_24_1639,G,facesParametric,7,59.7568582195,
./stim/MorphM3_10_orig.jpg,43,,,,,0,43,43,43,,,,,,,,,,,,,,,,,,,18.193359375,-9.4921875,0,0,1,1.22242689133,,,,,2015_Sep_24_1639,G,facesParametric,7,59.7568582195,
./stim/MorphF5_02_orig.jpg,44,,,,,0,44,44,44,,,,,,,,,,,,,,,,,,,18.22265625,-9.462890625,1,0,0,2.9987578392,,,,,2015_Sep_24_1639,G,facesParametric,7,59.7568582195,
./stim/MorphF6_04_orig.jpg,45,,,,,0,45,45,45,,,,,,,,,,,,,,,,,,,18.193359375,-9.462890625,0,0,1,9.76976299286,,,,,2015_Sep_24_1639,G,facesParametric,7,59.7568582195,
./stim/MorphF10_02_orig.jpg,46,,,,,0,46,46,46,,,,,,,,,,,,,,,,,,,18.1640625,-9.43359375,1,0,0,11.2445948124,,,,,2015_Sep_24_1639,G,facesParametric,7,59.7568582195,
./stim/MorphF7_08_orig.jpg,47,,,,,0,47,47,47,,,,,,,,,,,,,,,,,,,18.193359375,-9.404296875,0,0,1,3.08227610588,,,,,2015_Sep_24_1639,G,facesParametric,7,59.7568582195,
./stim/MorphF10_10_orig.jpg,48,,,,,0,48,48,48,,,,,,,,,,,,,,,,,,,18.193359375,-9.404296875,0,0,1,0.786833047867,,,,,2015_Sep_24_1639,G,facesParametric,7,59.7568582195,
./stim/MorphF6_05_orig.jpg,49,,,,,0,49,49,49,,,,,,,,,,,,,,,,,,,18.22265625,-9.31640625,0,0,1,1.25547194481,,,,,2015_Sep_24_1639,G,facesParametric,7,59.7568582195,
./stim/MorphF5_00_orig.jpg,50,,,,,0,50,50,50,,,,,,,,,,,,,,,,,,,18.1640625,-9.2578125,1,0,0,2.04377412796,,,,,2015_Sep_24_1639,G,facesParametric,7,59.7568582195,
./stim/MorphF2_01_orig.jpg,51,,,,,0,51,51,51,,,,,,,,,,,,,,,,,,,18.134765625,-9.287109375,1,0,0,2.94751596451,,,,,2015_Sep_24_1639,G,facesParametric,7,59.7568582195,
./stim/MorphF7_05_orig.jpg,52,,,,,0,52,52,52,,,,,,,,,,,,,,,,,,,18.134765625,-9.2578125,0,0,1,2.17720985413,,,,,2015_Sep_24_1639,G,facesParametric,7,59.7568582195,
./stim/MorphF1_00_orig.jpg,53,,,,,0,53,53,53,,,,,,,,,,,,,,,,,,,18.10546875,-9.228515625,1,0,0,1.18790888786,,,,,2015_Sep_24_1639,G,facesParametric,7,59.7568582195,
./stim/MorphM3_06_orig.jpg,54,,,,,0,54,54,54,,,,,,,,,,,,,,,,,,,18.076171875,-9.111328125,1,0,0,4.70851993561,,,,,2015_Sep_24_1639,G,facesParametric,7,59.7568582195,
./stim/MorphM6_03_orig.jpg,55,,,,,0,55,55,55,,,,,,,,,,,,,,,,,,,18.046875,-9.111328125,1,0,0,10.5233199596,,,,,2015_Sep_24_1639,G,facesParametric,7,59.7568582195,
./stim/MorphM7_06_orig.jpg,56,,,,,0,56,56,56,,,,,,,,,,,,,,,,,,,18.017578125,-9.140625,0,0,1,2.20872998238,,,,,2015_Sep_24_1639,G,facesParametric,7,59.7568582195,
./stim/MorphM2_06_orig.jpg,57,,,,,0,57,57,57,,,,,,,,,,,,,,,,,,,18.017578125,-9.111328125,1,0,0,4.32246804237,,,,,2015_Sep_24_1639,G,facesParametric,7,59.7568582195,
./stim/MorphM8_09_orig.jpg,58,,,,,0,58,58,58,,,,,,,,,,,,,,,,,,,18.046875,-9.08203125,0,0,1,1.1552491188,,,,,2015_Sep_24_1639,G,facesParametric,7,59.7568582195,
./stim/MorphM7_04_orig.jpg,59,,,,,0,59,59,59,,,,,,,,,,,,,,,,,,,18.076171875,-9.111328125,0,0,1,0.920151948929,,,,,2015_Sep_24_1639,G,facesParametric,7,59.7568582195,
./stim/MorphF2_02_orig.jpg,60,,,,,0,60,60,60,,,,,,,,,,,,,,,,,,,18.10546875,-9.169921875,1,0,0,1.15567421913,,,,,2015_Sep_24_1639,G,facesParametric,7,59.7568582195,
./stim/MorphM8_07_orig.jpg,61,,,,,0,61,61,61,,,,,,,,,,,,,,,,,,,18.134765625,-9.140625,0,0,1,1.00277709961,,,,,2015_Sep_24_1639,G,facesParametric,7,59.7568582195,
./stim/MorphF7_09_orig.jpg,62,,,,,0,62,62,62,,,,,,,,,,,,,,,,,,,18.1640625,-9.169921875,0,0,1,1.67520189285,,,,,2015_Sep_24_1639,G,facesParametric,7,59.7568582195,
./stim/MorphM2_07_orig.jpg,63,,,,,0,63,63,63,,,,,,,,,,,,,,,,,,,18.134765625,-9.228515625,0,0,1,1.48969507217,,,,,2015_Sep_24_1639,G,facesParametric,7,59.7568582195,
./stim/MorphF6_02_orig.jpg,64,,,,,0,64,64,64,,,,,,,,,,,,,,,,,,,18.1640625,-9.2578125,1,0,0,1.28735804558,,,,,2015_Sep_24_1639,G,facesParametric,7,59.7568582195,
./stim/MorphM10_07_orig.jpg,65,,,,,0,65,65,65,,,,,,,,,,,,,,,,,,,18.134765625,-9.228515625,0,0,1,1.80872917175,,,,,2015_Sep_24_1639,G,facesParametric,7,59.7568582195,
./stim/MorphM7_08_orig.jpg,66,,,,,0,66,66,66,,,,,,,,,,,,,,,,,,,18.10546875,-9.2578125,0,0,1,0.903783082962,,,,,2015_Sep_24_1639,G,facesParametric,7,59.7568582195,
./stim/MorphF9_07_orig.jpg,67,,,,,0,67,67,67,,,,,,,,,,,,,,,,,,,18.076171875,-9.31640625,0,0,1,3.7868168354,,,,,2015_Sep_24_1639,G,facesParametric,7,59.7568582195,
./stim/MorphF3_03_orig.jpg,68,,,,,0,68,68,68,,,,,,,,,,,,,,,,,,,18.1640625,-9.287109375,1,0,0,2.36157107353,,,,,2015_Sep_24_1639,G,facesParametric,7,59.7568582195,
./stim/MorphM10_09_orig.jpg,69,,,,,0,69,69,69,,,,,,,,,,,,,,,,,,,18.1640625,-9.287109375,0,0,1,1.28957104683,,,,,2015_Sep_24_1639,G,facesParametric,7,59.7568582195,
./stim/MorphF5_03_orig.jpg,70,,,,,0,70,70,70,,,,,,,,,,,,,,,,,,,18.193359375,-9.31640625,1,0,0,0.852844953537,,,,,2015_Sep_24_1639,G,facesParametric,7,59.7568582195,
./stim/MorphF4_01_orig.jpg,71,,,,,0,71,71,71,,,,,,,,,,,,,,,,,,,18.134765625,-9.375,1,0,0,1.25556707382,,,,,2015_Sep_24_1639,G,facesParametric,7,59.7568582195,
./stim/MorphF8_09_orig.jpg,72,,,,,0,72,72,72,,,,,,,,,,,,,,,,,,,18.1640625,-9.404296875,0,0,1,1.02115893364,,,,,2015_Sep_24_1639,G,facesParametric,7,59.7568582195,
./stim/MorphM3_09_orig.jpg,73,,,,,0,73,73,73,,,,,,,,,,,,,,,,,,,18.22265625,-9.4921875,0,0,1,1.65829205513,,,,,2015_Sep_24_1639,G,facesParametric,7,59.7568582195,
./stim/MorphF7_06_orig.jpg,74,,,,,0,74,74,74,,,,,,,,,,,,,,,,,,,18.22265625,-9.521484375,0,0,1,0.971359014511,,,,,2015_Sep_24_1639,G,facesParametric,7,59.7568582195,
./stim/MorphM6_05_orig.jpg,75,,,,,0,75,75,75,,,,,,,,,,,,,,,,,,,18.1640625,-9.755859375,1,0,0,6.98657202721,,,,,2015_Sep_24_1639,G,facesParametric,7,59.7568582195,
./stim/MorphF6_00_orig.jpg,76,,,,,0,76,76,76,,,,,,,,,,,,,,,,,,,18.1640625,-9.755859375,1,0,0,0.836668014526,,,,,2015_Sep_24_1639,G,facesParametric,7,59.7568582195,
./stim/MorphF2_10_orig.jpg,77,,,,,0,77,77,77,,,,,,,,,,,,,,,,,,,18.1640625,-9.755859375,0,0,1,1.154763937,,,,,2015_Sep_24_1639,G,facesParametric,7,59.7568582195,
./stim/MorphF5_05_orig.jpg,78,,,,,0,78,78,78,,,,,,,,,,,,,,,,,,,18.134765625,-9.78515625,1,0,0,1.57346510887,,,,,2015_Sep_24_1639,G,facesParametric,7,59.7568582195,
./stim/MorphM2_05_orig.jpg,79,,,,,0,79,79,79,,,,,,,,,,,,,,,,,,,18.134765625,-9.78515625,1,0,0,1.13731002808,,,,,2015_Sep_24_1639,G,facesParametric,7,59.7568582195,
./stim/MorphF4_02_orig.jpg,80,,,,,0,80,80,80,,,,,,,,,,,,,,,,,,,18.134765625,-9.78515625,1,0,0,0.685516834259,,,,,2015_Sep_24_1639,G,facesParametric,7,59.7568582195,
./stim/MorphF2_09_orig.jpg,81,,,,,0,81,81,81,,,,,,,,,,,,,,,,,,,18.134765625,-9.78515625,0,0,1,1.08826208115,,,,,2015_Sep_24_1639,G,facesParametric,7,59.7568582195,
./stim/MorphF4_06_orig.jpg,82,,,,,0,82,82,82,,,,,,,,,,,,,,,,,,,18.134765625,-9.78515625,1,0,0,2.81343817711,,,,,2015_Sep_24_1639,G,facesParametric,7,59.7568582195,
./stim/MorphM1_02_orig.jpg,83,,,,,0,83,83,83,,,,,,,,,,,,,,,,,,,18.134765625,-9.78515625,1,0,0,1.33916497231,,,,,2015_Sep_24_1639,G,facesParametric,7,59.7568582195,
./stim/MorphF6_07_orig.jpg,84,,,,,0,84,84,84,,,,,,,,,,,,,,,,,,,18.134765625,-9.78515625,0,0,1,1.97519397736,,,,,2015_Sep_24_1639,G,facesParametric,7,59.7568582195,
./stim/MorphM7_01_orig.jpg,85,,,,,0,85,85,85,,,,,,,,,,,,,,,,,,,18.10546875,-9.814453125,0,0,1,0.920569896698,,,,,2015_Sep_24_1639,G,facesParametric,7,59.7568582195,
./stim/MorphF2_06_orig.jpg,86,,,,,0,86,86,86,,,,,,,,,,,,,,,,,,,18.1640625,-9.814453125,0,0,1,1.65738916397,,,,,2015_Sep_24_1639,G,facesParametric,7,59.7568582195,
./stim/MorphF4_00_orig.jpg,87,,,,,0,87,87,87,,,,,,,,,,,,,,,,,,,18.1640625,-9.814453125,1,0,0,1.50729894638,,,,,2015_Sep_24_1639,G,facesParametric,7,59.7568582195,
./stim/MorphF9_03_orig.jpg,88,,,,,0,88,88,88,,,,,,,,,,,,,,,,,,,18.1640625,-9.814453125,1,0,0,1.17204499245,,,,,2015_Sep_24_1639,G,facesParametric,7,59.7568582195,
./stim/MorphM4_00_orig.jpg,89,,,,,0,89,89,89,,,,,,,,,,,,,,,,,,,18.1640625,-9.814453125,1,0,0,1.2385430336,,,,,2015_Sep_24_1639,G,facesParametric,7,59.7568582195,
./stim/MorphF2_00_orig.jpg,90,,,,,0,90,90,90,,,,,,,,,,,,,,,,,,,18.193359375,-9.814453125,1,0,0,6.50043106079,,,,,2015_Sep_24_1639,G,facesParametric,7,59.7568582195,
./stim/MorphF6_09_orig.jpg,91,,,,,0,91,91,91,,,,,,,,,,,,,,,,,,,18.193359375,-9.814453125,0,0,1,1.30631184578,,,,,2015_Sep_24_1639,G,facesParametric,7,59.7568582195,
./stim/MorphM9_00_orig.jpg,92,,,,,0,92,92,92,,,,,,,,,,,,,,,,,,,18.193359375,-9.873046875,1,0,0,9.78644299507,,,,,2015_Sep_24_1639,G,facesParametric,7,59.7568582195,
./stim/MorphM6_01_orig.jpg,93,,,,,0,93,93,93,,,,,,,,,,,,,,,,,,,18.193359375,-9.873046875,1,0,0,4.69120287895,,,,,2015_Sep_24_1639,G,facesParametric,7,59.7568582195,
./stim/MorphF5_04_orig.jpg,94,,,,,0,94,94,94,,,,,,,,,,,,,,,,,,,18.193359375,-9.90234375,1,0,0,2.16094708443,,,,,2015_Sep_24_1639,G,facesParametric,7,59.7568582195,
./stim/MorphM6_06_orig.jpg,95,,,,,0,95,95,95,,,,,,,,,,,,,,,,,,,18.1640625,-9.990234375,0,0,1,2.37858605385,,,,,2015_Sep_24_1639,G,facesParametric,7,59.7568582195,
./stim/MorphM4_08_orig.jpg,96,,,,,0,96,96,96,,,,,,,,,,,,,,,,,,,18.22265625,-9.990234375,0,0,1,19.0691809654,,,,,2015_Sep_24_1639,G,facesParametric,7,59.7568582195,
./stim/MorphM10_04_orig.jpg,97,,,,,0,97,97,97,,,,,,,,,,,,,,,,,,,18.193359375,-10.01953125,0,0,1,5.26145005226,,,,,2015_Sep_24_1639,G,facesParametric,7,59.7568582195,
./stim/MorphF2_04_orig.jpg,98,,,,,0,98,98,98,,,,,,,,,,,,,,,,,,,18.046875,-10.107421875,1,0,0,11.5621669292,,,,,2015_Sep_24_1639,G,facesParametric,7,59.7568582195,
./stim/MorphF9_10_orig.jpg,99,,,,,0,99,99,99,,,,,,,,,,,,,,,,,,,18.017578125,-10.13671875,0,0,1,2.64593601227,,,,,2015_Sep_24_1639,G,facesParametric,7,59.7568582195,
./stim/MorphF7_01_orig.jpg,100,,,,,0,100,100,100,,,,,,,,,,,,,,,,,,,17.958984375,-10.1953125,0,0,1,4.84085392952,,,,,2015_Sep_24_1639,G,facesParametric,7,59.7568582195,
./stim/MorphM1_06_orig.jpg,101,,,,,0,101,101,101,,,,,,,,,,,,,,,,,,,17.958984375,-10.1953125,1,0,0,2.81447315216,,,,,2015_Sep_24_1639,G,facesParametric,7,59.7568582195,
./stim/MorphM3_08_orig.jpg,102,,,,,0,102,102,102,,,,,,,,,,,,,,,,,,,17.98828125,-10.224609375,0,0,1,6.50140190125,,,,,2015_Sep_24_1639,G,facesParametric,7,59.7568582195,
./stim/MorphF8_10_orig.jpg,103,,,,,0,103,103,103,,,,,,,,,,,,,,,,,,,17.98828125,-10.224609375,0,0,1,4.30561494827,,,,,2015_Sep_24_1639,G,facesParametric,7,59.7568582195,
./stim/MorphF9_08_orig.jpg,104,,,,,0,104,104,104,,,,,,,,,,,,,,,,,,,17.9296875,-10.224609375,0,0,1,2.26116204262,,,,,2015_Sep_24_1639,G,facesParametric,7,59.7568582195,
./stim/MorphM2_02_orig.jpg,105,,,,,0,105,105,105,,,,,,,,,,,,,,,,,,,17.900390625,-10.25390625,1,0,0,2.63004302979,,,,,2015_Sep_24_1639,G,facesParametric,7,59.7568582195,
./stim/MorphM9_05_orig.jpg,106,,,,,0,106,106,106,,,,,,,,,,,,,,,,,,,17.900390625,-10.25390625,1,0,0,3.72017002106,,,,,2015_Sep_24_1639,G,facesParametric,7,59.7568582195,
./stim/MorphM3_04_orig.jpg,107,,,,,0,107,107,107,,,,,,,,,,,,,,,,,,,17.87109375,-10.224609375,1,0,0,3.8842151165,,,,,2015_Sep_24_1639,G,facesParametric,7,59.7568582195,
./stim/MorphF2_03_orig.jpg,108,,,,,0,108,108,108,,,,,,,,,,,,,,,,,,,17.841796875,-10.1953125,1,0,0,3.55062103271,,,,,2015_Sep_24_1639,G,facesParametric,7,59.7568582195,
./stim/MorphM10_01_orig.jpg,109,,,,,0,109,109,109,,,,,,,,,,,,,,,,,,,17.87109375,-10.1953125,1,0,0,1.55733394623,,,,,2015_Sep_24_1639,G,facesParametric,7,59.7568582195,
./stim/MorphM6_02_orig.jpg,110,,,,,0,110,110,110,,,,,,,,,,,,,,,,,,,17.87109375,-10.1953125,1,0,0,0.852510929108,,,,,2015_Sep_24_1639,G,facesParametric,7,59.7568582195,
./stim/MorphF9_02_orig.jpg,111,,,,,0,111,111,111,,,,,,,,,,,,,,,,,,,17.87109375,-10.1953125,1,0,0,0.702717065811,,,,,2015_Sep_24_1639,G,facesParametric,7,59.7568582195,
./stim/MorphM9_01_orig.jpg,112,,,,,0,112,112,112,,,,,,,,,,,,,,,,,,,17.9296875,-10.13671875,1,0,0,1.49059700966,,,,,2015_Sep_24_1639,G,facesParametric,7,59.7568582195,
./stim/MorphM1_04_orig.jpg,113,,,,,0,113,113,113,,,,,,,,,,,,,,,,,,,17.9296875,-10.107421875,1,0,0,0.837723016739,,,,,2015_Sep_24_1639,G,facesParametric,7,59.7568582195,
./stim/MorphM5_02_orig.jpg,114,,,,,0,114,114,114,,,,,,,,,,,,,,,,,,,17.958984375,-10.078125,1,0,0,1.80763292313,,,,,2015_Sep_24_1639,G,facesParametric,7,59.7568582195,
./stim/MorphF3_04_orig.jpg,115,,,,,0,115,115,115,,,,,,,,,,,,,,,,,,,17.900390625,-9.9609375,1,0,0,17.8812549114,,,,,2015_Sep_24_1639,G,facesParametric,7,59.7568582195,
./stim/MorphF10_07_orig.jpg,116,,,,,0,116,116,116,,,,,,,,,,,,,,,,,,,17.900390625,-9.9609375,0,0,1,0.953221082687,,,,,2015_Sep_24_1639,G,facesParametric,7,59.7568582195,
./stim/MorphF3_06_orig.jpg,117,,,,,0,117,117,117,,,,,,,,,,,,,,,,,,,17.9296875,-9.9609375,1,0,0,3.29812979698,,,,,2015_Sep_24_1639,G,facesParametric,7,59.7568582195,
./stim/MorphM8_08_orig.jpg,118,,,,,0,118,118,118,,,,,,,,,,,,,,,,,,,17.958984375,-9.931640625,0,0,1,2.78137803078,,,,,2015_Sep_24_1639,G,facesParametric,7,59.7568582195,
./stim/MorphM7_07_orig.jpg,119,,,,,0,119,119,119,,,,,,,,,,,,,,,,,,,17.958984375,-9.931640625,0,0,1,0.92044210434,,,,,2015_Sep_24_1639,G,facesParametric,7,59.7568582195,
./stim/MorphF5_06_orig.jpg,120,,,,,0,120,120,120,,,,,,,,,,,,,,,,,,,17.958984375,-9.931640625,0,0,1,6.92029809952,,,,,2015_Sep_24_1639,G,facesParametric,7,59.7568582195,
./stim/MorphM6_07_orig.jpg,121,,,,,0,121,121,121,,,,,,,,,,,,,,,,,,,17.9296875,-9.90234375,0,0,1,3.41795802116,,,,,2015_Sep_24_1639,G,facesParametric,7,59.7568582195,
./stim/MorphM9_08_orig.jpg,122,,,,,0,122,122,122,,,,,,,,,,,,,,,,,,,17.16796875,-10.48828125,0,0,1,2.21101284027,,,,,2015_Sep_24_1639,G,facesParametric,7,59.7568582195,
./stim/MorphM4_07_orig.jpg,123,,,,,0,123,123,123,,,,,,,,,,,,,,,,,,,17.138671875,-10.48828125,0,0,1,1.32287502289,,,,,2015_Sep_24_1639,G,facesParametric,7,59.7568582195,
./stim/MorphM2_00_orig.jpg,124,,,,,0,124,124,124,,,,,,,,,,,,,,,,,,,17.138671875,-10.48828125,1,0,0,0.988664865494,,,,,2015_Sep_24_1639,G,facesParametric,7,59.7568582195,
./stim/MorphF8_02_orig.jpg,125,,,,,0,125,125,125,,,,,,,,,,,,,,,,,,,17.109375,-10.458984375,1,0,0,3.26464390755,,,,,2015_Sep_24_1639,G,facesParametric,7,59.7568582195,
./stim/MorphM10_03_orig.jpg,126,,,,,0,126,126,126,,,,,,,,,,,,,,,,,,,17.109375,-10.458984375,0,0,1,1.49014616013,,,,,2015_Sep_24_1639,G,facesParametric,7,59.7568582195,
./stim/MorphF8_06_orig.jpg,127,,,,,0,127,127,127,,,,,,,,,,,,,,,,,,,17.05078125,-10.48828125,1,0,0,9.3844499588,,,,,2015_Sep_24_1639,G,facesParametric,7,59.7568582195,
./stim/MorphM5_08_orig.jpg,128,,,,,0,128,128,128,,,,,,,,,,,,,,,,,,,17.05078125,-10.48828125,0,0,1,1.27020788193,,,,,2015_Sep_24_1639,G,facesParametric,7,59.7568582195,
./stim/MorphF6_10_orig.jpg,129,,,,,0,129,129,129,,,,,,,,,,,,,,,,,,,17.05078125,-10.517578125,0,0,1,0.920604944229,,,,,2015_Sep_24_1639,G,facesParametric,7,59.7568582195,
./stim/MorphF2_05_orig.jpg,130,,,,,0,130,130,130,,,,,,,,,,,,,,,,,,,17.021484375,-10.634765625,1,0,0,1.9416539669,,,,,2015_Sep_24_1639,G,facesParametric,7,59.7568582195,
./stim/MorphF9_01_orig.jpg,131,,,,,0,131,131,131,,,,,,,,,,,,,,,,,,,17.021484375,-10.634765625,1,0,0,0.818848133087,,,,,2015_Sep_24_1639,G,facesParametric,7,59.7568582195,
./stim/MorphM1_10_orig.jpg,132,,,,,0,132,132,132,,,,,,,,,,,,,,,,,,,17.021484375,-10.634765625,1,0,0,2.04353499413,,,,,2015_Sep_24_1639,G,facesParametric,7,59.7568582195,
./stim/MorphM5_01_orig.jpg,133,,,,,0,133,133,133,,,,,,,,,,,,,,,,,,,17.021484375,-10.6640625,1,0,0,0.92018699646,,,,,2015_Sep_24_1639,G,facesParametric,7,59.7568582195,
./stim/MorphM8_10_orig.jpg,134,,,,,0,134,134,134,,,,,,,,,,,,,,,,,,,17.021484375,-10.6640625,0,0,1,2.24418997765,,,,,2015_Sep_24_1639,G,facesParametric,7,59.7568582195,
./stim/MorphF7_03_orig.jpg,135,,,,,0,135,135,135,,,,,,,,,,,,,,,,,,,17.021484375,-10.6640625,1,0,0,1.07115602493,,,,,2015_Sep_24_1639,G,facesParametric,7,59.7568582195,
./stim/MorphM6_00_orig.jpg,136,,,,,0,136,136,136,,,,,,,,,,,,,,,,,,,17.080078125,-10.693359375,1,0,0,1.80900192261,,,,,2015_Sep_24_1639,G,facesParametric,7,59.7568582195,
./stim/MorphM8_00_orig.jpg,137,,,,,0,137,137,137,,,,,,,,,,,,,,,,,,,17.080078125,-10.693359375,1,0,0,1.75677394867,,,,,2015_Sep_24_1639,G,facesParametric,7,59.7568582195,
./stim/MorphF1_04_orig.jpg,138,,,,,0,138,138,138,,,,,,,,,,,,,,,,,,,17.021484375,-10.6640625,1,0,0,1.5557320118,,,,,2015_Sep_24_1639,G,facesParametric,7,59.7568582195,
./stim/MorphF9_09_orig.jpg,139,,,,,0,139,139,139,,,,,,,,,,,,,,,,,,,17.05078125,-10.693359375,0,0,1,1.32279992104,,,,,2015_Sep_24_1639,G,facesParametric,7,59.7568582195,
./stim/MorphM4_06_orig.jpg,140,,,,,0,140,140,140,,,,,,,,,,,,,,,,,,,17.080078125,-10.72265625,0,0,1,6.46821689606,,,,,2015_Sep_24_1639,G,facesParametric,7,59.7568582195,
./stim/MorphM7_03_orig.jpg,141,,,,,0,141,141,141,,,,,,,,,,,,,,,,,,,17.05078125,-10.693359375,1,0,0,2.46138000488,,,,,2015_Sep_24_1639,G,facesParametric,7,59.7568582195,
./stim/MorphF4_07_orig.jpg,142,,,,,0,142,142,142,,,,,,,,,,,,,,,,,,,16.81640625,-10.72265625,0,0,1,34.4555270672,,,,,2015_Sep_24_1639,G,facesParametric,7,59.7568582195,
./stim/MorphF1_07_orig.jpg,143,,,,,0,143,143,143,,,,,,,,,,,,,,,,,,,16.787109375,-10.751953125,1,0,0,3.55139613152,,,,,2015_Sep_24_1639,G,facesParametric,7,59.7568582195,
./stim/MorphM8_06_orig.jpg,144,,,,,0,144,144,144,,,,,,,,,,,,,,,,,,,16.787109375,-10.751953125,0,0,1,2.56407690048,,,,,2015_Sep_24_1639,G,facesParametric,7,59.7568582195,
./stim/MorphF10_09_orig.jpg,145,,,,,0,145,145,145,,,,,,,,,,,,,,,,,,,16.728515625,-10.78125,0,0,1,1.690128088,,,,,2015_Sep_24_1639,G,facesParametric,7,59.7568582195,
./stim/MorphM9_09_orig.jpg,146,,,,,0,146,146,146,,,,,,,,,,,,,,,,,,,16.640625,-10.83984375,0,0,1,1.15525603294,,,,,2015_Sep_24_1639,G,facesParametric,7,59.7568582195,
./stim/MorphF10_04_orig.jpg,147,,,,,0,147,147,147,,,,,,,,,,,,,,,,,,,16.611328125,-10.8984375,0,0,1,5.98060417175,,,,,2015_Sep_24_1639,G,facesParametric,7,59.7568582195,
./stim/MorphM4_02_orig.jpg,148,,,,,0,148,148,148,,,,,,,,,,,,,,,,,,,16.611328125,-10.8984375,1,0,0,1.02093696594,,,,,2015_Sep_24_1639,G,facesParametric,7,59.7568582195,
./stim/MorphM1_09_orig.jpg,149,,,,,0,149,149,149,,,,,,,,,,,,,,,,,,,16.611328125,-10.8984375,1,0,0,0.820230007172,,,,,2015_Sep_24_1639,G,facesParametric,7,59.7568582195,
./stim/MorphM3_00_orig.jpg,150,,,,,0,150,150,150,,,,,,,,,,,,,,,,,,,16.611328125,-10.8984375,1,0,0,0.736090898514,,,,,2015_Sep_24_1639,G,facesParametric,7,59.7568582195,
./stim/MorphM9_10_orig.jpg,151,,,,,0,151,151,151,,,,,,,,,,,,,,,,,,,16.640625,-10.927734375,0,0,1,2.57994890213,,,,,2015_Sep_24_1639,G,facesParametric,7,59.7568582195,
./stim/MorphM8_03_orig.jpg,152,,,,,0,152,152,152,,,,,,,,,,,,,,,,,,,16.58203125,-10.95703125,1,0,0,7.8586499691,,,,,2015_Sep_24_1639,G,facesParametric,7,59.7568582195,
./stim/MorphF9_00_orig.jpg,153,,,,,0,153,153,153,,,,,,,,,,,,,,,,,,,16.58203125,-10.95703125,1,0,0,1.59077882767,,,,,2015_Sep_24_1639,G,facesParametric,7,59.7568582195,
./stim/MorphM9_07_orig.jpg,154,,,,,0,154,154,154,,,,,,,,,,,,,,,,,,,16.552734375,-10.986328125,1,0,0,2.19417119026,,,,,2015_Sep_24_1639,G,facesParametric,7,59.7568582195,
./stim/MorphF8_08_orig.jpg,155,,,,,0,155,155,155,,,,,,,,,,,,,,,,,,,16.58203125,-10.95703125,1,0,0,0.987228155136,,,,,2015_Sep_24_1639,G,facesParametric,7,59.7568582195,
./stim/MorphF5_08_orig.jpg,156,,,,,0,156,156,156,,,,,,,,,,,,,,,,,,,16.58203125,-10.95703125,1,0,0,0.752985954285,,,,,2015_Sep_24_1639,G,facesParametric,7,59.7568582195,
./stim/MorphM10_00_orig.jpg,157,,,,,0,157,157,157,,,,,,,,,,,,,,,,,,,16.58203125,-10.95703125,1,0,0,2.56221413612,,,,,2015_Sep_24_1639,G,facesParametric,7,59.7568582195,
./stim/MorphM7_09_orig.jpg,158,,,,,0,158,158,158,,,,,,,,,,,,,,,,,,,16.611328125,-10.927734375,0,0,1,2.17548394203,,,,,2015_Sep_24_1639,G,facesParametric,7,59.7568582195,
./stim/MorphF8_07_orig.jpg,159,,,,,0,159,159,159,,,,,,,,,,,,,,,,,,,16.494140625,-10.95703125,0,0,1,1.05396795273,,,,,2015_Sep_24_1639,G,facesParametric,7,59.7568582195,
./stim/MorphF4_03_orig.jpg,160,,,,,0,160,160,160,,,,,,,,,,,,,,,,,,,16.025390625,-11.25,1,0,0,3.5177719593,,,,,2015_Sep_24_1639,G,facesParametric,7,59.7568582195,
./stim/MorphF5_09_orig.jpg,161,,,,,0,161,161,161,,,,,,,,,,,,,,,,,,,16.025390625,-11.25,0,0,1,1.55754804611,,,,,2015_Sep_24_1639,G,facesParametric,7,59.7568582195,
./stim/MorphF9_04_orig.jpg,162,,,,,0,162,162,162,,,,,,,,,,,,,,,,,,,15.99609375,-11.279296875,0,0,1,9.71951389313,,,,,2015_Sep_24_1639,G,facesParametric,7,59.7568582195,
./stim/MorphM3_07_orig.jpg,163,,,,,0,163,163,163,,,,,,,,,,,,,,,,,,,15.908203125,-11.30859375,0,0,1,3.28324604034,,,,,2015_Sep_24_1639,G,facesParametric,7,59.7568582195,
./stim/MorphF6_08_orig.jpg,164,,,,,0,164,164,164,,,,,,,,,,,,,,,,,,,15.87890625,-11.279296875,0,0,1,0.971080064774,,,,,2015_Sep_24_1639,G,facesParametric,7,59.7568582195,
./stim/MorphM1_03_orig.jpg,165,,,,,0,165,165,165,,,,,,,,,,,,,,,,,,,15.849609375,-11.19140625,1,0,0,1.79153800011,,,,,2015_Sep_24_1639,G,facesParametric,7,59.7568582195,
./stim/MorphM5_00_orig.jpg,166,,,,,0,166,166,166,,,,,,,,,,,,,,,,,,,15.849609375,-11.19140625,1,0,0,1.00322890282,,,,,2015_Sep_24_1639,G,facesParametric,7,59.7568582195,
./stim/MorphF10_05_orig.jpg,167,,,,,0,167,167,167,,,,,,,,,,,,,,,,,,,15.849609375,-11.19140625,0,0,1,2.19447684288,,,,,2015_Sep_24_1639,G,facesParametric,7,59.7568582195,
./stim/MorphF3_09_orig.jpg,168,,,,,0,168,168,168,,,,,,,,,,,,,,,,,,,15.87890625,-11.162109375,0,0,1,1.38953113556,,,,,2015_Sep_24_1639,G,facesParametric,7,59.7568582195,
./stim/MorphF4_10_orig.jpg,169,,,,,0,169,169,169,,,,,,,,,,,,,,,,,,,15.9375,-11.162109375,0,0,1,2.31065011024,,,,,2015_Sep_24_1639,G,facesParametric,7,59.7568582195,
./stim/MorphM8_04_orig.jpg,170,,,,,0,170,170,170,,,,,,,,,,,,,,,,,,,15.9375,-11.162109375,1,0,0,3.85345602036,,,,,2015_Sep_24_1639,G,facesParametric,7,59.7568582195,
./stim/MorphF3_07_orig.jpg,171,,,,,0,171,171,171,,,,,,,,,,,,,,,,,,,15.9375,-11.162109375,0,0,1,3.36673903465,,,,,2015_Sep_24_1639,G,facesParametric,7,59.7568582195,
./stim/MorphM2_10_orig.jpg,172,,,,,0,172,172,172,,,,,,,,,,,,,,,,,,,15.9375,-11.162109375,0,0,1,1.0191988945,,,,,2015_Sep_24_1639,G,facesParametric,7,59.7568582195,
./stim/MorphM8_05_orig.jpg,173,,,,,0,173,173,173,,,,,,,,,,,,,,,,,,,15.908203125,-11.1328125,1,0,0,1.95937299728,,,,,2015_Sep_24_1639,G,facesParametric,7,59.7568582195,
./stim/MorphF4_08_orig.jpg,174,,,,,0,174,174,174,,,,,,,,,,,,,,,,,,,15.87890625,-11.162109375,0,0,1,7.63995409012,,,,,2015_Sep_24_1639,G,facesParametric,7,59.7568582195,
./stim/MorphF7_00_orig.jpg,175,,,,,0,175,175,175,,,,,,,,,,,,,,,,,,,15.87890625,-11.162109375,1,0,0,1.15481710434,,,,,2015_Sep_24_1639,G,facesParametric,7,59.7568582195,
./stim/MorphM6_04_orig.jpg,176,,,,,0,176,176,176,,,,,,,,,,,,,,,,,,,15.849609375,-11.1328125,1,0,0,3.09927105904,,,,,2015_Sep_24_1639,G,facesParametric,7,59.7568582195,
./stim/MorphF7_10_orig.jpg,177,,,,,0,177,177,177,,,,,,,,,,,,,,,,,,,15.87890625,-11.162109375,0,0,1,1.52352285385,,,,,2015_Sep_24_1639,G,facesParametric,7,59.7568582195,
./stim/MorphF10_00_orig.jpg,178,,,,,0,178,178,178,,,,,,,,,,,,,,,,,,,15.908203125,-11.19140625,1,0,0,1.40597891808,,,,,2015_Sep_24_1639,G,facesParametric,7,59.7568582195,
./stim/MorphM4_01_orig.jpg,179,,,,,0,179,179,179,,,,,,,,,,,,,,,,,,,15.99609375,-11.162109375,1,0,0,2.14316487312,,,,,2015_Sep_24_1639,G,facesParametric,7,59.7568582195,
./stim/MorphM3_05_orig.jpg,180,,,,,0,180,180,180,,,,,,,,,,,,,,,,,,,15.99609375,-11.162109375,1,0,0,4.85893106461,,,,,2015_Sep_24_1639,G,facesParametric,7,59.7568582195,
./stim/MorphM8_02_orig.jpg,181,,,,,0,181,181,181,,,,,,,,,,,,,,,,,,,15.966796875,-11.1328125,1,0,0,0.853610038757,,,,,2015_Sep_24_1639,G,facesParametric,7,59.7568582195,
./stim/MorphF3_01_orig.jpg,182,,,,,0,182,182,182,,,,,,,,,,,,,,,,,,,15.966796875,-11.1328125,1,0,0,1.40545892715,,,,,2015_Sep_24_1639,G,facesParametric,7,59.7568582195,
./stim/MorphF1_02_orig.jpg,183,,,,,0,183,183,183,,,,,,,,,,,,,,,,,,,15.966796875,-11.1328125,1,0,0,0.918529987335,,,,,2015_Sep_24_1639,G,facesParametric,7,59.7568582195,
./stim/MorphM2_04_orig.jpg,184,,,,,0,184,184,184,,,,,,,,,,,,,,,,,,,15.966796875,-11.1328125,1,0,0,0.920548915863,,,,,2015_Sep_24_1639,G,facesParametric,7,59.7568582195,
./stim/MorphF1_05_orig.jpg,185,,,,,0,185,185,185,,,,,,,,,,,,,,,,,,,15.9375,-11.162109375,1,0,0,0.919430971146,,,,,2015_Sep_24_1639,G,facesParametric,7,59.7568582195,
./stim/MorphF4_05_orig.jpg,186,,,,,0,186,186,186,,,,,,,,,,,,,,,,,,,15.908203125,-11.1328125,1,0,0,1.95920014381,,,,,2015_Sep_24_1639,G,facesParametric,7,59.7568582195,
./stim/MorphF7_04_orig.jpg,187,,,,,0,187,187,187,,,,,,,,,,,,,,,,,,,15.908203125,-11.1328125,0,0,1,1.32338690758,,,,,2015_Sep_24_1639,G,facesParametric,7,59.7568582195,
./stim/MorphM3_02_orig.jpg,188,,,,,0,188,188,188,,,,,,,,,,,,,,,,,,,15.9375,-11.162109375,1,0,0,1.40688514709,,,,,2015_Sep_24_1639,G,facesParametric,7,59.7568582195,
./stim/MorphM5_10_orig.jpg,189,,,,,0,189,189,189,,,,,,,,,,,,,,,,,,,15.9375,-11.162109375,0,0,1,4.89178419113,,,,,2015_Sep_24_1639,G,facesParametric,7,59.7568582195,
./stim/MorphM7_02_orig.jpg,190,,,,,0,190,190,190,,,,,,,,,,,,,,,,,,,15.9375,-11.162109375,0,0,1,1.18731379509,,,,,2015_Sep_24_1639,G,facesParametric,7,59.7568582195,
./stim/MorphM10_06_orig.jpg,191,,,,,0,191,191,191,,,,,,,,,,,,,,,,,,,15.908203125,-11.1328125,0,0,1,0.619079828262,,,,,2015_Sep_24_1639,G,facesParametric,7,59.7568582195,
./stim/MorphF5_07_orig.jpg,192,,,,,0,192,192,192,,,,,,,,,,,,,,,,,,,15.908203125,-11.1328125,0,0,1,2.78094100952,,,,,2015_Sep_24_1639,G,facesParametric,7,59.7568582195,
./stim/MorphF1_03_orig.jpg,193,,,,,0,193,193,193,,,,,,,,,,,,,,,,,,,15.9375,-11.162109375,1,0,0,2.40969014168,,,,,2015_Sep_24_1639,G,facesParametric,7,59.7568582195,
./stim/MorphM5_07_orig.jpg,194,,,,,0,194,194,194,,,,,,,,,,,,,,,,,,,15.908203125,-11.1328125,0,0,1,2.52945899963,,,,,2015_Sep_24_1639,G,facesParametric,7,59.7568582195,
./stim/MorphM10_10_orig.jpg,195,,,,,0,195,195,195,,,,,,,,,,,,,,,,,,,15.732421875,-11.25,0,0,1,1.60645198822,,,,,2015_Sep_24_1639,G,facesParametric,7,59.7568582195,
./stim/MorphF3_08_orig.jpg,196,,,,,0,196,196,196,,,,,,,,,,,,,,,,,,,15.556640625,-11.396484375,0,0,1,3.56818008423,,,,,2015_Sep_24_1639,G,facesParametric,7,59.7568582195,
./stim/MorphF8_01_orig.jpg,197,,,,,0,197,197,197,,,,,,,,,,,,,,,,,,,15.52734375,-11.42578125,1,0,0,1.02127695084,,,,,2015_Sep_24_1639,G,facesParametric,7,59.7568582195,
./stim/MorphM1_01_orig.jpg,198,,,,,0,198,198,198,,,,,,,,,,,,,,,,,,,15.439453125,-11.42578125,1,0,0,3.30039811134,,,,,2015_Sep_24_1639,G,facesParametric,7,59.7568582195,
./stim/MorphM2_08_orig.jpg,199,,,,,0,199,199,199,,,,,,,,,,,,,,,,,,,15.52734375,-11.513671875,0,0,1,7.84223294258,,,,,2015_Sep_24_1639,G,facesParametric,7,59.7568582195,
./stim/MorphF8_04_orig.jpg,200,,,,,0,200,200,200,,,,,,,,,,,,,,,,,,,15.52734375,-11.513671875,1,0,0,1.32298493385,,,,,2015_Sep_24_1639,G,facesParametric,7,59.7568582195,
./stim/MorphM2_09_orig.jpg,201,,,,,0,201,201,201,,,,,,,,,,,,,,,,,,,15.52734375,-11.513671875,0,0,1,1.69145607948,,,,,2015_Sep_24_1639,G,facesParametric,7,59.7568582195,
./stim/MorphF10_08_orig.jpg,202,,,,,0,202,202,202,,,,,,,,,,,,,,,,,,,15.52734375,-11.513671875,0,0,1,1.90904784203,,,,,2015_Sep_24_1639,G,facesParametric,7,59.7568582195,
./stim/MorphM9_02_orig.jpg,203,,,,,0,203,203,203,,,,,,,,,,,,,,,,,,,15.498046875,-11.54296875,1,0,0,1.0216050148,,,,,2015_Sep_24_1639,G,facesParametric,7,59.7568582195,
./stim/MorphF9_05_orig.jpg,204,,,,,0,204,204,204,,,,,,,,,,,,,,,,,,,15.615234375,-11.572265625,0,0,1,5.12463283539,,,,,2015_Sep_24_1639,G,facesParametric,7,59.7568582195,
./stim/MorphM5_03_orig.jpg,205,,,,,0,205,205,205,,,,,,,,,,,,,,,,,,,15.64453125,-11.630859375,1,0,0,2.79620695114,,,,,2015_Sep_24_1639,G,facesParametric,7,59.7568582195,
./stim/MorphM9_06_orig.jpg,206,,,,,0,206,206,206,,,,,,,,,,,,,,,,,,,15.5859375,-11.77734375,0,0,1,9.60069298744,,,,,2015_Sep_24_1639,G,facesParametric,7,59.7568582195,
./stim/MorphF10_06_orig.jpg,207,,,,,0,207,207,207,,,,,,,,,,,,,,,,,,,15.556640625,-11.77734375,1,0,0,0.987588167191,,,,,2015_Sep_24_1639,G,facesParametric,7,59.7568582195,
./stim/MorphM4_10_orig.jpg,208,,,,,0,208,208,208,,,,,,,,,,,,,,,,,,,15.732421875,-11.748046875,0,0,1,1.79035687447,,,,,2015_Sep_24_1639,G,facesParametric,7,59.7568582195,
./stim/MorphF4_04_orig.jpg,209,,,,,0,209,209,209,,,,,,,,,,,,,,,,,,,15.615234375,-11.77734375,1,0,0,1.15520620346,,,,,2015_Sep_24_1639,G,facesParametric,7,59.7568582195,
./stim/MorphM8_01_orig.jpg,210,,,,,0,210,210,210,,,,,,,,,,,,,,,,,,,15.64453125,-11.748046875,1,0,0,0.786479949951,,,,,2015_Sep_24_1639,G,facesParametric,7,59.7568582195,
./stim/MorphM10_02_orig.jpg,211,,,,,0,211,211,211,,,,,,,,,,,,,,,,,,,15.64453125,-11.748046875,1,0,0,1.54060006142,,,,,2015_Sep_24_1639,G,facesParametric,7,59.7568582195,
./stim/MorphF8_03_orig.jpg,212,,,,,0,212,212,212,,,,,,,,,,,,,,,,,,,15.673828125,-11.71875,1,0,0,1.15536403656,,,,,2015_Sep_24_1639,G,facesParametric,7,59.7568582195,
./stim/MorphF7_02_orig.jpg,213,,,,,0,213,213,213,,,,,,,,,,,,,,,,,,,15.673828125,-11.865234375,1,0,0,1.77504706383,,,,,2015_Sep_24_1639,G,facesParametric,7,59.7568582195,
./stim/MorphM5_09_orig.jpg,214,,,,,0,214,214,214,,,,,,,,,,,,,,,,,,,15.615234375,-11.89453125,1,0,0,1.52303195,,,,,2015_Sep_24_1639,G,facesParametric,7,59.7568582195,
./stim/MorphM10_05_orig.jpg,215,,,,,0,215,215,215,,,,,,,,,,,,,,,,,,,15.8203125,-12.0703125,0,0,1,2.21108412743,,,,,2015_Sep_24_1639,G,facesParametric,7,59.7568582195,
./stim/MorphF1_06_orig.jpg,216,,,,,0,216,216,216,,,,,,,,,,,,,,,,,,,15.673828125,-12.099609375,1,0,0,5.16036820412,,,,,2015_Sep_24_1639,G,facesParametric,7,59.7568582195,
./stim/MorphM5_04_orig.jpg,217,,,,,0,217,217,217,,,,,,,,,,,,,,,,,,,15.673828125,-12.158203125,1,0,0,2.89777183533,,,,,2015_Sep_24_1639,G,facesParametric,7,59.7568582195,
./stim/MorphM10_08_orig.jpg,218,,,,,0,218,218,218,,,,,,,,,,,,,,,,,,,15.64453125,-12.1875,0,0,1,2.29431295395,,,,,2015_Sep_24_1639,G,facesParametric,7,59.7568582195,
./stim/MorphF1_10_orig.jpg,219,,,,,0,219,219,219,,,,,,,,,,,,,,,,,,,15.5859375,-12.24609375,0,0,1,2.37853097916,,,,,2015_Sep_24_1639,G,facesParametric,7,59.7568582195,
,,,,,,,,,,,,,,,,,,,,,,,,,,,,,,,,,,return,9.40227007866,,,2015_Sep_24_1639,G,facesParametric,7,59.7568582195,
./stim/MorphM5_05_orig.jpg,0,,,,,,,,,0,0,0,0,,,,,,,,,,,,,,,9.814453125,-11.455078125,1,0,0,18.7169060707,,,,,2015_Sep_24_1639,G,facesParametric,7,59.7568582195,
./stim/MorphF2_06_orig.jpg,1,,,,,,,,,0,1,1,1,,,,,,,,,,,,,,,9.84375,-11.484375,0,0,1,1.60619497299,,,,,2015_Sep_24_1639,G,facesParametric,7,59.7568582195,
./stim/MorphM9_08_orig.jpg,2,,,,,,,,,0,2,2,2,,,,,,,,,,,,,,,9.84375,-11.484375,0,0,1,0.920310020447,,,,,2015_Sep_24_1639,G,facesParametric,7,59.7568582195,
./stim/MorphF10_10_orig.jpg,3,,,,,,,,,0,3,3,3,,,,,,,,,,,,,,,9.84375,-11.484375,0,0,1,3.97099900246,,,,,2015_Sep_24_1639,G,facesParametric,7,59.7568582195,
./stim/MorphM3_09_orig.jpg,4,,,,,,,,,0,4,4,4,,,,,,,,,,,,,,,9.9609375,-11.572265625,0,0,1,2.9147670269,,,,,2015_Sep_24_1639,G,facesParametric,7,59.7568582195,
./stim/MorphM10_02_orig.jpg,5,,,,,,,,,0,5,5,5,,,,,,,,,,,,,,,9.9609375,-11.572265625,1,0,0,0.904038906097,,,,,2015_Sep_24_1639,G,facesParametric,7,59.7568582195,
./stim/MorphM1_03_orig.jpg,6,,,,,,,,,0,6,6,6,,,,,,,,,,,,,,,9.9609375,-11.572265625,1,0,0,1.45726084709,,,,,2015_Sep_24_1639,G,facesParametric,7,59.7568582195,
./stim/MorphF4_06_orig.jpg,7,,,,,,,,,0,7,7,7,,,,,,,,,,,,,,,10.341796875,-11.66015625,0,0,1,9.49940705299,,,,,2015_Sep_24_1639,G,facesParametric,7,59.7568582195,
./stim/MorphM3_02_orig.jpg,8,,,,,,,,,0,8,8,8,,,,,,,,,,,,,,,10.341796875,-11.66015625,0,0,1,6.33288598061,,,,,2015_Sep_24_1639,G,facesParametric,7,59.7568582195,
./stim/MorphM5_08_orig.jpg,9,,,,,,,,,0,9,9,9,,,,,,,,,,,,,,,10.341796875,-11.66015625,0,0,1,1.92640900612,,,,,2015_Sep_24_1639,G,facesParametric,7,59.7568582195,
./stim/MorphF1_09_orig.jpg,10,,,,,,,,,0,10,10,10,,,,,,,,,,,,,,,10.341796875,-11.66015625,0,0,1,1.08838486671,,,,,2015_Sep_24_1639,G,facesParametric,7,59.7568582195,
./stim/MorphF7_02_orig.jpg,11,,,,,,,,,0,11,11,11,,,,,,,,,,,,,,,10.341796875,-11.66015625,0,0,1,2.46247792244,,,,,2015_Sep_24_1639,G,facesParametric,7,59.7568582195,
./stim/MorphM5_00_orig.jpg,12,,,,,,,,,0,12,12,12,,,,,,,,,,,,,,,10.341796875,-11.66015625,1,0,0,1.54064702988,,,,,2015_Sep_24_1639,G,facesParametric,7,59.7568582195,
./stim/MorphF8_00_orig.jpg,13,,,,,,,,,0,13,13,13,,,,,,,,,,,,,,,10.341796875,-11.66015625,0,0,1,1.42345690727,,,,,2015_Sep_24_1639,G,facesParametric,7,59.7568582195,
./stim/MorphF2_03_orig.jpg,14,,,,,,,,,0,14,14,14,,,,,,,,,,,,,,,10.37109375,-11.689453125,0,0,1,3.16638803482,,,,,2015_Sep_24_1639,G,facesParametric,7,59.7568582195,
./stim/MorphM7_04_orig.jpg,15,,,,,,,,,0,15,15,15,,,,,,,,,,,,,,,10.400390625,-11.71875,0,0,1,0.869915962219,,,,,2015_Sep_24_1639,G,facesParametric,7,59.7568582195,
./stim/MorphF3_00_orig.jpg,16,,,,,,,,,0,16,16,16,,,,,,,,,,,,,,,10.400390625,-11.71875,1,0,0,1.30459713936,,,,,2015_Sep_24_1639,G,facesParametric,7,59.7568582195,
./stim/MorphF7_04_orig.jpg,17,,,,,,,,,0,17,17,17,,,,,,,,,,,,,,,10.400390625,-11.71875,0,0,1,3.06441783905,,,,,2015_Sep_24_1639,G,facesParametric,7,59.7568582195,
./stim/MorphF6_01_orig.jpg,18,,,,,,,,,0,18,18,18,,,,,,,,,,,,,,,10.400390625,-11.748046875,1,0,0,2.51299881935,,,,,2015_Sep_24_1639,G,facesParametric,7,59.7568582195,
./stim/MorphM9_09_orig.jpg,19,,,,,,,,,0,19,19,19,,,,,,,,,,,,,,,10.400390625,-11.77734375,0,0,1,0.834367036819,,,,,2015_Sep_24_1639,G,facesParametric,7,59.7568582195,
./stim/MorphM4_03_orig.jpg,20,,,,,,,,,0,20,20,20,,,,,,,,,,,,,,,10.37109375,-11.806640625,0,0,1,13.9429769516,,,,,2015_Sep_24_1639,G,facesParametric,7,59.7568582195,
./stim/MorphM10_04_orig.jpg,21,,,,,,,,,0,21,21,21,,,,,,,,,,,,,,,10.37109375,-11.806640625,0,0,1,1.22193384171,,,,,2015_Sep_24_1639,G,facesParametric,7,59.7568582195,
./stim/MorphM1_02_orig.jpg,22,,,,,,,,,0,22,22,22,,,,,,,,,,,,,,,10.37109375,-11.806640625,1,0,0,0.920543909073,,,,,2015_Sep_24_1639,G,facesParametric,7,59.7568582195,
./stim/MorphF3_04_orig.jpg,23,,,,,,,,,0,23,23,23,,,,,,,,,,,,,,,10.37109375,-11.806640625,1,0,0,1.60408902168,,,,,2015_Sep_24_1639,G,facesParametric,7,59.7568582195,
./stim/MorphM9_01_orig.jpg,24,,,,,,,,,0,24,24,24,,,,,,,,,,,,,,,10.341796875,-11.8359375,1,0,0,2.64651608467,,,,,2015_Sep_24_1639,G,facesParametric,7,59.7568582195,
./stim/MorphF9_01_orig.jpg,25,,,,,,,,,0,25,25,25,,,,,,,,,,,,,,,10.341796875,-11.8359375,0,0,1,1.49106693268,,,,,2015_Sep_24_1639,G,facesParametric,7,59.7568582195,
./stim/MorphM2_08_orig.jpg,26,,,,,,,,,0,26,26,26,,,,,,,,,,,,,,,10.48828125,-12.158203125,0,0,1,7.02042913437,,,,,2015_Sep_24_1639,G,facesParametric,7,59.7568582195,
./stim/MorphM6_08_orig.jpg,27,,,,,,,,,0,27,27,27,,,,,,,,,,,,,,,10.48828125,-12.158203125,0,0,1,1.18849301338,,,,,2015_Sep_24_1639,G,facesParametric,7,59.7568582195,
./stim/MorphM10_08_orig.jpg,28,,,,,,,,,0,28,28,28,,,,,,,,,,,,,,,10.48828125,-12.158203125,0,0,1,0.583112001419,,,,,2015_Sep_24_1639,G,facesParametric,7,59.7568582195,
./stim/MorphM2_01_orig.jpg,29,,,,,,,,,0,29,29,29,,,,,,,,,,,,,,,10.517578125,-12.1875,1,0,0,1.22233510017,,,,,2015_Sep_24_1639,G,facesParametric,7,59.7568582195,
./stim/MorphM5_10_orig.jpg,30,,,,,,,,,0,30,30,30,,,,,,,,,,,,,,,10.546875,-12.158203125,0,0,1,1.0715200901,,,,,2015_Sep_24_1639,G,facesParametric,7,59.7568582195,
./stim/MorphM6_09_orig.jpg,31,,,,,,,,,0,31,31,31,,,,,,,,,,,,,,,10.546875,-12.158203125,0,0,1,1.10479402542,,,,,2015_Sep_24_1639,G,facesParametric,7,59.7568582195,
./stim/MorphM9_00_orig.jpg,32,,,,,,,,,0,32,32,32,,,,,,,,,,,,,,,10.546875,-12.158203125,1,0,0,0.803350925446,,,,,2015_Sep_24_1639,G,facesParametric,7,59.7568582195,
./stim/MorphM5_04_orig.jpg,33,,,,,,,,,0,33,33,33,,,,,,,,,,,,,,,10.60546875,-12.12890625,1,0,0,2.04354214668,,,,,2015_Sep_24_1639,G,facesParametric,7,59.7568582195,
./stim/MorphF6_04_orig.jpg,34,,,,,,,,,0,34,34,34,,,,,,,,,,,,,,,10.810546875,-12.0703125,0,0,1,5.2784011364,,,,,2015_Sep_24_1639,G,facesParametric,7,59.7568582195,
./stim/MorphF7_08_orig.jpg,35,,,,,,,,,0,35,35,35,,,,,,,,,,,,,,,10.83984375,-12.0703125,0,0,1,0.953628063202,,,,,2015_Sep_24_1639,G,facesParametric,7,59.7568582195,
./stim/MorphM2_03_orig.jpg,36,,,,,,,,,0,36,36,36,,,,,,,,,,,,,,,10.810546875,-12.0703125,1,0,0,2.14397597313,,,,,2015_Sep_24_1639,G,facesParametric,7,59.7568582195,
./stim/MorphM6_00_orig.jpg,37,,,,,,,,,0,37,37,37,,,,,,,,,,,,,,,10.810546875,-12.0703125,1,0,0,1.85905909538,,,,,2015_Sep_24_1639,G,facesParametric,7,59.7568582195,
./stim/MorphM8_07_orig.jpg,38,,,,,,,,,0,38,38,38,,,,,,,,,,,,,,,10.810546875,-12.0703125,0,0,1,2.07727217674,,,,,2015_Sep_24_1639,G,facesParametric,7,59.7568582195,
./stim/MorphM6_02_orig.jpg,39,,,,,,,,,0,39,39,39,,,,,,,,,,,,,,,10.810546875,-12.0703125,1,0,0,1.02109217644,,,,,2015_Sep_24_1639,G,facesParametric,7,59.7568582195,
./stim/MorphM7_10_orig.jpg,40,,,,,,,,,0,40,40,40,,,,,,,,,,,,,,,10.810546875,-12.0703125,0,0,1,2.19334411621,,,,,2015_Sep_24_1639,G,facesParametric,7,59.7568582195,
./stim/MorphM3_06_orig.jpg,41,,,,,,,,,0,41,41,41,,,,,,,,,,,,,,,10.810546875,-12.0703125,0,0,1,4.57413697243,,,,,2015_Sep_24_1639,G,facesParametric,7,59.7568582195,
./stim/MorphF2_00_orig.jpg,42,,,,,,,,,0,42,42,42,,,,,,,,,,,,,,,10.810546875,-12.0703125,1,0,0,4.77513694763,,,,,2015_Sep_24_1639,G,facesParametric,7,59.7568582195,
./stim/MorphM9_06_orig.jpg,43,,,,,,,,,0,43,43,43,,,,,,,,,,,,,,,10.810546875,-12.0703125,0,0,1,7.59105920792,,,,,2015_Sep_24_1639,G,facesParametric,7,59.7568582195,
./stim/MorphF2_05_orig.jpg,44,,,,,,,,,0,44,44,44,,,,,,,,,,,,,,,10.810546875,-12.0703125,0,0,1,1.03786110878,,,,,2015_Sep_24_1639,G,facesParametric,7,59.7568582195,
./stim/MorphF3_08_orig.jpg,45,,,,,,,,,0,45,45,45,,,,,,,,,,,,,,,10.810546875,-12.0703125,0,0,1,4.15513396263,,,,,2015_Sep_24_1639,G,facesParametric,7,59.7568582195,
./stim/MorphM7_03_orig.jpg,46,,,,,,,,,0,46,46,46,,,,,,,,,,,,,,,10.810546875,-12.0703125,0,0,1,8.8144569397,,,,,2015_Sep_24_1639,G,facesParametric,7,59.7568582195,
./stim/MorphM8_04_orig.jpg,47,,,,,,,,,0,47,47,47,,,,,,,,,,,,,,,10.810546875,-12.0703125,0,0,1,2.31113195419,,,,,2015_Sep_24_1639,G,facesParametric,7,59.7568582195,
./stim/MorphF9_06_orig.jpg,48,,,,,,,,,0,48,48,48,,,,,,,,,,,,,,,10.810546875,-12.0703125,0,0,1,7.92685508728,,,,,2015_Sep_24_1639,G,facesParametric,7,59.7568582195,
./stim/MorphM1_07_orig.jpg,49,,,,,,,,,0,49,49,49,,,,,,,,,,,,,,,10.986328125,-12.158203125,1,0,0,13.7415509224,,,,,2015_Sep_24_1639,G,facesParametric,7,59.7568582195,
./stim/MorphM2_00_orig.jpg,50,,,,,,,,,0,50,50,50,,,,,,,,,,,,,,,10.986328125,-12.158203125,1,0,0,0.903999090195,,,,,2015_Sep_24_1639,G,facesParametric,7,59.7568582195,
./stim/MorphF10_05_orig.jpg,51,,,,,,,,,0,51,51,51,,,,,,,,,,,,,,,11.015625,-12.158203125,0,0,1,2.16001105309,,,,,2015_Sep_24_1639,G,facesParametric,7,59.7568582195,
./stim/MorphM9_02_orig.jpg,52,,,,,,,,,0,52,52,52,,,,,,,,,,,,,,,11.015625,-12.158203125,1,0,0,2.73000383377,,,,,2015_Sep_24_1639,G,facesParametric,7,59.7568582195,
./stim/MorphM4_07_orig.jpg,53,,,,,,,,,0,53,53,53,,,,,,,,,,,,,,,11.015625,-12.158203125,0,0,1,2.07514095306,,,,,2015_Sep_24_1639,G,facesParametric,7,59.7568582195,
./stim/MorphM10_05_orig.jpg,54,,,,,,,,,0,54,54,54,,,,,,,,,,,,,,,11.015625,-12.158203125,0,0,1,0.61919593811,,,,,2015_Sep_24_1639,G,facesParametric,7,59.7568582195,
./stim/MorphF8_02_orig.jpg,55,,,,,,,,,0,55,55,55,,,,,,,,,,,,,,,11.015625,-12.158203125,1,0,0,3.03238415718,,,,,2015_Sep_24_1639,G,facesParametric,7,59.7568582195,
./stim/MorphF1_07_orig.jpg,56,,,,,,,,,0,56,56,56,,,,,,,,,,,,,,,11.42578125,-12.3046875,0,0,1,16.1869490147,,,,,2015_Sep_24_1639,G,facesParametric,7,59.7568582195,
./stim/MorphM8_02_orig.jpg,57,,,,,,,,,0,57,57,57,,,,,,,,,,,,,,,11.455078125,-12.275390625,1,0,0,7.87610602379,,,,,2015_Sep_24_1639,G,facesParametric,7,59.7568582195,
./stim/MorphM5_01_orig.jpg,58,,,,,,,,,0,58,58,58,,,,,,,,,,,,,,,11.484375,-12.216796875,1,0,0,3.35064697266,,,,,2015_Sep_24_1639,G,facesParametric,7,59.7568582195,
./stim/MorphM10_06_orig.jpg,59,,,,,,,,,0,59,59,59,,,,,,,,,,,,,,,11.484375,-12.216796875,0,0,1,1.13839697838,,,,,2015_Sep_24_1639,G,facesParametric,7,59.7568582195,
./stim/MorphF3_07_orig.jpg,60,,,,,,,,,0,60,60,60,,,,,,,,,,,,,,,11.484375,-12.216796875,0,0,1,0.635218858719,,,,,2015_Sep_24_1639,G,facesParametric,7,59.7568582195,
./stim/MorphF5_05_orig.jpg,61,,,,,,,,,0,61,61,61,,,,,,,,,,,,,,,11.484375,-12.216796875,0,0,1,3.97146511078,,,,,2015_Sep_24_1639,G,facesParametric,7,59.7568582195,
./stim/MorphM1_04_orig.jpg,62,,,,,,,,,0,62,62,62,,,,,,,,,,,,,,,11.484375,-12.216796875,1,0,0,7.59091114998,,,,,2015_Sep_24_1639,G,facesParametric,7,59.7568582195,
./stim/MorphM10_10_orig.jpg,63,,,,,,,,,0,63,63,63,,,,,,,,,,,,,,,11.54296875,-12.59765625,0,0,1,22.3704349995,,,,,2015_Sep_24_1639,G,facesParametric,7,59.7568582195,
./stim/MorphM2_04_orig.jpg,64,,,,,,,,,0,64,64,64,,,,,,,,,,,,,,,11.953125,-12.392578125,1,0,0,2.04367804527,,,,,2015_Sep_24_1639,G,facesParametric,7,59.7568582195,
./stim/MorphF6_05_orig.jpg,65,,,,,,,,,0,65,65,65,,,,,,,,,,,,,,,11.982421875,-12.3046875,0,0,1,2.16050410271,,,,,2015_Sep_24_1639,G,facesParametric,7,59.7568582195,
./stim/MorphM8_09_orig.jpg,66,,,,,,,,,0,66,66,66,,,,,,,,,,,,,,,11.982421875,-12.3046875,0,0,1,0.902453899384,,,,,2015_Sep_24_1639,G,facesParametric,7,59.7568582195,
./stim/MorphM4_08_orig.jpg,67,,,,,,,,,0,67,67,67,,,,,,,,,,,,,,,11.982421875,-12.275390625,0,0,1,1.23861598969,,,,,2015_Sep_24_1639,G,facesParametric,7,59.7568582195,
./stim/MorphM3_00_orig.jpg,68,,,,,,,,,0,68,68,68,,,,,,,,,,,,,,,12.01171875,-12.24609375,1,0,0,3.63553500175,,,,,2015_Sep_24_1639,G,facesParametric,7,59.7568582195,
./stim/MorphF3_06_orig.jpg,69,,,,,,,,,0,69,69,69,,,,,,,,,,,,,,,12.158203125,-12.216796875,0,0,1,5.2949359417,,,,,2015_Sep_24_1639,G,facesParametric,7,59.7568582195,
./stim/MorphM8_06_orig.jpg,70,,,,,,,,,0,70,70,70,,,,,,,,,,,,,,,12.158203125,-12.216796875,1,0,0,1.62435102463,,,,,2015_Sep_24_1639,G,facesParametric,7,59.7568582195,
./stim/MorphF6_09_orig.jpg,71,,,,,,,,,0,71,71,71,,,,,,,,,,,,,,,12.744140625,-12.48046875,0,0,1,5.34480595589,,,,,2015_Sep_24_1639,G,facesParametric,7,59.7568582195,
./stim/MorphF1_08_orig.jpg,72,,,,,,,,,0,72,72,72,,,,,,,,,,,,,,,12.802734375,-12.568359375,0,0,1,22.0546600819,,,,,2015_Sep_24_1639,G,facesParametric,7,59.7568582195,
./stim/MorphF4_09_orig.jpg,73,,,,,,,,,0,73,73,73,,,,,,,,,,,,,,,12.861328125,-12.626953125,0,0,1,0.937712907791,,,,,2015_Sep_24_1639,G,facesParametric,7,59.7568582195,
./stim/MorphF9_08_orig.jpg,74,,,,,,,,,0,74,74,74,,,,,,,,,,,,,,,12.7734375,-12.568359375,0,0,1,2.07639622688,,,,,2015_Sep_24_1639,G,facesParametric,7,59.7568582195,
./stim/MorphF7_05_orig.jpg,75,,,,,,,,,0,75,75,75,,,,,,,,,,,,,,,12.7734375,-12.568359375,0,0,1,0.803224086761,,,,,2015_Sep_24_1639,G,facesParametric,7,59.7568582195,
./stim/MorphF9_05_orig.jpg,76,,,,,,,,,0,76,76,76,,,,,,,,,,,,,,,12.94921875,-12.744140625,0,0,1,2.56251692772,,,,,2015_Sep_24_1639,G,facesParametric,7,59.7568582195,
./stim/MorphM2_05_orig.jpg,77,,,,,,,,,0,77,77,77,,,,,,,,,,,,,,,12.94921875,-12.744140625,0,0,1,2.3946928978,,,,,2015_Sep_24_1639,G,facesParametric,7,59.7568582195,
./stim/MorphF9_07_orig.jpg,78,,,,,,,,,0,78,78,78,,,,,,,,,,,,,,,12.94921875,-12.744140625,0,0,1,2.20929312706,,,,,2015_Sep_24_1639,G,facesParametric,7,59.7568582195,
./stim/MorphF7_09_orig.jpg,79,,,,,,,,,0,79,79,79,,,,,,,,,,,,,,,12.94921875,-12.744140625,0,0,1,1.4045279026,,,,,2015_Sep_24_1639,G,facesParametric,7,59.7568582195,
./stim/MorphM4_09_orig.jpg,80,,,,,,,,,0,80,80,80,,,,,,,,,,,,,,,12.919921875,-12.7734375,0,0,1,1.13604187965,,,,,2015_Sep_24_1639,G,facesParametric,7,59.7568582195,
./stim/MorphM5_03_orig.jpg,81,,,,,,,,,0,81,81,81,,,,,,,,,,,,,,,12.919921875,-12.7734375,1,0,0,0.95280790329,,,,,2015_Sep_24_1639,G,facesParametric,7,59.7568582195,
./stim/MorphF5_04_orig.jpg,82,,,,,,,,,0,82,82,82,,,,,,,,,,,,,,,12.890625,-12.744140625,1,0,0,1.47292590141,,,,,2015_Sep_24_1639,G,facesParametric,7,59.7568582195,
./stim/MorphF4_00_orig.jpg,83,,,,,,,,,0,83,83,83,,,,,,,,,,,,,,,12.890625,-12.744140625,1,0,0,0.669538974762,,,,,2015_Sep_24_1639,G,facesParametric,7,59.7568582195,
./stim/MorphF10_00_orig.jpg,84,,,,,,,,,0,84,84,84,,,,,,,,,,,,,,,12.890625,-12.744140625,1,0,0,0.803107976913,,,,,2015_Sep_24_1639,G,facesParametric,7,59.7568582195,
./stim/MorphF6_03_orig.jpg,85,,,,,,,,,0,85,85,85,,,,,,,,,,,,,,,12.890625,-12.744140625,1,0,0,0.887151956558,,,,,2015_Sep_24_1639,G,facesParametric,7,59.7568582195,
./stim/MorphM10_03_orig.jpg,86,,,,,,,,,0,86,86,86,,,,,,,,,,,,,,,12.890625,-12.744140625,0,0,1,2.99852705002,,,,,2015_Sep_24_1639,G,facesParametric,7,59.7568582195,
./stim/MorphM9_10_orig.jpg,87,,,,,,,,,0,87,87,87,,,,,,,,,,,,,,,12.890625,-12.744140625,0,0,1,1.38939809799,,,,,2015_Sep_24_1639,G,facesParametric,7,59.7568582195,
./stim/MorphM6_07_orig.jpg,88,,,,,,,,,0,88,88,88,,,,,,,,,,,,,,,12.890625,-12.744140625,1,0,0,3.73508286476,,,,,2015_Sep_24_1639,G,facesParametric,7,59.7568582195,
./stim/MorphF4_03_orig.jpg,89,,,,,,,,,0,89,89,89,,,,,,,,,,,,,,,12.890625,-12.744140625,1,0,0,0.920281887054,,,,,2015_Sep_24_1639,G,facesParametric,7,59.7568582195,
./stim/MorphF8_01_orig.jpg,90,,,,,,,,,0,90,90,90,,,,,,,,,,,,,,,12.890625,-12.744140625,1,0,0,2.17640686035,,,,,2015_Sep_24_1639,G,facesParametric,7,59.7568582195,
./stim/MorphM2_02_orig.jpg,91,,,,,,,,,0,91,91,91,,,,,,,,,,,,,,,12.919921875,-12.744140625,1,0,0,1.2895321846,,,,,2015_Sep_24_1639,G,facesParametric,7,59.7568582195,
./stim/MorphF5_10_orig.jpg,92,,,,,,,,,0,92,92,92,,,,,,,,,,,,,,,12.919921875,-12.744140625,0,0,1,0.953598976135,,,,,2015_Sep_24_1639,G,facesParametric,7,59.7568582195,
./stim/MorphF6_07_orig.jpg,93,,,,,,,,,0,93,93,93,,,,,,,,,,,,,,,12.919921875,-12.744140625,0,0,1,1.27137303352,,,,,2015_Sep_24_1639,G,facesParametric,7,59.7568582195,
./stim/MorphF1_00_orig.jpg,94,,,,,,,,,0,94,94,94,,,,,,,,,,,,,,,12.94921875,-12.7734375,1,0,0,1.28942394257,,,,,2015_Sep_24_1639,G,facesParametric,7,59.7568582195,
./stim/MorphF2_01_orig.jpg,95,,,,,,,,,0,95,95,95,,,,,,,,,,,,,,,12.94921875,-12.802734375,1,0,0,4.50494003296,,,,,2015_Sep_24_1639,G,facesParametric,7,59.7568582195,
./stim/MorphF3_03_orig.jpg,96,,,,,,,,,0,96,96,96,,,,,,,,,,,,,,,12.94921875,-12.802734375,0,0,1,1.8089261055,,,,,2015_Sep_24_1639,G,facesParametric,7,59.7568582195,
./stim/MorphF2_07_orig.jpg,97,,,,,,,,,0,97,97,97,,,,,,,,,,,,,,,12.94921875,-12.802734375,0,0,1,1.55737113953,,,,,2015_Sep_24_1639,G,facesParametric,7,59.7568582195,
./stim/MorphF3_09_orig.jpg,98,,,,,,,,,0,98,98,98,,,,,,,,,,,,,,,12.94921875,-12.802734375,0,0,1,3.90369606018,,,,,2015_Sep_24_1639,G,facesParametric,7,59.7568582195,
./stim/MorphM4_10_orig.jpg,99,,,,,,,,,0,99,99,99,,,,,,,,,,,,,,,12.94921875,-12.802734375,0,0,1,1.12164211273,,,,,2015_Sep_24_1639,G,facesParametric,7,59.7568582195,
./stim/MorphF4_07_orig.jpg,100,,,,,,,,,0,100,100,100,,,,,,,,,,,,,,,12.94921875,-12.802734375,0,0,1,3.36742305756,,,,,2015_Sep_24_1639,G,facesParametric,7,59.7568582195,
./stim/MorphM3_05_orig.jpg,101,,,,,,,,,0,101,101,101,,,,,,,,,,,,,,,12.94921875,-12.802734375,1,0,0,3.68585586548,,,,,2015_Sep_24_1639,G,facesParametric,7,59.7568582195,
./stim/MorphF6_06_orig.jpg,102,,,,,,,,,0,102,102,102,,,,,,,,,,,,,,,12.94921875,-12.802734375,0,0,1,2.22783398628,,,,,2015_Sep_24_1639,G,facesParametric,7,59.7568582195,
./stim/MorphM9_07_orig.jpg,103,,,,,,,,,0,103,103,103,,,,,,,,,,,,,,,12.94921875,-12.802734375,0,0,1,0.803989171982,,,,,2015_Sep_24_1639,G,facesParametric,7,59.7568582195,
./stim/MorphF1_05_orig.jpg,104,,,,,,,,,0,104,104,104,,,,,,,,,,,,,,,12.94921875,-12.802734375,1,0,0,1.65589094162,,,,,2015_Sep_24_1639,G,facesParametric,7,59.7568582195,
./stim/MorphM7_01_orig.jpg,105,,,,,,,,,0,105,105,105,,,,,,,,,,,,,,,12.919921875,-12.802734375,0,0,1,5.68049001694,,,,,2015_Sep_24_1639,G,facesParametric,7,59.7568582195,
./stim/MorphM4_05_orig.jpg,106,,,,,,,,,0,106,106,106,,,,,,,,,,,,,,,12.94921875,-12.744140625,0,0,1,3.18195986748,,,,,2015_Sep_24_1639,G,facesParametric,7,59.7568582195,
./stim/MorphM1_06_orig.jpg,107,,,,,,,,,0,107,107,107,,,,,,,,,,,,,,,12.94921875,-12.744140625,1,0,0,1.84073495865,,,,,2015_Sep_24_1639,G,facesParametric,7,59.7568582195,
./stim/MorphF6_10_orig.jpg,108,,,,,,,,,0,108,108,108,,,,,,,,,,,,,,,12.94921875,-12.744140625,0,0,1,1.69165706635,,,,,2015_Sep_24_1639,G,facesParametric,7,59.7568582195,
./stim/MorphF2_09_orig.jpg,109,,,,,,,,,0,109,109,109,,,,,,,,,,,,,,,12.94921875,-12.744140625,0,0,1,0.818223953247,,,,,2015_Sep_24_1639,G,facesParametric,7,59.7568582195,
./stim/MorphF3_05_orig.jpg,110,,,,,,,,,0,110,110,110,,,,,,,,,,,,,,,12.94921875,-12.744140625,1,0,0,1.77514910698,,,,,2015_Sep_24_1639,G,facesParametric,7,59.7568582195,
./stim/MorphF5_08_orig.jpg,111,,,,,,,,,0,111,111,111,,,,,,,,,,,,,,,12.94921875,-12.744140625,0,0,1,5.22774910927,,,,,2015_Sep_24_1639,G,facesParametric,7,59.7568582195,
./stim/MorphF8_07_orig.jpg,112,,,,,,,,,0,112,112,112,,,,,,,,,,,,,,,12.94921875,-12.744140625,0,0,1,1.17208099365,,,,,2015_Sep_24_1639,G,facesParametric,7,59.7568582195,
./stim/MorphF3_02_orig.jpg,113,,,,,,,,,0,113,113,113,,,,,,,,,,,,,,,12.94921875,-12.744140625,1,0,0,1.10291385651,,,,,2015_Sep_24_1639,G,facesParametric,7,59.7568582195,
./stim/MorphF4_04_orig.jpg,114,,,,,,,,,0,114,114,114,,,,,,,,,,,,,,,12.890625,-12.744140625,1,0,0,2.61385416985,,,,,2015_Sep_24_1639,G,facesParametric,7,59.7568582195,
./stim/MorphM4_01_orig.jpg,115,,,,,,,,,0,115,115,115,,,,,,,,,,,,,,,12.890625,-12.744140625,0,0,1,0.702923059464,,,,,2015_Sep_24_1639,G,facesParametric,7,59.7568582195,
./stim/MorphM6_03_orig.jpg,116,,,,,,,,,0,116,116,116,,,,,,,,,,,,,,,12.890625,-12.802734375,1,0,0,3.63550710678,,,,,2015_Sep_24_1639,G,facesParametric,7,59.7568582195,
./stim/MorphM1_08_orig.jpg,117,,,,,,,,,0,117,117,117,,,,,,,,,,,,,,,12.890625,-12.802734375,0,0,1,1.30577516556,,,,,2015_Sep_24_1639,G,facesParametric,7,59.7568582195,
./stim/MorphF3_10_orig.jpg,118,,,,,,,,,0,118,118,118,,,,,,,,,,,,,,,12.861328125,-12.83203125,0,0,1,0.751098871231,,,,,2015_Sep_24_1639,G,facesParametric,7,59.7568582195,
./stim/MorphF5_06_orig.jpg,119,,,,,,,,,0,119,119,119,,,,,,,,,,,,,,,12.861328125,-12.83203125,0,0,1,1.35663700104,,,,,2015_Sep_24_1639,G,facesParametric,7,59.7568582195,
./stim/MorphF10_01_orig.jpg,120,,,,,,,,,0,120,120,120,,,,,,,,,,,,,,,12.890625,-12.83203125,0,0,1,2.37637495995,,,,,2015_Sep_24_1639,G,facesParametric,7,59.7568582195,
./stim/MorphM7_08_orig.jpg,121,,,,,,,,,0,121,121,121,,,,,,,,,,,,,,,12.890625,-12.83203125,0,0,1,2.04241991043,,,,,2015_Sep_24_1639,G,facesParametric,7,59.7568582195,
./stim/MorphF10_04_orig.jpg,122,,,,,,,,,0,122,122,122,,,,,,,,,,,,,,,12.890625,-12.83203125,0,0,1,3.24975895882,,,,,2015_Sep_24_1639,G,facesParametric,7,59.7568582195,
./stim/MorphM2_07_orig.jpg,123,,,,,,,,,0,123,123,123,,,,,,,,,,,,,,,12.890625,-12.83203125,0,0,1,2.02514505386,,,,,2015_Sep_24_1639,G,facesParametric,7,59.7568582195,
./stim/MorphF8_03_orig.jpg,124,,,,,,,,,0,124,124,124,,,,,,,,,,,,,,,12.890625,-12.83203125,1,0,0,2.02479910851,,,,,2015_Sep_24_1639,G,facesParametric,7,59.7568582195,
./stim/MorphM10_09_orig.jpg,125,,,,,,,,,0,125,125,125,,,,,,,,,,,,,,,12.890625,-12.83203125,0,0,1,1.08609080315,,,,,2015_Sep_24_1639,G,facesParametric,7,59.7568582195,
./stim/MorphM6_06_orig.jpg,126,,,,,,,,,0,126,126,126,,,,,,,,,,,,,,,12.919921875,-12.83203125,1,0,0,3.45125317574,,,,,2015_Sep_24_1639,G,facesParametric,7,59.7568582195,
./stim/MorphM2_10_orig.jpg,127,,,,,,,,,0,127,127,127,,,,,,,,,,,,,,,12.978515625,-12.83203125,0,0,1,4.32282805443,,,,,2015_Sep_24_1639,G,facesParametric,7,59.7568582195,
./stim/MorphM6_04_orig.jpg,128,,,,,,,,,0,128,128,128,,,,,,,,,,,,,,,12.978515625,-12.83203125,1,0,0,1.30616307259,,,,,2015_Sep_24_1639,G,facesParametric,7,59.7568582195,
./stim/MorphM3_08_orig.jpg,129,,,,,,,,,0,129,129,129,,,,,,,,,,,,,,,13.037109375,-12.83203125,0,0,1,6.7191529274,,,,,2015_Sep_24_1639,G,facesParametric,7,59.7568582195,
./stim/MorphM10_07_orig.jpg,130,,,,,,,,,0,130,130,130,,,,,,,,,,,,,,,13.06640625,-12.802734375,0,0,1,2.69680595398,,,,,2015_Sep_24_1639,G,facesParametric,7,59.7568582195,
./stim/MorphF8_05_orig.jpg,131,,,,,,,,,0,131,131,131,,,,,,,,,,,,,,,13.06640625,-12.802734375,0,0,1,2.54474377632,,,,,2015_Sep_24_1639,G,facesParametric,7,59.7568582195,
./stim/MorphF2_08_orig.jpg,132,,,,,,,,,0,132,132,132,,,,,,,,,,,,,,,13.06640625,-12.802734375,0,0,1,1.80778193474,,,,,2015_Sep_24_1639,G,facesParametric,7,59.7568582195,
./stim/MorphM1_00_orig.jpg,133,,,,,,,,,0,133,133,133,,,,,,,,,,,,,,,13.06640625,-12.802734375,1,0,0,6.1839427948,,,,,2015_Sep_24_1639,G,facesParametric,7,59.7568582195,
./stim/MorphM8_03_orig.jpg,134,,,,,,,,,0,134,134,134,,,,,,,,,,,,,,,13.06640625,-12.802734375,0,0,1,1.87550592422,,,,,2015_Sep_24_1639,G,facesParametric,7,59.7568582195,
./stim/MorphF8_09_orig.jpg,135,,,,,,,,,0,135,135,135,,,,,,,,,,,,,,,13.154296875,-12.802734375,0,0,1,4.03688001633,,,,,2015_Sep_24_1639,G,facesParametric,7,59.7568582195,
./stim/MorphF9_00_orig.jpg,136,,,,,,,,,0,136,136,136,,,,,,,,,,,,,,,13.154296875,-12.802734375,0,0,1,1.70774102211,,,,,2015_Sep_24_1639,G,facesParametric,7,59.7568582195,
./stim/MorphM6_05_orig.jpg,137,,,,,,,,,0,137,137,137,,,,,,,,,,,,,,,13.359375,-12.890625,1,0,0,6.41701889038,,,,,2015_Sep_24_1639,G,facesParametric,7,59.7568582195,
./stim/MorphF7_01_orig.jpg,138,,,,,,,,,0,138,138,138,,,,,,,,,,,,,,,13.4765625,-12.890625,0,0,1,3.16640019417,,,,,2015_Sep_24_1639,G,facesParametric,7,59.7568582195,
./stim/MorphF1_10_orig.jpg,139,,,,,,,,,0,139,139,139,,,,,,,,,,,,,,,13.4765625,-12.890625,0,0,1,3.76973009109,,,,,2015_Sep_24_1639,G,facesParametric,7,59.7568582195,
./stim/MorphF7_06_orig.jpg,140,,,,,,,,,0,140,140,140,,,,,,,,,,,,,,,13.4765625,-12.890625,0,0,1,0.937056064606,,,,,2015_Sep_24_1639,G,facesParametric,7,59.7568582195,
./stim/MorphM5_06_orig.jpg,141,,,,,,,,,0,141,141,141,,,,,,,,,,,,,,,13.4765625,-12.890625,0,0,1,1.25504016876,,,,,2015_Sep_24_1639,G,facesParametric,7,59.7568582195,
./stim/MorphM8_10_orig.jpg,142,,,,,,,,,0,142,142,142,,,,,,,,,,,,,,,13.4765625,-12.890625,0,0,1,1.48805689812,,,,,2015_Sep_24_1639,G,facesParametric,7,59.7568582195,
./stim/MorphM7_05_orig.jpg,143,,,,,,,,,0,143,143,143,,,,,,,,,,,,,,,13.53515625,-12.890625,0,0,1,1.01963996887,,,,,2015_Sep_24_1639,G,facesParametric,7,59.7568582195,
./stim/MorphF1_03_orig.jpg,144,,,,,,,,,0,144,144,144,,,,,,,,,,,,,,,13.53515625,-12.890625,1,0,0,2.61336016655,,,,,2015_Sep_24_1639,G,facesParametric,7,59.7568582195,
./stim/MorphM2_06_orig.jpg,145,,,,,,,,,0,145,145,145,,,,,,,,,,,,,,,13.53515625,-12.890625,0,0,1,1.38962888718,,,,,2015_Sep_24_1639,G,facesParametric,7,59.7568582195,
./stim/MorphM5_02_orig.jpg,146,,,,,,,,,0,146,146,146,,,,,,,,,,,,,,,13.53515625,-12.890625,1,0,0,1.58921217918,,,,,2015_Sep_24_1639,G,facesParametric,7,59.7568582195,
./stim/MorphM4_02_orig.jpg,147,,,,,,,,,0,147,147,147,,,,,,,,,,,,,,,13.59375,-12.919921875,1,0,0,5.76328992844,,,,,2015_Sep_24_1639,G,facesParametric,7,59.7568582195,
./stim/MorphF10_02_orig.jpg,148,,,,,,,,,0,148,148,148,,,,,,,,,,,,,,,13.740234375,-12.861328125,1,0,0,5.14302706718,,,,,2015_Sep_24_1639,G,facesParametric,7,59.7568582195,
./stim/MorphF9_04_orig.jpg,149,,,,,,,,,0,149,149,149,,,,,,,,,,,,,,,13.76953125,-12.861328125,0,0,1,1.05496096611,,,,,2015_Sep_24_1639,G,facesParametric,7,59.7568582195,
./stim/MorphM7_09_orig.jpg,150,,,,,,,,,0,150,150,150,,,,,,,,,,,,,,,13.828125,-12.861328125,0,0,1,2.1269800663,,,,,2015_Sep_24_1639,G,facesParametric,7,59.7568582195,
./stim/MorphF3_01_orig.jpg,151,,,,,,,,,0,151,151,151,,,,,,,,,,,,,,,14.033203125,-12.83203125,1,0,0,4.77467298508,,,,,2015_Sep_24_1639,G,facesParametric,7,59.7568582195,
./stim/MorphM3_10_orig.jpg,152,,,,,,,,,0,152,152,152,,,,,,,,,,,,,,,14.0625,-12.861328125,0,0,1,1.55696702003,,,,,2015_Sep_24_1639,G,facesParametric,7,59.7568582195,
./stim/MorphF5_02_orig.jpg,153,,,,,,,,,0,153,153,153,,,,,,,,,,,,,,,14.0625,-12.861328125,1,0,0,1.2383210659,,,,,2015_Sep_24_1639,G,facesParametric,7,59.7568582195,
./stim/MorphF6_00_orig.jpg,154,,,,,,,,,0,154,154,154,,,,,,,,,,,,,,,14.091796875,-12.861328125,1,0,0,3.26697301865,,,,,2015_Sep_24_1639,G,facesParametric,7,59.7568582195,
./stim/MorphM3_01_orig.jpg,155,,,,,,,,,0,155,155,155,,,,,,,,,,,,,,,14.091796875,-12.861328125,0,0,1,4.75843596458,,,,,2015_Sep_24_1639,G,facesParametric,7,59.7568582195,
./stim/MorphF4_05_orig.jpg,156,,,,,,,,,0,156,156,156,,,,,,,,,,,,,,,14.091796875,-12.861328125,0,0,1,2.47948598862,,,,,2015_Sep_24_1639,G,facesParametric,7,59.7568582195,
./stim/MorphM2_09_orig.jpg,157,,,,,,,,,0,157,157,157,,,,,,,,,,,,,,,14.091796875,-12.861328125,0,0,1,3.14937114716,,,,,2015_Sep_24_1639,G,facesParametric,7,59.7568582195,
./stim/MorphF10_07_orig.jpg,158,,,,,,,,,0,158,158,158,,,,,,,,,,,,,,,14.12109375,-12.83203125,0,0,1,1.55782294273,,,,,2015_Sep_24_1639,G,facesParametric,7,59.7568582195,
./stim/MorphM3_03_orig.jpg,159,,,,,,,,,0,159,159,159,,,,,,,,,,,,,,,14.12109375,-12.83203125,1,0,0,2.57828187943,,,,,2015_Sep_24_1639,G,facesParametric,7,59.7568582195,
./stim/MorphF7_10_orig.jpg,160,,,,,,,,,0,160,160,160,,,,,,,,,,,,,,,14.12109375,-12.83203125,0,0,1,1.65719413757,,,,,2015_Sep_24_1639,G,facesParametric,7,59.7568582195,
./stim/MorphM8_05_orig.jpg,161,,,,,,,,,0,161,161,161,,,,,,,,,,,,,,,14.12109375,-12.83203125,1,0,0,1.13631606102,,,,,2015_Sep_24_1639,G,facesParametric,7,59.7568582195,
./stim/MorphM10_01_orig.jpg,162,,,,,,,,,0,162,162,162,,,,,,,,,,,,,,,14.12109375,-12.83203125,1,0,0,1.2033970356,,,,,2015_Sep_24_1639,G,facesParametric,7,59.7568582195,
./stim/MorphF9_09_orig.jpg,163,,,,,,,,,0,163,163,163,,,,,,,,,,,,,,,14.12109375,-12.83203125,0,0,1,2.09379792213,,,,,2015_Sep_24_1639,G,facesParametric,7,59.7568582195,
./stim/MorphF4_01_orig.jpg,164,,,,,,,,,0,164,164,164,,,,,,,,,,,,,,,14.12109375,-12.83203125,1,0,0,2.96477103233,,,,,2015_Sep_24_1639,G,facesParametric,7,59.7568582195,
./stim/MorphF10_03_orig.jpg,165,,,,,,,,,0,165,165,165,,,,,,,,,,,,,,,14.150390625,-12.802734375,0,0,1,1.32108306885,,,,,2015_Sep_24_1639,G,facesParametric,7,59.7568582195,
./stim/MorphM8_00_orig.jpg,166,,,,,,,,,0,166,166,166,,,,,,,,,,,,,,,14.12109375,-12.802734375,1,0,0,1.37280797958,,,,,2015_Sep_24_1639,G,facesParametric,7,59.7568582195,
./stim/MorphF9_02_orig.jpg,167,,,,,,,,,0,167,167,167,,,,,,,,,,,,,,,12.685546875,-12.71484375,0,0,1,7.82575702667,,,,,2015_Sep_24_1639,G,facesParametric,7,59.7568582195,
./stim/MorphF4_02_orig.jpg,168,,,,,,,,,0,168,168,168,,,,,,,,,,,,,,,12.7734375,-12.685546875,1,0,0,1.67495703697,,,,,2015_Sep_24_1639,G,facesParametric,7,59.7568582195,
./stim/MorphM10_00_orig.jpg,169,,,,,,,,,0,169,169,169,,,,,,,,,,,,,,,12.7734375,-12.685546875,1,0,0,0.702502012253,,,,,2015_Sep_24_1639,G,facesParametric,7,59.7568582195,
./stim/MorphM8_08_orig.jpg,170,,,,,,,,,0,170,170,170,,,,,,,,,,,,,,,12.7734375,-12.685546875,0,0,1,1.30592799187,,,,,2015_Sep_24_1639,G,facesParametric,7,59.7568582195,
./stim/MorphF1_01_orig.jpg,171,,,,,,,,,0,171,171,171,,,,,,,,,,,,,,,12.7734375,-12.685546875,1,0,0,0.937039136887,,,,,2015_Sep_24_1639,G,facesParametric,7,59.7568582195,
./stim/MorphM6_10_orig.jpg,172,,,,,,,,,0,172,172,172,,,,,,,,,,,,,,,12.7734375,-12.685546875,0,0,1,0.652480840683,,,,,2015_Sep_24_1639,G,facesParametric,7,59.7568582195,
./stim/MorphM4_04_orig.jpg,173,,,,,,,,,0,173,173,173,,,,,,,,,,,,,,,12.802734375,-12.685546875,0,0,1,0.987581014633,,,,,2015_Sep_24_1639,G,facesParametric,7,59.7568582195,
./stim/MorphM7_02_orig.jpg,174,,,,,,,,,0,174,174,174,,,,,,,,,,,,,,,12.802734375,-12.685546875,0,0,1,0.669396877289,,,,,2015_Sep_24_1639,G,facesParametric,7,59.7568582195,
./stim/MorphF7_03_orig.jpg,175,,,,,,,,,0,175,175,175,,,,,,,,,,,,,,,12.83203125,-12.685546875,0,0,1,1.27089285851,,,,,2015_Sep_24_1639,G,facesParametric,7,59.7568582195,
./stim/MorphM5_07_orig.jpg,176,,,,,,,,,0,176,176,176,,,,,,,,,,,,,,,12.83203125,-12.685546875,1,0,0,0.919976949692,,,,,2015_Sep_24_1639,G,facesParametric,7,59.7568582195,
./stim/MorphF9_03_orig.jpg,177,,,,,,,,,0,177,177,177,,,,,,,,,,,,,,,12.83203125,-12.685546875,1,0,0,3.65211200714,,,,,2015_Sep_24_1639,G,facesParametric,7,59.7568582195,
./stim/MorphM4_06_orig.jpg,178,,,,,,,,,0,178,178,178,,,,,,,,,,,,,,,12.83203125,-12.685546875,0,0,1,0.853714942932,,,,,2015_Sep_24_1639,G,facesParametric,7,59.7568582195,
./stim/MorphF5_03_orig.jpg,179,,,,,,,,,0,179,179,179,,,,,,,,,,,,,,,12.861328125,-12.685546875,1,0,0,0.818224906921,,,,,2015_Sep_24_1639,G,facesParametric,7,59.7568582195,
./stim/MorphF2_10_orig.jpg,180,,,,,,,,,0,180,180,180,,,,,,,,,,,,,,,12.94921875,-12.685546875,0,0,1,0.752925872803,,,,,2015_Sep_24_1639,G,facesParametric,7,59.7568582195,
./stim/MorphM4_00_orig.jpg,181,,,,,,,,,0,181,181,181,,,,,,,,,,,,,,,12.94921875,-12.685546875,0,0,1,0.8024559021,,,,,2015_Sep_24_1639,G,facesParametric,7,59.7568582195,
./stim/MorphF6_02_orig.jpg,182,,,,,,,,,0,182,182,182,,,,,,,,,,,,,,,12.978515625,-12.65625,1,0,0,4.03727293015,,,,,2015_Sep_24_1639,G,facesParametric,7,59.7568582195,
./stim/MorphM6_01_orig.jpg,183,,,,,,,,,0,183,183,183,,,,,,,,,,,,,,,12.978515625,-12.65625,1,0,0,1.17203187943,,,,,2015_Sep_24_1639,G,facesParametric,7,59.7568582195,
./stim/MorphF1_04_orig.jpg,184,,,,,,,,,0,184,184,184,,,,,,,,,,,,,,,12.978515625,-12.65625,1,0,0,1.17068910599,,,,,2015_Sep_24_1639,G,facesParametric,7,59.7568582195,
./stim/MorphF5_01_orig.jpg,185,,,,,,,,,0,185,185,185,,,,,,,,,,,,,,,12.978515625,-12.65625,1,0,0,1.00348782539,,,,,2015_Sep_24_1639,G,facesParametric,7,59.7568582195,
./stim/MorphF7_07_orig.jpg,186,,,,,,,,,0,186,186,186,,,,,,,,,,,,,,,12.978515625,-12.65625,0,0,1,1.17209196091,,,,,2015_Sep_24_1639,G,facesParametric,7,59.7568582195,
./stim/MorphM9_03_orig.jpg,187,,,,,,,,,0,187,187,187,,,,,,,,,,,,,,,12.978515625,-12.65625,1,0,0,0.951771020889,,,,,2015_Sep_24_1639,G,facesParametric,7,59.7568582195,
./stim/MorphF5_00_orig.jpg,188,,,,,,,,,0,188,188,188,,,,,,,,,,,,,,,12.978515625,-12.65625,1,0,0,1.75829696655,,,,,2015_Sep_24_1639,G,facesParametric,7,59.7568582195,
./stim/MorphM1_09_orig.jpg,189,,,,,,,,,0,189,189,189,,,,,,,,,,,,,,,13.0078125,-12.685546875,0,0,1,0.937106132507,,,,,2015_Sep_24_1639,G,facesParametric,7,59.7568582195,
./stim/MorphF2_04_orig.jpg,190,,,,,,,,,0,190,190,190,,,,,,,,,,,,,,,13.0078125,-12.685546875,0,0,1,1.99323105812,,,,,2015_Sep_24_1639,G,facesParametric,7,59.7568582195,
./stim/MorphF10_08_orig.jpg,191,,,,,,,,,0,191,191,191,,,,,,,,,,,,,,,13.0078125,-12.685546875,0,0,1,4.42168998718,,,,,2015_Sep_24_1639,G,facesParametric,7,59.7568582195,
./stim/MorphF4_08_orig.jpg,192,,,,,,,,,0,192,192,192,,,,,,,,,,,,,,,13.0078125,-12.685546875,0,0,1,1.65578794479,,,,,2015_Sep_24_1639,G,facesParametric,7,59.7568582195,
./stim/MorphM1_05_orig.jpg,193,,,,,,,,,0,193,193,193,,,,,,,,,,,,,,,13.0078125,-12.685546875,1,0,0,2.57764911652,,,,,2015_Sep_24_1639,G,facesParametric,7,59.7568582195,
./stim/MorphF10_06_orig.jpg,194,,,,,,,,,0,194,194,194,,,,,,,,,,,,,,,13.0078125,-12.685546875,0,0,1,2.52817893028,,,,,2015_Sep_24_1639,G,facesParametric,7,59.7568582195,
./stim/MorphF2_02_orig.jpg,195,,,,,,,,,0,195,195,195,,,,,,,,,,,,,,,13.037109375,-12.65625,1,0,0,1.18715906143,,,,,2015_Sep_24_1639,G,facesParametric,7,59.7568582195,
./stim/MorphF6_08_orig.jpg,196,,,,,,,,,0,196,196,196,,,,,,,,,,,,,,,13.359375,-12.94921875,0,0,1,5.59628796577,,,,,2015_Sep_24_1639,G,facesParametric,7,59.7568582195,
./stim/MorphF8_04_orig.jpg,197,,,,,,,,,0,197,197,197,,,,,,,,,,,,,,,13.359375,-12.94921875,1,0,0,2.16130185127,,,,,2015_Sep_24_1639,G,facesParametric,7,59.7568582195,
./stim/MorphM7_06_orig.jpg,198,,,,,,,,,0,198,198,198,,,,,,,,,,,,,,,13.359375,-12.94921875,0,0,1,0.836425065994,,,,,2015_Sep_24_1639,G,facesParametric,7,59.7568582195,
./stim/MorphF9_10_orig.jpg,199,,,,,,,,,0,199,199,199,,,,,,,,,,,,,,,13.359375,-12.94921875,0,0,1,0.752225160599,,,,,2015_Sep_24_1639,G,facesParametric,7,59.7568582195,
./stim/MorphF5_09_orig.jpg,200,,,,,,,,,0,200,200,200,,,,,,,,,,,,,,,13.359375,-12.94921875,0,0,1,1.15574908257,,,,,2015_Sep_24_1639,G,facesParametric,7,59.7568582195,
./stim/MorphF8_06_orig.jpg,201,,,,,,,,,0,201,201,201,,,,,,,,,,,,,,,13.359375,-12.94921875,0,0,1,1.7245759964,,,,,2015_Sep_24_1639,G,facesParametric,7,59.7568582195,
./stim/MorphF10_09_orig.jpg,202,,,,,,,,,0,202,202,202,,,,,,,,,,,,,,,13.359375,-12.978515625,0,0,1,1.32112193108,,,,,2015_Sep_24_1639,G,facesParametric,7,59.7568582195,
./stim/MorphM5_09_orig.jpg,203,,,,,,,,,0,203,203,203,,,,,,,,,,,,,,,13.359375,-12.978515625,0,0,1,4.08582806587,,,,,2015_Sep_24_1639,G,facesParametric,7,59.7568582195,
./stim/MorphM7_00_orig.jpg,204,,,,,,,,,0,204,204,204,,,,,,,,,,,,,,,13.359375,-13.0078125,1,0,0,1.00458312035,,,,,2015_Sep_24_1639,G,facesParametric,7,59.7568582195,
./stim/MorphM1_10_orig.jpg,205,,,,,,,,,0,205,205,205,,,,,,,,,,,,,,,13.388671875,-13.095703125,0,0,1,6.03187298775,,,,,2015_Sep_24_1639,G,facesParametric,7,59.7568582195,
./stim/MorphF5_07_orig.jpg,206,,,,,,,,,0,206,206,206,,,,,,,,,,,,,,,13.359375,-13.095703125,0,0,1,1.16984605789,,,,,2015_Sep_24_1639,G,facesParametric,7,59.7568582195,
./stim/MorphM3_04_orig.jpg,207,,,,,,,,,0,207,207,207,,,,,,,,,,,,,,,13.359375,-13.095703125,0,0,1,1.79205799103,,,,,2015_Sep_24_1639,G,facesParametric,7,59.7568582195,
./stim/MorphF7_00_orig.jpg,208,,,,,,,,,0,208,208,208,,,,,,,,,,,,,,,13.359375,-13.095703125,1,0,0,1.03796410561,,,,,2015_Sep_24_1639,G,facesParametric,7,59.7568582195,
./stim/MorphM9_04_orig.jpg,209,,,,,,,,,0,209,209,209,,,,,,,,,,,,,,,13.330078125,-13.125,1,0,0,2.74751615524,,,,,2015_Sep_24_1639,G,facesParametric,7,59.7568582195,
./stim/MorphM1_01_orig.jpg,210,,,,,,,,,0,210,210,210,,,,,,,,,,,,,,,13.330078125,-13.125,1,0,0,5.57938408852,,,,,2015_Sep_24_1639,G,facesParametric,7,59.7568582195,
./stim/MorphM7_07_orig.jpg,211,,,,,,,,,0,211,211,211,,,,,,,,,,,,,,,13.330078125,-13.125,0,0,1,0.953543186188,,,,,2015_Sep_24_1639,G,facesParametric,7,59.7568582195,
./stim/MorphF1_02_orig.jpg,212,,,,,,,,,0,212,212,212,,,,,,,,,,,,,,,13.30078125,-13.154296875,1,0,0,1.20550203323,,,,,2015_Sep_24_1639,G,facesParametric,7,59.7568582195,
./stim/MorphF8_10_orig.jpg,213,,,,,,,,,0,213,213,213,,,,,,,,,,,,,,,13.330078125,-13.125,0,0,1,2.1774148941,,,,,2015_Sep_24_1639,G,facesParametric,7,59.7568582195,
./stim/MorphM8_01_orig.jpg,214,,,,,,,,,0,214,214,214,,,,,,,,,,,,,,,13.330078125,-13.125,1,0,0,1.62205791473,,,,,2015_Sep_24_1639,G,facesParametric,7,59.7568582195,
./stim/MorphM9_05_orig.jpg,215,,,,,,,,,0,215,215,215,,,,,,,,,,,,,,,13.330078125,-13.125,1,0,0,4.77531409264,,,,,2015_Sep_24_1639,G,facesParametric,7,59.7568582195,
./stim/MorphF8_08_orig.jpg,216,,,,,,,,,0,216,216,216,,,,,,,,,,,,,,,13.330078125,-13.125,0,0,1,1.64148187637,,,,,2015_Sep_24_1639,G,facesParametric,7,59.7568582195,
./stim/MorphF1_06_orig.jpg,217,,,,,,,,,0,217,217,217,,,,,,,,,,,,,,,13.330078125,-13.125,1,0,0,3.4008769989,,,,,2015_Sep_24_1639,G,facesParametric,7,59.7568582195,
./stim/MorphF4_10_orig.jpg,218,,,,,,,,,0,218,218,218,,,,,,,,,,,,,,,13.330078125,-13.125,0,0,1,0.820214033127,,,,,2015_Sep_24_1639,G,facesParametric,7,59.7568582195,
./stim/MorphM3_07_orig.jpg,219,,,,,,,,,0,219,219,219,,,,,,,,,,,,,,,13.330078125,-13.125,0,0,1,0.91814994812,,,,,2015_Sep_24_1639,G,facesParametric,7,59.7568582195,
,,,,,,,,,,,,,,,,,,,,,,,,,,,,,,,,,,,,return,8.24019622803,2015_Sep_24_1639,G,facesParametric,7,59.7568582195,
