img,num,basicLoop.thisRepN,basicLoop.thisTrialN,basicLoop.thisN,basicLoop.thisIndex,trials.thisRepN,trials.thisTrialN,trials.thisN,trials.thisIndex,trials2.thisRepN,trials2.thisTrialN,trials2.thisN,trials2.thisIndex,key_resp_2.keys,key_resp_2.rt,basicRating1.response,basicRating1.rt,basicRating2.response,basicRating2.rt,basicRating3.response,basicRating3.rt,basicRating4.response,basicRating4.rt,key_resp_3.keys,key_resp_3.rt,key_resp_4.keys,key_resp_4.rt,mouseResp.x,mouseResp.y,mouseResp.leftButton,mouseResp.midButton,mouseResp.rightButton,mouseResp.time,key_resp_5.keys,key_resp_5.rt,key_resp_7.keys,key_resp_7.rt,date,group,expName,participant,frameRate,
,,,,,,,,,,,,,,return,44.8418400288,,,,,,,,,,,,,,,,,,,,,,,2015_Sep_26_1406,G,facesParametric,8,59.8056812705,
./basicStim/07F_DI_O.jpg,,0,0,0,29,,,,,,,,,,,None,None,None,None,DIS,3.936,None,None,,,,,,,,,,,,,,,2015_Sep_26_1406,G,facesParametric,8,59.8056812705,
./basicStim/06F_AN_O.jpg,,0,1,1,21,,,,,,,,,,,None,None,ANG,3.646,None,None,None,None,,,,,,,,,,,,,,,2015_Sep_26_1406,G,facesParametric,8,59.8056812705,
./basicStim/28M_NE_C.jpg,,0,2,2,69,,,,,,,,,,,None,None,None,None,None,None,NTR,3.121,,,,,,,,,,,,,,,2015_Sep_26_1406,G,facesParametric,8,59.8056812705,
./basicStim/21M_HA_O.jpg,,0,3,3,45,,,,,,,,,,,HAP,1.394,None,None,None,None,None,None,,,,,,,,,,,,,,,2015_Sep_26_1406,G,facesParametric,8,59.8056812705,
./basicStim/23M_FE_O.jpg,,0,4,4,51,,,,,,,,,,,None,None,None,None,SUP,1.91,None,None,,,,,,,,,,,,,,,2015_Sep_26_1406,G,facesParametric,8,59.8056812705,
./basicStim/34M_FE_O.jpg,,0,5,5,72,,,,,,,,,,,None,None,FEA,1.545,None,None,None,None,,,,,,,,,,,,,,,2015_Sep_26_1406,G,facesParametric,8,59.8056812705,
./basicStim/01F_DI_O.jpg,,0,6,6,1,,,,,,,,,,,None,None,None,None,DIS,0.96,None,None,,,,,,,,,,,,,,,2015_Sep_26_1406,G,facesParametric,8,59.8056812705,
./basicStim/06F_HA_O.jpg,,0,7,7,24,,,,,,,,,,,HAP,1.599,None,None,None,None,None,None,,,,,,,,,,,,,,,2015_Sep_26_1406,G,facesParametric,8,59.8056812705,
./basicStim/23M_NE_C.jpg,,0,8,8,55,,,,,,,,,,,None,None,None,None,None,None,NTR,1.949,,,,,,,,,,,,,,,2015_Sep_26_1406,G,facesParametric,8,59.8056812705,
./basicStim/34M_SP_O.jpg,,0,9,9,75,,,,,,,,,,,None,None,None,None,SUP,1.41,None,None,,,,,,,,,,,,,,,2015_Sep_26_1406,G,facesParametric,8,59.8056812705,
./basicStim/23M_SA_C.jpg,,0,10,10,53,,,,,,,,,,,SAD,4.297,None,None,None,None,None,None,,,,,,,,,,,,,,,2015_Sep_26_1406,G,facesParametric,8,59.8056812705,
./basicStim/07F_HA_O.jpg,,0,11,11,31,,,,,,,,,,,HAP,1.683,None,None,None,None,None,None,,,,,,,,,,,,,,,2015_Sep_26_1406,G,facesParametric,8,59.8056812705,
./basicStim/03F_FE_O.jpg,,0,12,12,16,,,,,,,,,,,None,None,None,None,SUP,2.434,None,None,,,,,,,,,,,,,,,2015_Sep_26_1406,G,facesParametric,8,59.8056812705,
./basicStim/01F_NE_C.jpg,,0,13,13,6,,,,,,,,,,,None,None,None,None,None,None,NTR,0.792,,,,,,,,,,,,,,,2015_Sep_26_1406,G,facesParametric,8,59.8056812705,
./basicStim/36M_HA_O.jpg,,0,14,14,80,,,,,,,,,,,HAP,2.604,None,None,None,None,None,None,,,,,,,,,,,,,,,2015_Sep_26_1406,G,facesParametric,8,59.8056812705,
./basicStim/02F_DI_O.jpg,,0,15,15,8,,,,,,,,,,,None,None,None,None,DIS,0.913,None,None,,,,,,,,,,,,,,,2015_Sep_26_1406,G,facesParametric,8,59.8056812705,
./basicStim/23M_AN_O.jpg,,0,16,16,49,,,,,,,,,,,None,None,ANG,1.831,None,None,None,None,,,,,,,,,,,,,,,2015_Sep_26_1406,G,facesParametric,8,59.8056812705,
./basicStim/21M_SA_C.jpg,,0,17,17,46,,,,,,,,,,,None,None,None,None,DIS,4.175,None,None,,,,,,,,,,,,,,,2015_Sep_26_1406,G,facesParametric,8,59.8056812705,
./basicStim/03F_SA_C.jpg,,0,18,18,18,,,,,,,,,,,SAD,2.927,None,None,None,None,None,None,,,,,,,,,,,,,,,2015_Sep_26_1406,G,facesParametric,8,59.8056812705,
./basicStim/07F_FE_O.jpg,,0,19,19,30,,,,,,,,,,,None,None,FEA,3.043,None,None,None,None,,,,,,,,,,,,,,,2015_Sep_26_1406,G,facesParametric,8,59.8056812705,
./basicStim/01F_SA_C.jpg,,0,20,20,4,,,,,,,,,,,SAD,1.721,None,None,None,None,None,None,,,,,,,,,,,,,,,2015_Sep_26_1406,G,facesParametric,8,59.8056812705,
./basicStim/06F_FE_O.jpg,,0,21,21,23,,,,,,,,,,,None,None,FEA,2.635,None,None,None,None,,,,,,,,,,,,,,,2015_Sep_26_1406,G,facesParametric,8,59.8056812705,
./basicStim/21M_FE_O.jpg,,0,22,22,44,,,,,,,,,,,None,None,FEA,1.077,None,None,None,None,,,,,,,,,,,,,,,2015_Sep_26_1406,G,facesParametric,8,59.8056812705,
./basicStim/09F_FE_O.jpg,,0,23,23,37,,,,,,,,,,,None,None,FEA,2.146,None,None,None,None,,,,,,,,,,,,,,,2015_Sep_26_1406,G,facesParametric,8,59.8056812705,
./basicStim/23M_HA_O.jpg,,0,24,24,52,,,,,,,,,,,HAP,0.96,None,None,None,None,None,None,,,,,,,,,,,,,,,2015_Sep_26_1406,G,facesParametric,8,59.8056812705,
./basicStim/03F_SP_O.jpg,,0,25,25,19,,,,,,,,,,,HAP,2.335,None,None,None,None,None,None,,,,,,,,,,,,,,,2015_Sep_26_1406,G,facesParametric,8,59.8056812705,
./basicStim/21M_NE_C.jpg,,0,26,26,48,,,,,,,,,,,None,None,None,None,None,None,NTR,2.136,,,,,,,,,,,,,,,2015_Sep_26_1406,G,facesParametric,8,59.8056812705,
./basicStim/02F_SA_C.jpg,,0,27,27,11,,,,,,,,,,,SAD,3.69,None,None,None,None,None,None,,,,,,,,,,,,,,,2015_Sep_26_1406,G,facesParametric,8,59.8056812705,
./basicStim/34M_DI_O.jpg,,0,28,28,71,,,,,,,,,,,None,None,None,None,DIS,2.386,None,None,,,,,,,,,,,,,,,2015_Sep_26_1406,G,facesParametric,8,59.8056812705,
./basicStim/07F_AN_O.jpg,,0,29,29,28,,,,,,,,,,,None,None,ANG,1.247,None,None,None,None,,,,,,,,,,,,,,,2015_Sep_26_1406,G,facesParametric,8,59.8056812705,
./basicStim/09F_AN_O.jpg,,0,30,30,35,,,,,,,,,,,None,None,ANG,0.573,None,None,None,None,,,,,,,,,,,,,,,2015_Sep_26_1406,G,facesParametric,8,59.8056812705,
./basicStim/06F_SA_C.jpg,,0,31,31,25,,,,,,,,,,,SAD,2.099,None,None,None,None,None,None,,,,,,,,,,,,,,,2015_Sep_26_1406,G,facesParametric,8,59.8056812705,
./basicStim/24M_AN_O.jpg,,0,32,32,56,,,,,,,,,,,None,None,ANG,1.042,None,None,None,None,,,,,,,,,,,,,,,2015_Sep_26_1406,G,facesParametric,8,59.8056812705,
./basicStim/28M_DI_O.jpg,,0,33,33,64,,,,,,,,,,,None,None,None,None,DIS,2.632,None,None,,,,,,,,,,,,,,,2015_Sep_26_1406,G,facesParametric,8,59.8056812705,
./basicStim/28M_AN_O.jpg,,0,34,34,63,,,,,,,,,,,None,None,ANG,1.531,None,None,None,None,,,,,,,,,,,,,,,2015_Sep_26_1406,G,facesParametric,8,59.8056812705,
./basicStim/23M_DI_O.jpg,,0,35,35,50,,,,,,,,,,,None,None,None,None,DIS,1.844,None,None,,,,,,,,,,,,,,,2015_Sep_26_1406,G,facesParametric,8,59.8056812705,
./basicStim/36M_DI_O.jpg,,0,36,36,78,,,,,,,,,,,None,None,None,None,DIS,1.515,None,None,,,,,,,,,,,,,,,2015_Sep_26_1406,G,facesParametric,8,59.8056812705,
./basicStim/24M_SA_C.jpg,,0,37,37,60,,,,,,,,,,,SAD,1.303,None,None,None,None,None,None,,,,,,,,,,,,,,,2015_Sep_26_1406,G,facesParametric,8,59.8056812705,
./basicStim/28M_FE_O.jpg,,0,38,38,65,,,,,,,,,,,None,None,None,None,SUP,2.414,None,None,,,,,,,,,,,,,,,2015_Sep_26_1406,G,facesParametric,8,59.8056812705,
./basicStim/34M_AN_O.jpg,,0,39,39,70,,,,,,,,,,,None,None,ANG,0.842,None,None,None,None,,,,,,,,,,,,,,,2015_Sep_26_1406,G,facesParametric,8,59.8056812705,
./basicStim/09F_DI_O.jpg,,0,40,40,36,,,,,,,,,,,None,None,None,None,DIS,1.484,None,None,,,,,,,,,,,,,,,2015_Sep_26_1406,G,facesParametric,8,59.8056812705,
./basicStim/02F_HA_O.jpg,,0,41,41,10,,,,,,,,,,,HAP,1.146,None,None,None,None,None,None,,,,,,,,,,,,,,,2015_Sep_26_1406,G,facesParametric,8,59.8056812705,
./basicStim/09F_HA_O.jpg,,0,42,42,38,,,,,,,,,,,HAP,0.442,None,None,None,None,None,None,,,,,,,,,,,,,,,2015_Sep_26_1406,G,facesParametric,8,59.8056812705,
./basicStim/02F_NE_C.jpg,,0,43,43,13,,,,,,,,,,,None,None,None,None,None,None,NTR,0.942,,,,,,,,,,,,,,,2015_Sep_26_1406,G,facesParametric,8,59.8056812705,
./basicStim/24M_DI_O.jpg,,0,44,44,57,,,,,,,,,,,None,None,None,None,SUP,3.086,None,None,,,,,,,,,,,,,,,2015_Sep_26_1406,G,facesParametric,8,59.8056812705,
./basicStim/24M_NE_C.jpg,,0,45,45,62,,,,,,,,,,,None,None,None,None,None,None,NTR,1.513,,,,,,,,,,,,,,,2015_Sep_26_1406,G,facesParametric,8,59.8056812705,
./basicStim/02F_FE_O.jpg,,0,46,46,9,,,,,,,,,,,None,None,None,None,SUP,1.611,None,None,,,,,,,,,,,,,,,2015_Sep_26_1406,G,facesParametric,8,59.8056812705,
./basicStim/01F_HA_O.jpg,,0,47,47,3,,,,,,,,,,,HAP,1.228,None,None,None,None,None,None,,,,,,,,,,,,,,,2015_Sep_26_1406,G,facesParametric,8,59.8056812705,
./basicStim/28M_SA_C.jpg,,0,48,48,67,,,,,,,,,,,None,None,FEA,2.2,None,None,None,None,,,,,,,,,,,,,,,2015_Sep_26_1406,G,facesParametric,8,59.8056812705,
./basicStim/06F_SP_O.jpg,,0,49,49,26,,,,,,,,,,,None,None,None,None,SUP,1.8,None,None,,,,,,,,,,,,,,,2015_Sep_26_1406,G,facesParametric,8,59.8056812705,
./basicStim/21M_DI_O.jpg,,0,50,50,43,,,,,,,,,,,None,None,None,None,DIS,1.461,None,None,,,,,,,,,,,,,,,2015_Sep_26_1406,G,facesParametric,8,59.8056812705,
./basicStim/28M_SP_O.jpg,,0,51,51,68,,,,,,,,,,,None,None,None,None,SUP,3.105,None,None,,,,,,,,,,,,,,,2015_Sep_26_1406,G,facesParametric,8,59.8056812705,
./basicStim/03F_AN_O.jpg,,0,52,52,14,,,,,,,,,,,None,None,ANG,0.928,None,None,None,None,,,,,,,,,,,,,,,2015_Sep_26_1406,G,facesParametric,8,59.8056812705,
./basicStim/06F_NE_C.jpg,,0,53,53,27,,,,,,,,,,,None,None,None,None,None,None,NTR,1.26,,,,,,,,,,,,,,,2015_Sep_26_1406,G,facesParametric,8,59.8056812705,
./basicStim/36M_FE_O.jpg,,0,54,54,79,,,,,,,,,,,None,None,FEA,3.488,None,None,None,None,,,,,,,,,,,,,,,2015_Sep_26_1406,G,facesParametric,8,59.8056812705,
./basicStim/36M_SP_O.jpg,,0,55,55,82,,,,,,,,,,,None,None,None,None,SUP,1.56,None,None,,,,,,,,,,,,,,,2015_Sep_26_1406,G,facesParametric,8,59.8056812705,
./basicStim/03F_DI_O.jpg,,0,56,56,15,,,,,,,,,,,None,None,None,None,DIS,1.414,None,None,,,,,,,,,,,,,,,2015_Sep_26_1406,G,facesParametric,8,59.8056812705,
./basicStim/24M_HA_O.jpg,,0,57,57,59,,,,,,,,,,,HAP,0.775,None,None,None,None,None,None,,,,,,,,,,,,,,,2015_Sep_26_1406,G,facesParametric,8,59.8056812705,
./basicStim/07F_SP_O.jpg,,0,58,58,33,,,,,,,,,,,None,None,None,None,SUP,1.194,None,None,,,,,,,,,,,,,,,2015_Sep_26_1406,G,facesParametric,8,59.8056812705,
./basicStim/34M_NE_C.jpg,,0,59,59,76,,,,,,,,,,,None,None,None,None,None,None,NTR,0.722,,,,,,,,,,,,,,,2015_Sep_26_1406,G,facesParametric,8,59.8056812705,
./basicStim/34M_SA_C.jpg,,0,60,60,74,,,,,,,,,,,SAD,2.686,None,None,None,None,None,None,,,,,,,,,,,,,,,2015_Sep_26_1406,G,facesParametric,8,59.8056812705,
./basicStim/02F_SP_O.jpg,,0,61,61,12,,,,,,,,,,,None,None,None,None,SUP,1.096,None,None,,,,,,,,,,,,,,,2015_Sep_26_1406,G,facesParametric,8,59.8056812705,
./basicStim/09F_NE_C.jpg,,0,62,62,41,,,,,,,,,,,None,None,None,None,None,None,NTR,0.628,,,,,,,,,,,,,,,2015_Sep_26_1406,G,facesParametric,8,59.8056812705,
./basicStim/01F_AN_O.jpg,,0,63,63,0,,,,,,,,,,,None,None,ANG,0.859,None,None,None,None,,,,,,,,,,,,,,,2015_Sep_26_1406,G,facesParametric,8,59.8056812705,
./basicStim/07F_NE_C.jpg,,0,64,64,34,,,,,,,,,,,None,None,None,None,None,None,NTR,1.073,,,,,,,,,,,,,,,2015_Sep_26_1406,G,facesParametric,8,59.8056812705,
./basicStim/01F_SP_O.jpg,,0,65,65,5,,,,,,,,,,,None,None,None,None,SUP,0.738,None,None,,,,,,,,,,,,,,,2015_Sep_26_1406,G,facesParametric,8,59.8056812705,
./basicStim/21M_SP_O.jpg,,0,66,66,47,,,,,,,,,,,None,None,None,None,SUP,1.596,None,None,,,,,,,,,,,,,,,2015_Sep_26_1406,G,facesParametric,8,59.8056812705,
./basicStim/09F_SA_C.jpg,,0,67,67,39,,,,,,,,,,,SAD,1.034,None,None,None,None,None,None,,,,,,,,,,,,,,,2015_Sep_26_1406,G,facesParametric,8,59.8056812705,
./basicStim/07F_SA_C.jpg,,0,68,68,32,,,,,,,,,,,SAD,0.413,None,None,None,None,None,None,,,,,,,,,,,,,,,2015_Sep_26_1406,G,facesParametric,8,59.8056812705,
./basicStim/03F_HA_O.jpg,,0,69,69,17,,,,,,,,,,,HAP,0.896,None,None,None,None,None,None,,,,,,,,,,,,,,,2015_Sep_26_1406,G,facesParametric,8,59.8056812705,
./basicStim/36M_NE_C.jpg,,0,70,70,83,,,,,,,,,,,None,None,None,None,None,None,NTR,1.075,,,,,,,,,,,,,,,2015_Sep_26_1406,G,facesParametric,8,59.8056812705,
./basicStim/36M_SA_C.jpg,,0,71,71,81,,,,,,,,,,,SAD,1.413,None,None,None,None,None,None,,,,,,,,,,,,,,,2015_Sep_26_1406,G,facesParametric,8,59.8056812705,
./basicStim/01F_FE_O.jpg,,0,72,72,2,,,,,,,,,,,None,None,None,None,SUP,1.177,None,None,,,,,,,,,,,,,,,2015_Sep_26_1406,G,facesParametric,8,59.8056812705,
./basicStim/02F_AN_O.jpg,,0,73,73,7,,,,,,,,,,,None,None,ANG,0.807,None,None,None,None,,,,,,,,,,,,,,,2015_Sep_26_1406,G,facesParametric,8,59.8056812705,
./basicStim/34M_HA_O.jpg,,0,74,74,73,,,,,,,,,,,HAP,2.168,None,None,None,None,None,None,,,,,,,,,,,,,,,2015_Sep_26_1406,G,facesParametric,8,59.8056812705,
./basicStim/36M_AN_O.jpg,,0,75,75,77,,,,,,,,,,,None,None,ANG,2.487,None,None,None,None,,,,,,,,,,,,,,,2015_Sep_26_1406,G,facesParametric,8,59.8056812705,
./basicStim/28M_HA_O.jpg,,0,76,76,66,,,,,,,,,,,HAP,1.133,None,None,None,None,None,None,,,,,,,,,,,,,,,2015_Sep_26_1406,G,facesParametric,8,59.8056812705,
./basicStim/21M_AN_O.jpg,,0,77,77,42,,,,,,,,,,,None,None,ANG,1.261,None,None,None,None,,,,,,,,,,,,,,,2015_Sep_26_1406,G,facesParametric,8,59.8056812705,
./basicStim/09F_SP_O.jpg,,0,78,78,40,,,,,,,,,,,None,None,None,None,SUP,0.721,None,None,,,,,,,,,,,,,,,2015_Sep_26_1406,G,facesParametric,8,59.8056812705,
./basicStim/06F_DI_O.jpg,,0,79,79,22,,,,,,,,,,,None,None,None,None,DIS,1.927,None,None,,,,,,,,,,,,,,,2015_Sep_26_1406,G,facesParametric,8,59.8056812705,
./basicStim/03F_NE_C.jpg,,0,80,80,20,,,,,,,,,,,None,None,None,None,None,None,NTR,0.97,,,,,,,,,,,,,,,2015_Sep_26_1406,G,facesParametric,8,59.8056812705,
./basicStim/23M_SP_O.jpg,,0,81,81,54,,,,,,,,,,,None,None,None,None,SUP,1.677,None,None,,,,,,,,,,,,,,,2015_Sep_26_1406,G,facesParametric,8,59.8056812705,
./basicStim/24M_SP_O.jpg,,0,82,82,61,,,,,,,,,,,None,None,None,None,SUP,1.026,None,None,,,,,,,,,,,,,,,2015_Sep_26_1406,G,facesParametric,8,59.8056812705,
./basicStim/24M_FE_O.jpg,,0,83,83,58,,,,,,,,,,,None,None,None,None,DIS,2.616,None,None,,,,,,,,,,,,,,,2015_Sep_26_1406,G,facesParametric,8,59.8056812705,
,,,,,,,,,,,,,,,,,,,,,,,,return,12.4185848236,,,,,,,,,,,,,2015_Sep_26_1406,G,facesParametric,8,59.8056812705,
,,,,,,,,,,,,,,return,30.0664110184,,,,,,,,,,,,,,,,,,,,,,,2015_Sep_26_1406,G,facesParametric,8,59.8056812705,
,,,,,,,,,,,,,,,,,,,,,,,,return,14.6481010914,,,,,,,,,,,,,2015_Sep_26_1406,G,facesParametric,8,59.8056812705,
,,,,,,,,,,,,,,,,,,,,,,,,,,return,1.89369916916,,,,,,,,,,,2015_Sep_26_1406,G,facesParametric,8,59.8056812705,
./stim/MorphM5_06_orig.jpg,0,,,,,0,0,0,0,,,,,,,,,,,,,,,,,,,-13.974609375,-6.474609375,0,0,1,5.20268893242,,,,,2015_Sep_26_1406,G,facesParametric,8,59.8056812705,
./stim/MorphF7_00_orig.jpg,1,,,,,0,1,1,1,,,,,,,,,,,,,,,,,,,-13.974609375,-6.474609375,0,0,1,1.7590649128,,,,,2015_Sep_26_1406,G,facesParametric,8,59.8056812705,
./stim/MorphF5_03_orig.jpg,2,,,,,0,2,2,2,,,,,,,,,,,,,,,,,,,-13.974609375,-6.474609375,0,0,1,2.27739715576,,,,,2015_Sep_26_1406,G,facesParametric,8,59.8056812705,
./stim/MorphF2_08_orig.jpg,3,,,,,0,3,3,3,,,,,,,,,,,,,,,,,,,-13.974609375,-6.474609375,1,0,0,1.32251691818,,,,,2015_Sep_26_1406,G,facesParametric,8,59.8056812705,
./stim/MorphM10_07_orig.jpg,4,,,,,0,4,4,4,,,,,,,,,,,,,,,,,,,-13.974609375,-6.474609375,1,0,0,0.686114788055,,,,,2015_Sep_26_1406,G,facesParametric,8,59.8056812705,
./stim/MorphF9_08_orig.jpg,5,,,,,0,5,5,5,,,,,,,,,,,,,,,,,,,-13.974609375,-6.474609375,1,0,0,1.13826107979,,,,,2015_Sep_26_1406,G,facesParametric,8,59.8056812705,
./stim/MorphF3_04_orig.jpg,6,,,,,0,6,6,6,,,,,,,,,,,,,,,,,,,-13.974609375,-6.474609375,0,0,1,1.62272620201,,,,,2015_Sep_26_1406,G,facesParametric,8,59.8056812705,
./stim/MorphF1_01_orig.jpg,7,,,,,0,7,7,7,,,,,,,,,,,,,,,,,,,-13.974609375,-6.474609375,0,0,1,0.9874958992,,,,,2015_Sep_26_1406,G,facesParametric,8,59.8056812705,
./stim/MorphM5_08_orig.jpg,8,,,,,0,8,8,8,,,,,,,,,,,,,,,,,,,-13.974609375,-6.474609375,1,0,0,0.886850118637,,,,,2015_Sep_26_1406,G,facesParametric,8,59.8056812705,
./stim/MorphM4_04_orig.jpg,9,,,,,0,9,9,9,,,,,,,,,,,,,,,,,,,-13.974609375,-6.474609375,1,0,0,0.903739929199,,,,,2015_Sep_26_1406,G,facesParametric,8,59.8056812705,
./stim/MorphF6_01_orig.jpg,10,,,,,0,10,10,10,,,,,,,,,,,,,,,,,,,-13.9453125,-6.50390625,0,0,1,0.834692001343,,,,,2015_Sep_26_1406,G,facesParametric,8,59.8056812705,
./stim/MorphF2_06_orig.jpg,11,,,,,0,11,11,11,,,,,,,,,,,,,,,,,,,-13.9453125,-6.50390625,0,0,1,2.7803068161,,,,,2015_Sep_26_1406,G,facesParametric,8,59.8056812705,
./stim/MorphF6_08_orig.jpg,12,,,,,0,12,12,12,,,,,,,,,,,,,,,,,,,-13.857421875,-6.5625,1,0,0,2.36028504372,,,,,2015_Sep_26_1406,G,facesParametric,8,59.8056812705,
./stim/MorphF8_08_orig.jpg,13,,,,,0,13,13,13,,,,,,,,,,,,,,,,,,,-13.857421875,-6.5625,1,0,0,1.79211997986,,,,,2015_Sep_26_1406,G,facesParametric,8,59.8056812705,
./stim/MorphF4_03_orig.jpg,14,,,,,0,14,14,14,,,,,,,,,,,,,,,,,,,-13.857421875,-6.5625,0,0,1,0.786645174026,,,,,2015_Sep_26_1406,G,facesParametric,8,59.8056812705,
./stim/MorphF6_03_orig.jpg,15,,,,,0,15,15,15,,,,,,,,,,,,,,,,,,,-13.9453125,-6.62109375,0,0,1,0.85103392601,,,,,2015_Sep_26_1406,G,facesParametric,8,59.8056812705,
./stim/MorphF9_06_orig.jpg,16,,,,,0,16,16,16,,,,,,,,,,,,,,,,,,,-13.9453125,-6.62109375,0,0,1,1.87525391579,,,,,2015_Sep_26_1406,G,facesParametric,8,59.8056812705,
./stim/MorphF10_07_orig.jpg,17,,,,,0,17,17,17,,,,,,,,,,,,,,,,,,,-13.9453125,-6.62109375,1,0,0,0.717972040176,,,,,2015_Sep_26_1406,G,facesParametric,8,59.8056812705,
./stim/MorphM9_03_orig.jpg,18,,,,,0,18,18,18,,,,,,,,,,,,,,,,,,,-13.9453125,-6.62109375,0,0,1,1.02098011971,,,,,2015_Sep_26_1406,G,facesParametric,8,59.8056812705,
./stim/MorphF4_08_orig.jpg,19,,,,,0,19,19,19,,,,,,,,,,,,,,,,,,,-13.9453125,-6.62109375,1,0,0,0.938196897507,,,,,2015_Sep_26_1406,G,facesParametric,8,59.8056812705,
./stim/MorphF5_06_orig.jpg,20,,,,,0,20,20,20,,,,,,,,,,,,,,,,,,,-13.9453125,-6.62109375,1,0,0,0.936058998108,,,,,2015_Sep_26_1406,G,facesParametric,8,59.8056812705,
./stim/MorphM7_01_orig.jpg,21,,,,,0,21,21,21,,,,,,,,,,,,,,,,,,,-13.9453125,-6.62109375,0,0,1,2.51093196869,,,,,2015_Sep_26_1406,G,facesParametric,8,59.8056812705,
./stim/MorphF3_03_orig.jpg,22,,,,,0,22,22,22,,,,,,,,,,,,,,,,,,,-13.9453125,-6.62109375,0,0,1,1.33889913559,,,,,2015_Sep_26_1406,G,facesParametric,8,59.8056812705,
./stim/MorphM3_05_orig.jpg,23,,,,,0,23,23,23,,,,,,,,,,,,,,,,,,,-13.9453125,-6.62109375,1,0,0,1.1053621769,,,,,2015_Sep_26_1406,G,facesParametric,8,59.8056812705,
./stim/MorphM4_01_orig.jpg,24,,,,,0,24,24,24,,,,,,,,,,,,,,,,,,,-13.9453125,-6.62109375,0,0,1,2.44568896294,,,,,2015_Sep_26_1406,G,facesParametric,8,59.8056812705,
./stim/MorphF6_02_orig.jpg,25,,,,,0,25,25,25,,,,,,,,,,,,,,,,,,,-13.9453125,-6.62109375,0,0,1,0.818264961243,,,,,2015_Sep_26_1406,G,facesParametric,8,59.8056812705,
./stim/MorphF7_03_orig.jpg,26,,,,,0,26,26,26,,,,,,,,,,,,,,,,,,,-13.9453125,-6.62109375,0,0,1,2.6635351181,,,,,2015_Sep_26_1406,G,facesParametric,8,59.8056812705,
./stim/MorphF2_02_orig.jpg,27,,,,,0,27,27,27,,,,,,,,,,,,,,,,,,,-13.9453125,-6.62109375,0,0,1,0.903618812561,,,,,2015_Sep_26_1406,G,facesParametric,8,59.8056812705,
./stim/MorphM9_00_orig.jpg,28,,,,,0,28,28,28,,,,,,,,,,,,,,,,,,,-13.9453125,-6.62109375,0,0,1,0.820285081863,,,,,2015_Sep_26_1406,G,facesParametric,8,59.8056812705,
./stim/MorphF7_05_orig.jpg,29,,,,,0,29,29,29,,,,,,,,,,,,,,,,,,,-13.9453125,-6.62109375,1,0,0,1.15514016151,,,,,2015_Sep_26_1406,G,facesParametric,8,59.8056812705,
./stim/MorphF8_10_orig.jpg,30,,,,,0,30,30,30,,,,,,,,,,,,,,,,,,,-13.9453125,-6.62109375,1,0,0,0.836642980576,,,,,2015_Sep_26_1406,G,facesParametric,8,59.8056812705,
./stim/MorphM6_08_orig.jpg,31,,,,,0,31,31,31,,,,,,,,,,,,,,,,,,,-13.9453125,-6.62109375,1,0,0,0.870333909988,,,,,2015_Sep_26_1406,G,facesParametric,8,59.8056812705,
./stim/MorphM1_09_orig.jpg,32,,,,,0,32,32,32,,,,,,,,,,,,,,,,,,,-13.9453125,-6.62109375,1,0,0,1.07098507881,,,,,2015_Sep_26_1406,G,facesParametric,8,59.8056812705,
./stim/MorphF9_01_orig.jpg,33,,,,,0,33,33,33,,,,,,,,,,,,,,,,,,,-13.9453125,-6.62109375,0,0,1,1.52412581444,,,,,2015_Sep_26_1406,G,facesParametric,8,59.8056812705,
./stim/MorphM1_03_orig.jpg,34,,,,,0,34,34,34,,,,,,,,,,,,,,,,,,,-13.9453125,-6.62109375,0,0,1,1.35492086411,,,,,2015_Sep_26_1406,G,facesParametric,8,59.8056812705,
./stim/MorphM8_07_orig.jpg,35,,,,,0,35,35,35,,,,,,,,,,,,,,,,,,,-13.9453125,-6.62109375,1,0,0,1.40670800209,,,,,2015_Sep_26_1406,G,facesParametric,8,59.8056812705,
./stim/MorphF8_03_orig.jpg,36,,,,,0,36,36,36,,,,,,,,,,,,,,,,,,,-13.9453125,-6.62109375,0,0,1,1.15603208542,,,,,2015_Sep_26_1406,G,facesParametric,8,59.8056812705,
./stim/MorphM6_10_orig.jpg,37,,,,,0,37,37,37,,,,,,,,,,,,,,,,,,,-13.9453125,-6.62109375,0,0,1,1.92540788651,,,,,2015_Sep_26_1406,G,facesParametric,8,59.8056812705,
./stim/MorphM4_07_orig.jpg,38,,,,,0,38,38,38,,,,,,,,,,,,,,,,,,,-13.9453125,-6.62109375,1,0,0,0.903833866119,,,,,2015_Sep_26_1406,G,facesParametric,8,59.8056812705,
./stim/MorphF3_09_orig.jpg,39,,,,,0,39,39,39,,,,,,,,,,,,,,,,,,,-13.9453125,-6.62109375,1,0,0,1.32256007195,,,,,2015_Sep_26_1406,G,facesParametric,8,59.8056812705,
./stim/MorphM10_04_orig.jpg,40,,,,,0,40,40,40,,,,,,,,,,,,,,,,,,,-13.9453125,-6.62109375,1,0,0,0.970778942108,,,,,2015_Sep_26_1406,G,facesParametric,8,59.8056812705,
./stim/MorphM7_07_orig.jpg,41,,,,,0,41,41,41,,,,,,,,,,,,,,,,,,,-13.9453125,-6.62109375,1,0,0,1.02106499672,,,,,2015_Sep_26_1406,G,facesParametric,8,59.8056812705,
./stim/MorphM8_00_orig.jpg,42,,,,,0,42,42,42,,,,,,,,,,,,,,,,,,,-13.9453125,-6.62109375,0,0,1,1.3542098999,,,,,2015_Sep_26_1406,G,facesParametric,8,59.8056812705,
./stim/MorphF9_05_orig.jpg,43,,,,,0,43,43,43,,,,,,,,,,,,,,,,,,,-13.9453125,-6.62109375,0,0,1,0.80317902565,,,,,2015_Sep_26_1406,G,facesParametric,8,59.8056812705,
./stim/MorphM2_04_orig.jpg,44,,,,,0,44,44,44,,,,,,,,,,,,,,,,,,,-13.9453125,-6.62109375,0,0,1,1.17199587822,,,,,2015_Sep_26_1406,G,facesParametric,8,59.8056812705,
./stim/MorphF5_01_orig.jpg,45,,,,,0,45,45,45,,,,,,,,,,,,,,,,,,,-13.9453125,-6.62109375,0,0,1,1.10429096222,,,,,2015_Sep_26_1406,G,facesParametric,8,59.8056812705,
./stim/MorphF1_03_orig.jpg,46,,,,,0,46,46,46,,,,,,,,,,,,,,,,,,,-13.9453125,-6.62109375,0,0,1,0.668736934662,,,,,2015_Sep_26_1406,G,facesParametric,8,59.8056812705,
./stim/MorphM9_08_orig.jpg,47,,,,,0,47,47,47,,,,,,,,,,,,,,,,,,,-13.9453125,-6.62109375,1,0,0,0.951726198196,,,,,2015_Sep_26_1406,G,facesParametric,8,59.8056812705,
./stim/MorphM4_08_orig.jpg,48,,,,,0,48,48,48,,,,,,,,,,,,,,,,,,,-13.9453125,-6.62109375,1,0,0,2.26056909561,,,,,2015_Sep_26_1406,G,facesParametric,8,59.8056812705,
./stim/MorphM8_08_orig.jpg,49,,,,,0,49,49,49,,,,,,,,,,,,,,,,,,,-13.9453125,-6.62109375,1,0,0,0.936784029007,,,,,2015_Sep_26_1406,G,facesParametric,8,59.8056812705,
./stim/MorphF10_03_orig.jpg,50,,,,,0,50,50,50,,,,,,,,,,,,,,,,,,,-13.9453125,-6.62109375,1,0,0,0.98758482933,,,,,2015_Sep_26_1406,G,facesParametric,8,59.8056812705,
./stim/MorphM5_07_orig.jpg,51,,,,,0,51,51,51,,,,,,,,,,,,,,,,,,,-13.9453125,-6.62109375,1,0,0,1.10468220711,,,,,2015_Sep_26_1406,G,facesParametric,8,59.8056812705,
./stim/MorphM4_05_orig.jpg,52,,,,,0,52,52,52,,,,,,,,,,,,,,,,,,,-13.9453125,-6.62109375,1,0,0,0.970311880112,,,,,2015_Sep_26_1406,G,facesParametric,8,59.8056812705,
./stim/MorphM2_05_orig.jpg,53,,,,,0,53,53,53,,,,,,,,,,,,,,,,,,,-13.9453125,-6.62109375,1,0,0,3.08175516129,,,,,2015_Sep_26_1406,G,facesParametric,8,59.8056812705,
./stim/MorphM5_02_orig.jpg,54,,,,,0,54,54,54,,,,,,,,,,,,,,,,,,,-13.9453125,-6.62109375,0,0,1,1.33784604073,,,,,2015_Sep_26_1406,G,facesParametric,8,59.8056812705,
./stim/MorphM6_00_orig.jpg,55,,,,,0,55,55,55,,,,,,,,,,,,,,,,,,,-13.9453125,-6.62109375,0,0,1,1.05230402946,,,,,2015_Sep_26_1406,G,facesParametric,8,59.8056812705,
./stim/MorphM3_07_orig.jpg,56,,,,,0,56,56,56,,,,,,,,,,,,,,,,,,,-13.9453125,-6.62109375,1,0,0,3.92026495934,,,,,2015_Sep_26_1406,G,facesParametric,8,59.8056812705,
./stim/MorphF3_05_orig.jpg,57,,,,,0,57,57,57,,,,,,,,,,,,,,,,,,,-13.9453125,-6.62109375,0,0,1,2.54544305801,,,,,2015_Sep_26_1406,G,facesParametric,8,59.8056812705,
./stim/MorphM3_06_orig.jpg,58,,,,,0,58,58,58,,,,,,,,,,,,,,,,,,,-13.9453125,-6.62109375,1,0,0,2.21158289909,,,,,2015_Sep_26_1406,G,facesParametric,8,59.8056812705,
./stim/MorphF10_06_orig.jpg,59,,,,,0,59,59,59,,,,,,,,,,,,,,,,,,,-13.9453125,-6.62109375,1,0,0,0.96967792511,,,,,2015_Sep_26_1406,G,facesParametric,8,59.8056812705,
./stim/MorphF1_10_orig.jpg,60,,,,,0,60,60,60,,,,,,,,,,,,,,,,,,,-13.9453125,-6.62109375,1,0,0,0.836900949478,,,,,2015_Sep_26_1406,G,facesParametric,8,59.8056812705,
./stim/MorphM4_09_orig.jpg,61,,,,,0,61,61,61,,,,,,,,,,,,,,,,,,,-13.9453125,-6.62109375,1,0,0,0.600598096848,,,,,2015_Sep_26_1406,G,facesParametric,8,59.8056812705,
./stim/MorphF5_07_orig.jpg,62,,,,,0,62,62,62,,,,,,,,,,,,,,,,,,,-13.9453125,-6.62109375,1,0,0,0.719575166702,,,,,2015_Sep_26_1406,G,facesParametric,8,59.8056812705,
./stim/MorphM10_02_orig.jpg,63,,,,,0,63,63,63,,,,,,,,,,,,,,,,,,,-13.916015625,-6.6796875,0,0,1,1.63941693306,,,,,2015_Sep_26_1406,G,facesParametric,8,59.8056812705,
./stim/MorphF1_02_orig.jpg,64,,,,,0,64,64,64,,,,,,,,,,,,,,,,,,,-13.916015625,-6.6796875,0,0,1,0.937195062637,,,,,2015_Sep_26_1406,G,facesParametric,8,59.8056812705,
./stim/MorphM9_02_orig.jpg,65,,,,,0,65,65,65,,,,,,,,,,,,,,,,,,,-13.88671875,-6.6796875,0,0,1,3.28391385078,,,,,2015_Sep_26_1406,G,facesParametric,8,59.8056812705,
./stim/MorphF4_01_orig.jpg,66,,,,,0,66,66,66,,,,,,,,,,,,,,,,,,,-13.857421875,-6.6796875,0,0,1,1.0376701355,,,,,2015_Sep_26_1406,G,facesParametric,8,59.8056812705,
./stim/MorphM6_03_orig.jpg,67,,,,,0,67,67,67,,,,,,,,,,,,,,,,,,,-13.857421875,-6.85546875,0,0,1,0.903810977936,,,,,2015_Sep_26_1406,G,facesParametric,8,59.8056812705,
./stim/MorphM4_06_orig.jpg,68,,,,,0,68,68,68,,,,,,,,,,,,,,,,,,,-13.88671875,-6.943359375,1,0,0,1.02105498314,,,,,2015_Sep_26_1406,G,facesParametric,8,59.8056812705,
./stim/MorphF6_05_orig.jpg,69,,,,,0,69,69,69,,,,,,,,,,,,,,,,,,,-13.88671875,-6.943359375,0,0,1,2.94740700722,,,,,2015_Sep_26_1406,G,facesParametric,8,59.8056812705,
./stim/MorphF5_04_orig.jpg,70,,,,,0,70,70,70,,,,,,,,,,,,,,,,,,,-13.88671875,-6.943359375,1,0,0,3.60166716576,,,,,2015_Sep_26_1406,G,facesParametric,8,59.8056812705,
./stim/MorphM3_10_orig.jpg,71,,,,,0,71,71,71,,,,,,,,,,,,,,,,,,,-13.88671875,-6.943359375,1,0,0,0.668842077255,,,,,2015_Sep_26_1406,G,facesParametric,8,59.8056812705,
./stim/MorphF10_04_orig.jpg,72,,,,,0,72,72,72,,,,,,,,,,,,,,,,,,,-13.88671875,-6.943359375,1,0,0,0.936928033829,,,,,2015_Sep_26_1406,G,facesParametric,8,59.8056812705,
./stim/MorphF6_00_orig.jpg,73,,,,,0,73,73,73,,,,,,,,,,,,,,,,,,,-13.88671875,-6.943359375,0,0,1,1.05471801758,,,,,2015_Sep_26_1406,G,facesParametric,8,59.8056812705,
./stim/MorphM8_04_orig.jpg,74,,,,,0,74,74,74,,,,,,,,,,,,,,,,,,,-13.88671875,-6.943359375,1,0,0,4.62471079826,,,,,2015_Sep_26_1406,G,facesParametric,8,59.8056812705,
./stim/MorphF1_09_orig.jpg,75,,,,,0,75,75,75,,,,,,,,,,,,,,,,,,,-13.857421875,-7.08984375,1,0,0,2.47818613052,,,,,2015_Sep_26_1406,G,facesParametric,8,59.8056812705,
./stim/MorphM7_09_orig.jpg,76,,,,,0,76,76,76,,,,,,,,,,,,,,,,,,,-13.857421875,-7.08984375,1,0,0,0.684041023254,,,,,2015_Sep_26_1406,G,facesParametric,8,59.8056812705,
./stim/MorphM8_10_orig.jpg,77,,,,,0,77,77,77,,,,,,,,,,,,,,,,,,,-13.857421875,-7.08984375,1,0,0,1.15420794487,,,,,2015_Sep_26_1406,G,facesParametric,8,59.8056812705,
./stim/MorphF5_09_orig.jpg,78,,,,,0,78,78,78,,,,,,,,,,,,,,,,,,,-13.857421875,-7.08984375,1,0,0,0.786087036133,,,,,2015_Sep_26_1406,G,facesParametric,8,59.8056812705,
./stim/MorphM5_05_orig.jpg,79,,,,,0,79,79,79,,,,,,,,,,,,,,,,,,,-13.828125,-7.119140625,1,0,0,1.37259411812,,,,,2015_Sep_26_1406,G,facesParametric,8,59.8056812705,
./stim/MorphM10_01_orig.jpg,80,,,,,0,80,80,80,,,,,,,,,,,,,,,,,,,-13.7109375,-7.03125,0,0,1,2.04345417023,,,,,2015_Sep_26_1406,G,facesParametric,8,59.8056812705,
./stim/MorphF1_04_orig.jpg,81,,,,,0,81,81,81,,,,,,,,,,,,,,,,,,,-13.7109375,-7.03125,0,0,1,0.987282991409,,,,,2015_Sep_26_1406,G,facesParametric,8,59.8056812705,
./stim/MorphM7_05_orig.jpg,82,,,,,0,82,82,82,,,,,,,,,,,,,,,,,,,-13.7109375,-7.03125,1,0,0,0.803462982178,,,,,2015_Sep_26_1406,G,facesParametric,8,59.8056812705,
./stim/MorphM9_04_orig.jpg,83,,,,,0,83,83,83,,,,,,,,,,,,,,,,,,,-13.7109375,-7.03125,0,0,1,1.52306103706,,,,,2015_Sep_26_1406,G,facesParametric,8,59.8056812705,
./stim/MorphM6_06_orig.jpg,84,,,,,0,84,84,84,,,,,,,,,,,,,,,,,,,-13.7109375,-7.03125,0,0,1,3.76938700676,,,,,2015_Sep_26_1406,G,facesParametric,8,59.8056812705,
./stim/MorphM9_09_orig.jpg,85,,,,,0,85,85,85,,,,,,,,,,,,,,,,,,,-13.7109375,-7.03125,1,0,0,0.970022916794,,,,,2015_Sep_26_1406,G,facesParametric,8,59.8056812705,
./stim/MorphF5_05_orig.jpg,86,,,,,0,86,86,86,,,,,,,,,,,,,,,,,,,-13.740234375,-7.060546875,1,0,0,0.969556093216,,,,,2015_Sep_26_1406,G,facesParametric,8,59.8056812705,
./stim/MorphF8_01_orig.jpg,87,,,,,0,87,87,87,,,,,,,,,,,,,,,,,,,-13.7109375,-7.08984375,0,0,1,3.38321590424,,,,,2015_Sep_26_1406,G,facesParametric,8,59.8056812705,
./stim/MorphM3_03_orig.jpg,88,,,,,0,88,88,88,,,,,,,,,,,,,,,,,,,-13.681640625,-7.119140625,0,0,1,4.38901996613,,,,,2015_Sep_26_1406,G,facesParametric,8,59.8056812705,
./stim/MorphF4_06_orig.jpg,89,,,,,0,89,89,89,,,,,,,,,,,,,,,,,,,-13.681640625,-7.119140625,1,0,0,0.750914812088,,,,,2015_Sep_26_1406,G,facesParametric,8,59.8056812705,
./stim/MorphF6_07_orig.jpg,90,,,,,0,90,90,90,,,,,,,,,,,,,,,,,,,-13.681640625,-7.119140625,1,0,0,0.669029951096,,,,,2015_Sep_26_1406,G,facesParametric,8,59.8056812705,
./stim/MorphF7_07_orig.jpg,91,,,,,0,91,91,91,,,,,,,,,,,,,,,,,,,-13.681640625,-7.119140625,1,0,0,0.870186805725,,,,,2015_Sep_26_1406,G,facesParametric,8,59.8056812705,
./stim/MorphF8_07_orig.jpg,92,,,,,0,92,92,92,,,,,,,,,,,,,,,,,,,-13.681640625,-7.119140625,1,0,0,0.918638944626,,,,,2015_Sep_26_1406,G,facesParametric,8,59.8056812705,
./stim/MorphM9_01_orig.jpg,93,,,,,0,93,93,93,,,,,,,,,,,,,,,,,,,-13.65234375,-7.20703125,0,0,1,0.987817049026,,,,,2015_Sep_26_1406,G,facesParametric,8,59.8056812705,
./stim/MorphF1_08_orig.jpg,94,,,,,0,94,94,94,,,,,,,,,,,,,,,,,,,-13.65234375,-7.20703125,1,0,0,0.953486919403,,,,,2015_Sep_26_1406,G,facesParametric,8,59.8056812705,
./stim/MorphF4_04_orig.jpg,95,,,,,0,95,95,95,,,,,,,,,,,,,,,,,,,-13.65234375,-7.20703125,0,0,1,1.90921998024,,,,,2015_Sep_26_1406,G,facesParametric,8,59.8056812705,
./stim/MorphM6_02_orig.jpg,96,,,,,0,96,96,96,,,,,,,,,,,,,,,,,,,-13.65234375,-7.20703125,0,0,1,0.769958972931,,,,,2015_Sep_26_1406,G,facesParametric,8,59.8056812705,
./stim/MorphM5_10_orig.jpg,97,,,,,0,97,97,97,,,,,,,,,,,,,,,,,,,-13.65234375,-7.20703125,1,0,0,0.784693956375,,,,,2015_Sep_26_1406,G,facesParametric,8,59.8056812705,
./stim/MorphF3_06_orig.jpg,98,,,,,0,98,98,98,,,,,,,,,,,,,,,,,,,-13.212890625,-7.294921875,0,0,1,5.04304909706,,,,,2015_Sep_26_1406,G,facesParametric,8,59.8056812705,
./stim/MorphF10_01_orig.jpg,99,,,,,0,99,99,99,,,,,,,,,,,,,,,,,,,-13.212890625,-7.294921875,1,0,0,1.82384514809,,,,,2015_Sep_26_1406,G,facesParametric,8,59.8056812705,
./stim/MorphM4_02_orig.jpg,100,,,,,0,100,100,100,,,,,,,,,,,,,,,,,,,-13.212890625,-7.294921875,0,0,1,1.22233891487,,,,,2015_Sep_26_1406,G,facesParametric,8,59.8056812705,
./stim/MorphM1_07_orig.jpg,101,,,,,0,101,101,101,,,,,,,,,,,,,,,,,,,-13.212890625,-7.32421875,1,0,0,0.903799057007,,,,,2015_Sep_26_1406,G,facesParametric,8,59.8056812705,
./stim/MorphM4_00_orig.jpg,102,,,,,0,102,102,102,,,,,,,,,,,,,,,,,,,-13.18359375,-7.353515625,0,0,1,1.33905792236,,,,,2015_Sep_26_1406,G,facesParametric,8,59.8056812705,
./stim/MorphF6_09_orig.jpg,103,,,,,0,103,103,103,,,,,,,,,,,,,,,,,,,-13.18359375,-7.353515625,1,0,0,0.852080106735,,,,,2015_Sep_26_1406,G,facesParametric,8,59.8056812705,
./stim/MorphM7_08_orig.jpg,104,,,,,0,104,104,104,,,,,,,,,,,,,,,,,,,-13.18359375,-7.353515625,1,0,0,2.31043720245,,,,,2015_Sep_26_1406,G,facesParametric,8,59.8056812705,
./stim/MorphF3_02_orig.jpg,105,,,,,0,105,105,105,,,,,,,,,,,,,,,,,,,-13.18359375,-7.353515625,0,0,1,1.05329799652,,,,,2015_Sep_26_1406,G,facesParametric,8,59.8056812705,
./stim/MorphM2_06_orig.jpg,106,,,,,0,106,106,106,,,,,,,,,,,,,,,,,,,-13.18359375,-7.353515625,1,0,0,2.64565896988,,,,,2015_Sep_26_1406,G,facesParametric,8,59.8056812705,
./stim/MorphF6_04_orig.jpg,107,,,,,0,107,107,107,,,,,,,,,,,,,,,,,,,-13.212890625,-7.3828125,0,0,1,0.935980081558,,,,,2015_Sep_26_1406,G,facesParametric,8,59.8056812705,
./stim/MorphF7_04_orig.jpg,108,,,,,0,108,108,108,,,,,,,,,,,,,,,,,,,-13.212890625,-7.3828125,1,0,0,1.25590610504,,,,,2015_Sep_26_1406,G,facesParametric,8,59.8056812705,
./stim/MorphM1_02_orig.jpg,109,,,,,0,109,109,109,,,,,,,,,,,,,,,,,,,-13.212890625,-7.3828125,0,0,1,1.59093785286,,,,,2015_Sep_26_1406,G,facesParametric,8,59.8056812705,
./stim/MorphM5_03_orig.jpg,110,,,,,0,110,110,110,,,,,,,,,,,,,,,,,,,-13.212890625,-7.3828125,0,0,1,1.2551150322,,,,,2015_Sep_26_1406,G,facesParametric,8,59.8056812705,
./stim/MorphF6_10_orig.jpg,111,,,,,0,111,111,111,,,,,,,,,,,,,,,,,,,-13.212890625,-7.3828125,1,0,0,1.65596604347,,,,,2015_Sep_26_1406,G,facesParametric,8,59.8056812705,
./stim/MorphF2_01_orig.jpg,112,,,,,0,112,112,112,,,,,,,,,,,,,,,,,,,-13.212890625,-7.3828125,0,0,1,2.04251003265,,,,,2015_Sep_26_1406,G,facesParametric,8,59.8056812705,
./stim/MorphM6_09_orig.jpg,113,,,,,0,113,113,113,,,,,,,,,,,,,,,,,,,-13.212890625,-7.3828125,1,0,0,1.15295577049,,,,,2015_Sep_26_1406,G,facesParametric,8,59.8056812705,
./stim/MorphF7_08_orig.jpg,114,,,,,0,114,114,114,,,,,,,,,,,,,,,,,,,-13.212890625,-7.3828125,1,0,0,0.819761037827,,,,,2015_Sep_26_1406,G,facesParametric,8,59.8056812705,
./stim/MorphF1_07_orig.jpg,115,,,,,0,115,115,115,,,,,,,,,,,,,,,,,,,-13.18359375,-7.412109375,1,0,0,1.6917719841,,,,,2015_Sep_26_1406,G,facesParametric,8,59.8056812705,
./stim/MorphM5_09_orig.jpg,116,,,,,0,116,116,116,,,,,,,,,,,,,,,,,,,-13.18359375,-7.412109375,1,0,0,1.28939414024,,,,,2015_Sep_26_1406,G,facesParametric,8,59.8056812705,
./stim/MorphF9_02_orig.jpg,117,,,,,0,117,117,117,,,,,,,,,,,,,,,,,,,-13.18359375,-7.412109375,0,0,1,1.20552301407,,,,,2015_Sep_26_1406,G,facesParametric,8,59.8056812705,
./stim/MorphM9_10_orig.jpg,118,,,,,0,118,118,118,,,,,,,,,,,,,,,,,,,-13.18359375,-7.412109375,1,0,0,1.13747286797,,,,,2015_Sep_26_1406,G,facesParametric,8,59.8056812705,
./stim/MorphF8_09_orig.jpg,119,,,,,0,119,119,119,,,,,,,,,,,,,,,,,,,-13.18359375,-7.412109375,1,0,0,0.835720062256,,,,,2015_Sep_26_1406,G,facesParametric,8,59.8056812705,
./stim/MorphM10_09_orig.jpg,120,,,,,0,120,120,120,,,,,,,,,,,,,,,,,,,-13.18359375,-7.412109375,1,0,0,0.803339958191,,,,,2015_Sep_26_1406,G,facesParametric,8,59.8056812705,
./stim/MorphM3_09_orig.jpg,121,,,,,0,121,121,121,,,,,,,,,,,,,,,,,,,-13.18359375,-7.412109375,1,0,0,0.920562982559,,,,,2015_Sep_26_1406,G,facesParametric,8,59.8056812705,
./stim/MorphM10_06_orig.jpg,122,,,,,0,122,122,122,,,,,,,,,,,,,,,,,,,-13.18359375,-7.412109375,1,0,0,0.96927189827,,,,,2015_Sep_26_1406,G,facesParametric,8,59.8056812705,
./stim/MorphM8_02_orig.jpg,123,,,,,0,123,123,123,,,,,,,,,,,,,,,,,,,-13.154296875,-7.44140625,0,0,1,0.935378074646,,,,,2015_Sep_26_1406,G,facesParametric,8,59.8056812705,
./stim/MorphF10_08_orig.jpg,124,,,,,0,124,124,124,,,,,,,,,,,,,,,,,,,-13.154296875,-7.44140625,1,0,0,0.954210996628,,,,,2015_Sep_26_1406,G,facesParametric,8,59.8056812705,
./stim/MorphM2_08_orig.jpg,125,,,,,0,125,125,125,,,,,,,,,,,,,,,,,,,-13.154296875,-7.44140625,1,0,0,1.23903393745,,,,,2015_Sep_26_1406,G,facesParametric,8,59.8056812705,
./stim/MorphF3_10_orig.jpg,126,,,,,0,126,126,126,,,,,,,,,,,,,,,,,,,-13.154296875,-7.44140625,1,0,0,1.13803696632,,,,,2015_Sep_26_1406,G,facesParametric,8,59.8056812705,
./stim/MorphF4_10_orig.jpg,127,,,,,0,127,127,127,,,,,,,,,,,,,,,,,,,-13.154296875,-7.44140625,1,0,0,0.903141021729,,,,,2015_Sep_26_1406,G,facesParametric,8,59.8056812705,
./stim/MorphM7_00_orig.jpg,128,,,,,0,128,128,128,,,,,,,,,,,,,,,,,,,-13.154296875,-7.44140625,0,0,1,1.12222313881,,,,,2015_Sep_26_1406,G,facesParametric,8,59.8056812705,
./stim/MorphF9_04_orig.jpg,129,,,,,0,129,129,129,,,,,,,,,,,,,,,,,,,-13.18359375,-7.470703125,0,0,1,2.66309094429,,,,,2015_Sep_26_1406,G,facesParametric,8,59.8056812705,
./stim/MorphF3_00_orig.jpg,130,,,,,0,130,130,130,,,,,,,,,,,,,,,,,,,-13.18359375,-7.470703125,0,0,1,1.44016695023,,,,,2015_Sep_26_1406,G,facesParametric,8,59.8056812705,
./stim/MorphF6_06_orig.jpg,131,,,,,0,131,131,131,,,,,,,,,,,,,,,,,,,-13.18359375,-7.470703125,1,0,0,1.07086896896,,,,,2015_Sep_26_1406,G,facesParametric,8,59.8056812705,
./stim/MorphF9_09_orig.jpg,132,,,,,0,132,132,132,,,,,,,,,,,,,,,,,,,-13.18359375,-7.470703125,1,0,0,0.902055978775,,,,,2015_Sep_26_1406,G,facesParametric,8,59.8056812705,
./stim/MorphM1_01_orig.jpg,133,,,,,0,133,133,133,,,,,,,,,,,,,,,,,,,-13.18359375,-7.470703125,0,0,1,2.76437902451,,,,,2015_Sep_26_1406,G,facesParametric,8,59.8056812705,
./stim/MorphF1_05_orig.jpg,134,,,,,0,134,134,134,,,,,,,,,,,,,,,,,,,-13.18359375,-7.470703125,1,0,0,4.67481589317,,,,,2015_Sep_26_1406,G,facesParametric,8,59.8056812705,
./stim/MorphM4_10_orig.jpg,135,,,,,0,135,135,135,,,,,,,,,,,,,,,,,,,-13.18359375,-7.470703125,1,0,0,0.903752088547,,,,,2015_Sep_26_1406,G,facesParametric,8,59.8056812705,
./stim/MorphF10_10_orig.jpg,136,,,,,0,136,136,136,,,,,,,,,,,,,,,,,,,-13.18359375,-7.470703125,1,0,0,0.668205976486,,,,,2015_Sep_26_1406,G,facesParametric,8,59.8056812705,
./stim/MorphM1_05_orig.jpg,137,,,,,0,137,137,137,,,,,,,,,,,,,,,,,,,-13.18359375,-7.470703125,1,0,0,1.87533688545,,,,,2015_Sep_26_1406,G,facesParametric,8,59.8056812705,
./stim/MorphM2_02_orig.jpg,138,,,,,0,138,138,138,,,,,,,,,,,,,,,,,,,-13.18359375,-7.470703125,0,0,1,2.06035995483,,,,,2015_Sep_26_1406,G,facesParametric,8,59.8056812705,
./stim/MorphF2_03_orig.jpg,139,,,,,0,139,139,139,,,,,,,,,,,,,,,,,,,-13.18359375,-7.470703125,0,0,1,0.985919952393,,,,,2015_Sep_26_1406,G,facesParametric,8,59.8056812705,
./stim/MorphM2_10_orig.jpg,140,,,,,0,140,140,140,,,,,,,,,,,,,,,,,,,-13.18359375,-7.470703125,1,0,0,1.00368785858,,,,,2015_Sep_26_1406,G,facesParametric,8,59.8056812705,
./stim/MorphM1_06_orig.jpg,141,,,,,0,141,141,141,,,,,,,,,,,,,,,,,,,-13.18359375,-7.470703125,1,0,0,2.2447052002,,,,,2015_Sep_26_1406,G,facesParametric,8,59.8056812705,
./stim/MorphM3_04_orig.jpg,142,,,,,0,142,142,142,,,,,,,,,,,,,,,,,,,-13.18359375,-7.470703125,1,0,0,1.85695385933,,,,,2015_Sep_26_1406,G,facesParametric,8,59.8056812705,
./stim/MorphM1_04_orig.jpg,143,,,,,0,143,143,143,,,,,,,,,,,,,,,,,,,-13.18359375,-7.470703125,1,0,0,2.12753415108,,,,,2015_Sep_26_1406,G,facesParametric,8,59.8056812705,
./stim/MorphF1_00_orig.jpg,144,,,,,0,144,144,144,,,,,,,,,,,,,,,,,,,-13.154296875,-7.5,0,0,1,1.49068284035,,,,,2015_Sep_26_1406,G,facesParametric,8,59.8056812705,
./stim/MorphF2_00_orig.jpg,145,,,,,0,145,145,145,,,,,,,,,,,,,,,,,,,-13.154296875,-7.5,0,0,1,1.62379407883,,,,,2015_Sep_26_1406,G,facesParametric,8,59.8056812705,
./stim/MorphM9_06_orig.jpg,146,,,,,0,146,146,146,,,,,,,,,,,,,,,,,,,-13.154296875,-7.5,1,0,0,1.47370100021,,,,,2015_Sep_26_1406,G,facesParametric,8,59.8056812705,
./stim/MorphM2_01_orig.jpg,147,,,,,0,147,147,147,,,,,,,,,,,,,,,,,,,-13.154296875,-7.5,0,0,1,1.07146596909,,,,,2015_Sep_26_1406,G,facesParametric,8,59.8056812705,
./stim/MorphF10_02_orig.jpg,148,,,,,0,148,148,148,,,,,,,,,,,,,,,,,,,-13.154296875,-7.5,1,0,0,1.69131112099,,,,,2015_Sep_26_1406,G,facesParametric,8,59.8056812705,
./stim/MorphF7_01_orig.jpg,149,,,,,0,149,149,149,,,,,,,,,,,,,,,,,,,-13.154296875,-7.5,0,0,1,2.19349908829,,,,,2015_Sep_26_1406,G,facesParametric,8,59.8056812705,
./stim/MorphF5_10_orig.jpg,150,,,,,0,150,150,150,,,,,,,,,,,,,,,,,,,-13.125,-7.529296875,1,0,0,0.970968008041,,,,,2015_Sep_26_1406,G,facesParametric,8,59.8056812705,
./stim/MorphM2_00_orig.jpg,151,,,,,0,151,151,151,,,,,,,,,,,,,,,,,,,-13.125,-7.529296875,0,0,1,1.07145404816,,,,,2015_Sep_26_1406,G,facesParametric,8,59.8056812705,
./stim/MorphF4_02_orig.jpg,152,,,,,0,152,152,152,,,,,,,,,,,,,,,,,,,-13.125,-7.529296875,0,0,1,1.37266111374,,,,,2015_Sep_26_1406,G,facesParametric,8,59.8056812705,
./stim/MorphF2_10_orig.jpg,153,,,,,0,153,153,153,,,,,,,,,,,,,,,,,,,-13.125,-7.529296875,1,0,0,0.685827970505,,,,,2015_Sep_26_1406,G,facesParametric,8,59.8056812705,
./stim/MorphM10_03_orig.jpg,154,,,,,0,154,154,154,,,,,,,,,,,,,,,,,,,-13.125,-7.529296875,1,0,0,5.71352410316,,,,,2015_Sep_26_1406,G,facesParametric,8,59.8056812705,
./stim/MorphM7_02_orig.jpg,155,,,,,0,155,155,155,,,,,,,,,,,,,,,,,,,-13.125,-7.529296875,0,0,1,1.23836112022,,,,,2015_Sep_26_1406,G,facesParametric,8,59.8056812705,
./stim/MorphF8_04_orig.jpg,156,,,,,0,156,156,156,,,,,,,,,,,,,,,,,,,-13.125,-7.529296875,0,0,1,3.76806712151,,,,,2015_Sep_26_1406,G,facesParametric,8,59.8056812705,
./stim/MorphF5_00_orig.jpg,157,,,,,0,157,157,157,,,,,,,,,,,,,,,,,,,-13.125,-7.529296875,0,0,1,1.05478692055,,,,,2015_Sep_26_1406,G,facesParametric,8,59.8056812705,
./stim/MorphF7_10_orig.jpg,158,,,,,0,158,158,158,,,,,,,,,,,,,,,,,,,-13.125,-7.529296875,1,0,0,0.870270967484,,,,,2015_Sep_26_1406,G,facesParametric,8,59.8056812705,
./stim/MorphM3_00_orig.jpg,159,,,,,0,159,159,159,,,,,,,,,,,,,,,,,,,-13.095703125,-7.55859375,1,0,0,1.5240008831,,,,,2015_Sep_26_1406,G,facesParametric,8,59.8056812705,
./stim/MorphF2_04_orig.jpg,160,,,,,0,160,160,160,,,,,,,,,,,,,,,,,,,-13.095703125,-7.55859375,0,0,1,3.5173561573,,,,,2015_Sep_26_1406,G,facesParametric,8,59.8056812705,
./stim/MorphF10_05_orig.jpg,161,,,,,0,161,161,161,,,,,,,,,,,,,,,,,,,-13.095703125,-7.55859375,1,0,0,0.953898191452,,,,,2015_Sep_26_1406,G,facesParametric,8,59.8056812705,
./stim/MorphF7_06_orig.jpg,162,,,,,0,162,162,162,,,,,,,,,,,,,,,,,,,-13.095703125,-7.55859375,1,0,0,0.903564929962,,,,,2015_Sep_26_1406,G,facesParametric,8,59.8056812705,
./stim/MorphF5_02_orig.jpg,163,,,,,0,163,163,163,,,,,,,,,,,,,,,,,,,-13.095703125,-7.55859375,0,0,1,1.59140205383,,,,,2015_Sep_26_1406,G,facesParametric,8,59.8056812705,
./stim/MorphM6_07_orig.jpg,164,,,,,0,164,164,164,,,,,,,,,,,,,,,,,,,-13.095703125,-7.529296875,1,0,0,2.12576603889,,,,,2015_Sep_26_1406,G,facesParametric,8,59.8056812705,
./stim/MorphF8_00_orig.jpg,165,,,,,0,165,165,165,,,,,,,,,,,,,,,,,,,-13.095703125,-7.529296875,0,0,1,0.98627781868,,,,,2015_Sep_26_1406,G,facesParametric,8,59.8056812705,
./stim/MorphF7_02_orig.jpg,166,,,,,0,166,166,166,,,,,,,,,,,,,,,,,,,-13.095703125,-7.529296875,0,0,1,1.50734186172,,,,,2015_Sep_26_1406,G,facesParametric,8,59.8056812705,
./stim/MorphM8_01_orig.jpg,167,,,,,0,167,167,167,,,,,,,,,,,,,,,,,,,-13.095703125,-7.529296875,0,0,1,1.07098698616,,,,,2015_Sep_26_1406,G,facesParametric,8,59.8056812705,
./stim/MorphM1_08_orig.jpg,168,,,,,0,168,168,168,,,,,,,,,,,,,,,,,,,-13.095703125,-7.529296875,1,0,0,1.7753098011,,,,,2015_Sep_26_1406,G,facesParametric,8,59.8056812705,
./stim/MorphF2_09_orig.jpg,169,,,,,0,169,169,169,,,,,,,,,,,,,,,,,,,-13.06640625,-7.55859375,1,0,0,0.837553977966,,,,,2015_Sep_26_1406,G,facesParametric,8,59.8056812705,
./stim/MorphM1_10_orig.jpg,170,,,,,0,170,170,170,,,,,,,,,,,,,,,,,,,-13.06640625,-7.55859375,1,0,0,0.719295024872,,,,,2015_Sep_26_1406,G,facesParametric,8,59.8056812705,
./stim/MorphF4_00_orig.jpg,171,,,,,0,171,171,171,,,,,,,,,,,,,,,,,,,-13.06640625,-7.55859375,0,0,1,1.07062697411,,,,,2015_Sep_26_1406,G,facesParametric,8,59.8056812705,
./stim/MorphM7_06_orig.jpg,172,,,,,0,172,172,172,,,,,,,,,,,,,,,,,,,-13.06640625,-7.55859375,1,0,0,0.753326892853,,,,,2015_Sep_26_1406,G,facesParametric,8,59.8056812705,
./stim/MorphF2_05_orig.jpg,173,,,,,0,173,173,173,,,,,,,,,,,,,,,,,,,-13.06640625,-7.55859375,0,0,1,1.25429296494,,,,,2015_Sep_26_1406,G,facesParametric,8,59.8056812705,
./stim/MorphF3_01_orig.jpg,174,,,,,0,174,174,174,,,,,,,,,,,,,,,,,,,-13.06640625,-7.55859375,0,0,1,1.1394970417,,,,,2015_Sep_26_1406,G,facesParametric,8,59.8056812705,
./stim/MorphM3_08_orig.jpg,175,,,,,0,175,175,175,,,,,,,,,,,,,,,,,,,-13.06640625,-7.55859375,1,0,0,0.986561059952,,,,,2015_Sep_26_1406,G,facesParametric,8,59.8056812705,
./stim/MorphM2_03_orig.jpg,176,,,,,0,176,176,176,,,,,,,,,,,,,,,,,,,-13.06640625,-7.55859375,0,0,1,0.970518112183,,,,,2015_Sep_26_1406,G,facesParametric,8,59.8056812705,
./stim/MorphF9_10_orig.jpg,177,,,,,0,177,177,177,,,,,,,,,,,,,,,,,,,-13.06640625,-7.55859375,1,0,0,0.82022190094,,,,,2015_Sep_26_1406,G,facesParametric,8,59.8056812705,
./stim/MorphM8_09_orig.jpg,178,,,,,0,178,178,178,,,,,,,,,,,,,,,,,,,-13.06640625,-7.55859375,1,0,0,0.836668968201,,,,,2015_Sep_26_1406,G,facesParametric,8,59.8056812705,
./stim/MorphF9_00_orig.jpg,179,,,,,0,179,179,179,,,,,,,,,,,,,,,,,,,-13.06640625,-7.55859375,0,0,1,0.868762969971,,,,,2015_Sep_26_1406,G,facesParametric,8,59.8056812705,
./stim/MorphM10_00_orig.jpg,180,,,,,0,180,180,180,,,,,,,,,,,,,,,,,,,-13.095703125,-7.55859375,0,0,1,1.10264492035,,,,,2015_Sep_26_1406,G,facesParametric,8,59.8056812705,
./stim/MorphF8_06_orig.jpg,181,,,,,0,181,181,181,,,,,,,,,,,,,,,,,,,-13.125,-7.529296875,1,0,0,0.954661130905,,,,,2015_Sep_26_1406,G,facesParametric,8,59.8056812705,
./stim/MorphM7_04_orig.jpg,182,,,,,0,182,182,182,,,,,,,,,,,,,,,,,,,-13.125,-7.529296875,1,0,0,0.93702507019,,,,,2015_Sep_26_1406,G,facesParametric,8,59.8056812705,
./stim/MorphM2_09_orig.jpg,183,,,,,0,183,183,183,,,,,,,,,,,,,,,,,,,-13.125,-7.529296875,1,0,0,0.91971206665,,,,,2015_Sep_26_1406,G,facesParametric,8,59.8056812705,
./stim/MorphM8_06_orig.jpg,184,,,,,0,184,184,184,,,,,,,,,,,,,,,,,,,-13.125,-7.529296875,0,0,1,0.938106060028,,,,,2015_Sep_26_1406,G,facesParametric,8,59.8056812705,
./stim/MorphF10_00_orig.jpg,185,,,,,0,185,185,185,,,,,,,,,,,,,,,,,,,-13.125,-7.529296875,1,0,0,0.818692922592,,,,,2015_Sep_26_1406,G,facesParametric,8,59.8056812705,
./stim/MorphM10_05_orig.jpg,186,,,,,0,186,186,186,,,,,,,,,,,,,,,,,,,-12.94921875,-7.353515625,1,0,0,2.31189584732,,,,,2015_Sep_26_1406,G,facesParametric,8,59.8056812705,
./stim/MorphF5_08_orig.jpg,187,,,,,0,187,187,187,,,,,,,,,,,,,,,,,,,-12.919921875,-7.32421875,1,0,0,0.953922986984,,,,,2015_Sep_26_1406,G,facesParametric,8,59.8056812705,
./stim/MorphF3_08_orig.jpg,188,,,,,0,188,188,188,,,,,,,,,,,,,,,,,,,-12.919921875,-7.32421875,1,0,0,1.10475492477,,,,,2015_Sep_26_1406,G,facesParametric,8,59.8056812705,
./stim/MorphM9_05_orig.jpg,189,,,,,0,189,189,189,,,,,,,,,,,,,,,,,,,-12.919921875,-7.32421875,0,0,1,0.802915096283,,,,,2015_Sep_26_1406,G,facesParametric,8,59.8056812705,
./stim/MorphM5_01_orig.jpg,190,,,,,0,190,190,190,,,,,,,,,,,,,,,,,,,-12.919921875,-7.32421875,0,0,1,0.885389089584,,,,,2015_Sep_26_1406,G,facesParametric,8,59.8056812705,
./stim/MorphF8_05_orig.jpg,191,,,,,0,191,191,191,,,,,,,,,,,,,,,,,,,-12.919921875,-7.32421875,1,0,0,2.77911520004,,,,,2015_Sep_26_1406,G,facesParametric,8,59.8056812705,
./stim/MorphM6_01_orig.jpg,192,,,,,0,192,192,192,,,,,,,,,,,,,,,,,,,-12.919921875,-7.32421875,0,0,1,1.15496110916,,,,,2015_Sep_26_1406,G,facesParametric,8,59.8056812705,
./stim/MorphM5_04_orig.jpg,193,,,,,0,193,193,193,,,,,,,,,,,,,,,,,,,-12.919921875,-7.32421875,0,0,1,1.52389216423,,,,,2015_Sep_26_1406,G,facesParametric,8,59.8056812705,
./stim/MorphF4_05_orig.jpg,194,,,,,0,194,194,194,,,,,,,,,,,,,,,,,,,-13.2421875,-7.1484375,0,0,1,3.68428111076,,,,,2015_Sep_26_1406,G,facesParametric,8,59.8056812705,
./stim/MorphM10_08_orig.jpg,195,,,,,0,195,195,195,,,,,,,,,,,,,,,,,,,-13.30078125,-7.20703125,1,0,0,0.820198059082,,,,,2015_Sep_26_1406,G,facesParametric,8,59.8056812705,
./stim/MorphM8_03_orig.jpg,196,,,,,0,196,196,196,,,,,,,,,,,,,,,,,,,-13.30078125,-7.20703125,0,0,1,4.03548693657,,,,,2015_Sep_26_1406,G,facesParametric,8,59.8056812705,
./stim/MorphM5_00_orig.jpg,197,,,,,0,197,197,197,,,,,,,,,,,,,,,,,,,-13.359375,-7.236328125,0,0,1,1.37199497223,,,,,2015_Sep_26_1406,G,facesParametric,8,59.8056812705,
./stim/MorphM7_03_orig.jpg,198,,,,,0,198,198,198,,,,,,,,,,,,,,,,,,,-13.388671875,-7.265625,0,0,1,2.2281460762,,,,,2015_Sep_26_1406,G,facesParametric,8,59.8056812705,
./stim/MorphF9_07_orig.jpg,199,,,,,0,199,199,199,,,,,,,,,,,,,,,,,,,-13.388671875,-7.265625,1,0,0,1.77520513535,,,,,2015_Sep_26_1406,G,facesParametric,8,59.8056812705,
./stim/MorphM8_05_orig.jpg,200,,,,,0,200,200,200,,,,,,,,,,,,,,,,,,,-13.388671875,-7.3828125,0,0,1,2.15939497948,,,,,2015_Sep_26_1406,G,facesParametric,8,59.8056812705,
./stim/MorphM3_02_orig.jpg,201,,,,,0,201,201,201,,,,,,,,,,,,,,,,,,,-13.388671875,-7.3828125,0,0,1,0.920555114746,,,,,2015_Sep_26_1406,G,facesParametric,8,59.8056812705,
./stim/MorphF8_02_orig.jpg,202,,,,,0,202,202,202,,,,,,,,,,,,,,,,,,,-13.388671875,-7.3828125,0,0,1,0.903799057007,,,,,2015_Sep_26_1406,G,facesParametric,8,59.8056812705,
./stim/MorphM6_05_orig.jpg,203,,,,,0,203,203,203,,,,,,,,,,,,,,,,,,,-13.388671875,-7.44140625,0,0,1,0.935338020325,,,,,2015_Sep_26_1406,G,facesParametric,8,59.8056812705,
./stim/MorphM4_03_orig.jpg,204,,,,,0,204,204,204,,,,,,,,,,,,,,,,,,,-13.41796875,-7.470703125,1,0,0,0.78616309166,,,,,2015_Sep_26_1406,G,facesParametric,8,59.8056812705,
./stim/MorphF2_07_orig.jpg,205,,,,,0,205,205,205,,,,,,,,,,,,,,,,,,,-13.388671875,-7.470703125,1,0,0,2.37890505791,,,,,2015_Sep_26_1406,G,facesParametric,8,59.8056812705,
./stim/MorphM7_10_orig.jpg,206,,,,,0,206,206,206,,,,,,,,,,,,,,,,,,,-13.330078125,-7.470703125,1,0,0,0.971080780029,,,,,2015_Sep_26_1406,G,facesParametric,8,59.8056812705,
./stim/MorphF4_09_orig.jpg,207,,,,,0,207,207,207,,,,,,,,,,,,,,,,,,,-13.330078125,-7.470703125,1,0,0,0.802854061127,,,,,2015_Sep_26_1406,G,facesParametric,8,59.8056812705,
./stim/MorphM1_00_orig.jpg,208,,,,,0,208,208,208,,,,,,,,,,,,,,,,,,,-13.330078125,-7.470703125,0,0,1,0.920231103897,,,,,2015_Sep_26_1406,G,facesParametric,8,59.8056812705,
./stim/MorphF7_09_orig.jpg,209,,,,,0,209,209,209,,,,,,,,,,,,,,,,,,,-13.330078125,-7.470703125,1,0,0,0.669039011002,,,,,2015_Sep_26_1406,G,facesParametric,8,59.8056812705,
./stim/MorphF3_07_orig.jpg,210,,,,,0,210,210,210,,,,,,,,,,,,,,,,,,,-13.271484375,-7.529296875,1,0,0,1.2218978405,,,,,2015_Sep_26_1406,G,facesParametric,8,59.8056812705,
./stim/MorphM2_07_orig.jpg,211,,,,,0,211,211,211,,,,,,,,,,,,,,,,,,,-13.18359375,-7.6171875,1,0,0,1.20533514023,,,,,2015_Sep_26_1406,G,facesParametric,8,59.8056812705,
./stim/MorphF10_09_orig.jpg,212,,,,,0,212,212,212,,,,,,,,,,,,,,,,,,,-13.154296875,-7.587890625,1,0,0,0.75262093544,,,,,2015_Sep_26_1406,G,facesParametric,8,59.8056812705,
./stim/MorphM10_10_orig.jpg,213,,,,,0,213,213,213,,,,,,,,,,,,,,,,,,,-13.18359375,-7.6171875,1,0,0,1.55649709702,,,,,2015_Sep_26_1406,G,facesParametric,8,59.8056812705,
./stim/MorphF4_07_orig.jpg,214,,,,,0,214,214,214,,,,,,,,,,,,,,,,,,,-13.18359375,-7.6171875,1,0,0,2.02675318718,,,,,2015_Sep_26_1406,G,facesParametric,8,59.8056812705,
./stim/MorphM6_04_orig.jpg,215,,,,,0,215,215,215,,,,,,,,,,,,,,,,,,,-13.095703125,-7.646484375,0,0,1,0.937077045441,,,,,2015_Sep_26_1406,G,facesParametric,8,59.8056812705,
./stim/MorphF1_06_orig.jpg,216,,,,,0,216,216,216,,,,,,,,,,,,,,,,,,,-13.095703125,-7.646484375,1,0,0,2.46246290207,,,,,2015_Sep_26_1406,G,facesParametric,8,59.8056812705,
./stim/MorphM3_01_orig.jpg,217,,,,,0,217,217,217,,,,,,,,,,,,,,,,,,,-13.154296875,-7.646484375,0,0,1,1.33744907379,,,,,2015_Sep_26_1406,G,facesParametric,8,59.8056812705,
./stim/MorphF9_03_orig.jpg,218,,,,,0,218,218,218,,,,,,,,,,,,,,,,,,,-13.2421875,-7.646484375,0,0,1,1.45698308945,,,,,2015_Sep_26_1406,G,facesParametric,8,59.8056812705,
./stim/MorphM9_07_orig.jpg,219,,,,,0,219,219,219,,,,,,,,,,,,,,,,,,,-13.330078125,-7.6171875,1,0,0,1.08784508705,,,,,2015_Sep_26_1406,G,facesParametric,8,59.8056812705,
,,,,,,,,,,,,,,,,,,,,,,,,,,,,,,,,,,return,99.4859690666,,,2015_Sep_26_1406,G,facesParametric,8,59.8056812705,
./stim/MorphF1_06_orig.jpg,0,,,,,,,,,0,0,0,0,,,,,,,,,,,,,,,-3.603515625,-8.701171875,1,0,0,3.14193320274,,,,,2015_Sep_26_1406,G,facesParametric,8,59.8056812705,
./stim/MorphF7_08_orig.jpg,1,,,,,,,,,0,1,1,1,,,,,,,,,,,,,,,-4.013671875,-9.169921875,1,0,0,1.5370759964,,,,,2015_Sep_26_1406,G,facesParametric,8,59.8056812705,
./stim/MorphF1_08_orig.jpg,2,,,,,,,,,0,2,2,2,,,,,,,,,,,,,,,-4.013671875,-9.169921875,1,0,0,0.719106912613,,,,,2015_Sep_26_1406,G,facesParametric,8,59.8056812705,
./stim/MorphM3_01_orig.jpg,3,,,,,,,,,0,3,3,3,,,,,,,,,,,,,,,-4.013671875,-9.169921875,1,0,0,1.03822302818,,,,,2015_Sep_26_1406,G,facesParametric,8,59.8056812705,
./stim/MorphM4_04_orig.jpg,4,,,,,,,,,0,4,4,4,,,,,,,,,,,,,,,-4.013671875,-9.169921875,1,0,0,2.04304790497,,,,,2015_Sep_26_1406,G,facesParametric,8,59.8056812705,
./stim/MorphM10_01_orig.jpg,5,,,,,,,,,0,5,5,5,,,,,,,,,,,,,,,-4.04296875,-9.169921875,0,0,1,0.920801877975,,,,,2015_Sep_26_1406,G,facesParametric,8,59.8056812705,
./stim/MorphM2_01_orig.jpg,6,,,,,,,,,0,6,6,6,,,,,,,,,,,,,,,-4.04296875,-9.169921875,0,0,1,0.769877910614,,,,,2015_Sep_26_1406,G,facesParametric,8,59.8056812705,
./stim/MorphF9_06_orig.jpg,7,,,,,,,,,0,7,7,7,,,,,,,,,,,,,,,-4.1015625,-9.228515625,0,0,1,4.10393118858,,,,,2015_Sep_26_1406,G,facesParametric,8,59.8056812705,
./stim/MorphM10_09_orig.jpg,8,,,,,,,,,0,8,8,8,,,,,,,,,,,,,,,-4.1015625,-9.228515625,1,0,0,0.568300008774,,,,,2015_Sep_26_1406,G,facesParametric,8,59.8056812705,
./stim/MorphM6_03_orig.jpg,9,,,,,,,,,0,9,9,9,,,,,,,,,,,,,,,-4.1015625,-9.228515625,0,0,1,0.75285410881,,,,,2015_Sep_26_1406,G,facesParametric,8,59.8056812705,
./stim/MorphF2_07_orig.jpg,10,,,,,,,,,0,10,10,10,,,,,,,,,,,,,,,-4.1015625,-9.228515625,1,0,0,0.73698091507,,,,,2015_Sep_26_1406,G,facesParametric,8,59.8056812705,
./stim/MorphM9_03_orig.jpg,11,,,,,,,,,0,11,11,11,,,,,,,,,,,,,,,-4.1015625,-9.228515625,0,0,1,0.968667984009,,,,,2015_Sep_26_1406,G,facesParametric,8,59.8056812705,
./stim/MorphM7_02_orig.jpg,12,,,,,,,,,0,12,12,12,,,,,,,,,,,,,,,-4.1015625,-9.228515625,1,0,0,1.50625181198,,,,,2015_Sep_26_1406,G,facesParametric,8,59.8056812705,
./stim/MorphF8_06_orig.jpg,13,,,,,,,,,0,13,13,13,,,,,,,,,,,,,,,-4.1015625,-9.228515625,1,0,0,0.90377497673,,,,,2015_Sep_26_1406,G,facesParametric,8,59.8056812705,
./stim/MorphM5_05_orig.jpg,14,,,,,,,,,0,14,14,14,,,,,,,,,,,,,,,-4.1015625,-9.228515625,1,0,0,1.2223200798,,,,,2015_Sep_26_1406,G,facesParametric,8,59.8056812705,
./stim/MorphM10_04_orig.jpg,15,,,,,,,,,0,15,15,15,,,,,,,,,,,,,,,-4.1015625,-9.228515625,1,0,0,1.77399587631,,,,,2015_Sep_26_1406,G,facesParametric,8,59.8056812705,
./stim/MorphM7_10_orig.jpg,16,,,,,,,,,0,16,16,16,,,,,,,,,,,,,,,-4.1015625,-9.228515625,1,0,0,0.616603851318,,,,,2015_Sep_26_1406,G,facesParametric,8,59.8056812705,
./stim/MorphF1_07_orig.jpg,17,,,,,,,,,0,17,17,17,,,,,,,,,,,,,,,-4.1015625,-9.228515625,1,0,0,0.853775024414,,,,,2015_Sep_26_1406,G,facesParametric,8,59.8056812705,
./stim/MorphM9_10_orig.jpg,18,,,,,,,,,0,18,18,18,,,,,,,,,,,,,,,-4.1015625,-9.228515625,1,0,0,0.785363197327,,,,,2015_Sep_26_1406,G,facesParametric,8,59.8056812705,
./stim/MorphM3_09_orig.jpg,19,,,,,,,,,0,19,19,19,,,,,,,,,,,,,,,-4.1015625,-9.228515625,1,0,0,0.785634040833,,,,,2015_Sep_26_1406,G,facesParametric,8,59.8056812705,
./stim/MorphF5_05_orig.jpg,20,,,,,,,,,0,20,20,20,,,,,,,,,,,,,,,-4.1015625,-9.228515625,1,0,0,0.668999910355,,,,,2015_Sep_26_1406,G,facesParametric,8,59.8056812705,
./stim/MorphF4_10_orig.jpg,21,,,,,,,,,0,21,21,21,,,,,,,,,,,,,,,-4.1015625,-9.228515625,1,0,0,0.618963003159,,,,,2015_Sep_26_1406,G,facesParametric,8,59.8056812705,
./stim/MorphF5_03_orig.jpg,22,,,,,,,,,0,22,22,22,,,,,,,,,,,,,,,-4.1015625,-9.228515625,0,0,1,1.1049489975,,,,,2015_Sep_26_1406,G,facesParametric,8,59.8056812705,
./stim/MorphM1_06_orig.jpg,23,,,,,,,,,0,23,23,23,,,,,,,,,,,,,,,-4.1015625,-9.228515625,1,0,0,1.10371589661,,,,,2015_Sep_26_1406,G,facesParametric,8,59.8056812705,
./stim/MorphF10_03_orig.jpg,24,,,,,,,,,0,24,24,24,,,,,,,,,,,,,,,-4.1015625,-9.228515625,1,0,0,1.13862395287,,,,,2015_Sep_26_1406,G,facesParametric,8,59.8056812705,
./stim/MorphF8_08_orig.jpg,25,,,,,,,,,0,25,25,25,,,,,,,,,,,,,,,-4.1015625,-9.228515625,1,0,0,0.735728025436,,,,,2015_Sep_26_1406,G,facesParametric,8,59.8056812705,
./stim/MorphM8_10_orig.jpg,26,,,,,,,,,0,26,26,26,,,,,,,,,,,,,,,-4.1015625,-9.228515625,1,0,0,2.49537682533,,,,,2015_Sep_26_1406,G,facesParametric,8,59.8056812705,
./stim/MorphM4_02_orig.jpg,27,,,,,,,,,0,27,27,27,,,,,,,,,,,,,,,-4.1015625,-9.228515625,0,0,1,0.902171850204,,,,,2015_Sep_26_1406,G,facesParametric,8,59.8056812705,
./stim/MorphM5_07_orig.jpg,28,,,,,,,,,0,28,28,28,,,,,,,,,,,,,,,-4.1015625,-9.228515625,1,0,0,1.47371006012,,,,,2015_Sep_26_1406,G,facesParametric,8,59.8056812705,
./stim/MorphF10_07_orig.jpg,29,,,,,,,,,0,29,29,29,,,,,,,,,,,,,,,-4.1015625,-9.228515625,1,0,0,3.09891295433,,,,,2015_Sep_26_1406,G,facesParametric,8,59.8056812705,
./stim/MorphF6_05_orig.jpg,30,,,,,,,,,0,30,30,30,,,,,,,,,,,,,,,-4.1015625,-9.228515625,1,0,0,1.35393691063,,,,,2015_Sep_26_1406,G,facesParametric,8,59.8056812705,
./stim/MorphM1_07_orig.jpg,31,,,,,,,,,0,31,31,31,,,,,,,,,,,,,,,-4.1015625,-9.228515625,1,0,0,1.90922403336,,,,,2015_Sep_26_1406,G,facesParametric,8,59.8056812705,
./stim/MorphF5_07_orig.jpg,32,,,,,,,,,0,32,32,32,,,,,,,,,,,,,,,-4.1015625,-9.228515625,1,0,0,0.719072818756,,,,,2015_Sep_26_1406,G,facesParametric,8,59.8056812705,
./stim/MorphF2_06_orig.jpg,33,,,,,,,,,0,33,33,33,,,,,,,,,,,,,,,-4.1015625,-9.228515625,1,0,0,0.70275592804,,,,,2015_Sep_26_1406,G,facesParametric,8,59.8056812705,
./stim/MorphF6_06_orig.jpg,34,,,,,,,,,0,34,34,34,,,,,,,,,,,,,,,-4.1015625,-9.228515625,1,0,0,6.31659793854,,,,,2015_Sep_26_1406,G,facesParametric,8,59.8056812705,
./stim/MorphF9_02_orig.jpg,35,,,,,,,,,0,35,35,35,,,,,,,,,,,,,,,-4.1015625,-9.228515625,0,0,1,1.02079987526,,,,,2015_Sep_26_1406,G,facesParametric,8,59.8056812705,
./stim/MorphM9_01_orig.jpg,36,,,,,,,,,0,36,36,36,,,,,,,,,,,,,,,-4.16015625,-9.228515625,0,0,1,1.82566189766,,,,,2015_Sep_26_1406,G,facesParametric,8,59.8056812705,
./stim/MorphF7_07_orig.jpg,37,,,,,,,,,0,37,37,37,,,,,,,,,,,,,,,-4.16015625,-9.228515625,1,0,0,1.89216995239,,,,,2015_Sep_26_1406,G,facesParametric,8,59.8056812705,
./stim/MorphF5_09_orig.jpg,38,,,,,,,,,0,38,38,38,,,,,,,,,,,,,,,-4.16015625,-9.228515625,1,0,0,0.568839788437,,,,,2015_Sep_26_1406,G,facesParametric,8,59.8056812705,
./stim/MorphM5_10_orig.jpg,39,,,,,,,,,0,39,39,39,,,,,,,,,,,,,,,-4.16015625,-9.228515625,1,0,0,0.767413139343,,,,,2015_Sep_26_1406,G,facesParametric,8,59.8056812705,
./stim/MorphM8_03_orig.jpg,40,,,,,,,,,0,40,40,40,,,,,,,,,,,,,,,-4.1015625,-9.287109375,0,0,1,3.45010900497,,,,,2015_Sep_26_1406,G,facesParametric,8,59.8056812705,
./stim/MorphM5_04_orig.jpg,41,,,,,,,,,0,41,41,41,,,,,,,,,,,,,,,-4.1015625,-9.287109375,0,0,1,1.18761396408,,,,,2015_Sep_26_1406,G,facesParametric,8,59.8056812705,
./stim/MorphF6_08_orig.jpg,42,,,,,,,,,0,42,42,42,,,,,,,,,,,,,,,-4.1015625,-9.287109375,1,0,0,1.25554203987,,,,,2015_Sep_26_1406,G,facesParametric,8,59.8056812705,
./stim/MorphF9_03_orig.jpg,43,,,,,,,,,0,43,43,43,,,,,,,,,,,,,,,-4.130859375,-9.31640625,0,0,1,0.803296089172,,,,,2015_Sep_26_1406,G,facesParametric,8,59.8056812705,
./stim/MorphM1_03_orig.jpg,44,,,,,,,,,0,44,44,44,,,,,,,,,,,,,,,-4.130859375,-9.31640625,0,0,1,1.50759100914,,,,,2015_Sep_26_1406,G,facesParametric,8,59.8056812705,
./stim/MorphM2_02_orig.jpg,45,,,,,,,,,0,45,45,45,,,,,,,,,,,,,,,-4.130859375,-9.31640625,0,0,1,0.80144906044,,,,,2015_Sep_26_1406,G,facesParametric,8,59.8056812705,
./stim/MorphF5_06_orig.jpg,46,,,,,,,,,0,46,46,46,,,,,,,,,,,,,,,-4.130859375,-9.31640625,1,0,0,0.869294166565,,,,,2015_Sep_26_1406,G,facesParametric,8,59.8056812705,
./stim/MorphM1_09_orig.jpg,47,,,,,,,,,0,47,47,47,,,,,,,,,,,,,,,-4.072265625,-9.345703125,1,0,0,2.36157894135,,,,,2015_Sep_26_1406,G,facesParametric,8,59.8056812705,
./stim/MorphM9_08_orig.jpg,48,,,,,,,,,0,48,48,48,,,,,,,,,,,,,,,-4.072265625,-9.345703125,1,0,0,0.920823097229,,,,,2015_Sep_26_1406,G,facesParametric,8,59.8056812705,
./stim/MorphF6_00_orig.jpg,49,,,,,,,,,0,49,49,49,,,,,,,,,,,,,,,-4.1015625,-9.462890625,0,0,1,2.0741610527,,,,,2015_Sep_26_1406,G,facesParametric,8,59.8056812705,
./stim/MorphF7_03_orig.jpg,50,,,,,,,,,0,50,50,50,,,,,,,,,,,,,,,-4.1015625,-9.462890625,0,0,1,1.13887906075,,,,,2015_Sep_26_1406,G,facesParametric,8,59.8056812705,
./stim/MorphM6_07_orig.jpg,51,,,,,,,,,0,51,51,51,,,,,,,,,,,,,,,-4.1015625,-9.462890625,0,0,1,1.10444498062,,,,,2015_Sep_26_1406,G,facesParametric,8,59.8056812705,
./stim/MorphF4_09_orig.jpg,52,,,,,,,,,0,52,52,52,,,,,,,,,,,,,,,-4.130859375,-9.4921875,1,0,0,0.835858106613,,,,,2015_Sep_26_1406,G,facesParametric,8,59.8056812705,
./stim/MorphF3_04_orig.jpg,53,,,,,,,,,0,53,53,53,,,,,,,,,,,,,,,-4.130859375,-9.4921875,1,0,0,1.10324287415,,,,,2015_Sep_26_1406,G,facesParametric,8,59.8056812705,
./stim/MorphM10_03_orig.jpg,54,,,,,,,,,0,54,54,54,,,,,,,,,,,,,,,-4.130859375,-9.4921875,1,0,0,1.12173986435,,,,,2015_Sep_26_1406,G,facesParametric,8,59.8056812705,
./stim/MorphF10_09_orig.jpg,55,,,,,,,,,0,55,55,55,,,,,,,,,,,,,,,-4.130859375,-9.4921875,1,0,0,0.584450006485,,,,,2015_Sep_26_1406,G,facesParametric,8,59.8056812705,
./stim/MorphF8_10_orig.jpg,56,,,,,,,,,0,56,56,56,,,,,,,,,,,,,,,-4.130859375,-9.4921875,1,0,0,0.803431987762,,,,,2015_Sep_26_1406,G,facesParametric,8,59.8056812705,
./stim/MorphM10_05_orig.jpg,57,,,,,,,,,0,57,57,57,,,,,,,,,,,,,,,-4.130859375,-9.4921875,1,0,0,0.635632991791,,,,,2015_Sep_26_1406,G,facesParametric,8,59.8056812705,
./stim/MorphM1_02_orig.jpg,58,,,,,,,,,0,58,58,58,,,,,,,,,,,,,,,-4.1015625,-9.462890625,0,0,1,2.05949997902,,,,,2015_Sep_26_1406,G,facesParametric,8,59.8056812705,
./stim/MorphM10_00_orig.jpg,59,,,,,,,,,0,59,59,59,,,,,,,,,,,,,,,-4.1015625,-9.462890625,0,0,1,2.01018595695,,,,,2015_Sep_26_1406,G,facesParametric,8,59.8056812705,
./stim/MorphM4_05_orig.jpg,60,,,,,,,,,0,60,60,60,,,,,,,,,,,,,,,-4.1015625,-9.462890625,1,0,0,0.935491800308,,,,,2015_Sep_26_1406,G,facesParametric,8,59.8056812705,
./stim/MorphM1_10_orig.jpg,61,,,,,,,,,0,61,61,61,,,,,,,,,,,,,,,-4.1015625,-9.462890625,1,0,0,0.685856103897,,,,,2015_Sep_26_1406,G,facesParametric,8,59.8056812705,
./stim/MorphF3_03_orig.jpg,62,,,,,,,,,0,62,62,62,,,,,,,,,,,,,,,-4.1015625,-9.462890625,0,0,1,1.38991785049,,,,,2015_Sep_26_1406,G,facesParametric,8,59.8056812705,
./stim/MorphF6_03_orig.jpg,63,,,,,,,,,0,63,63,63,,,,,,,,,,,,,,,-4.1015625,-9.462890625,0,0,1,0.868442058563,,,,,2015_Sep_26_1406,G,facesParametric,8,59.8056812705,
./stim/MorphF8_09_orig.jpg,64,,,,,,,,,0,64,64,64,,,,,,,,,,,,,,,-4.1015625,-9.462890625,1,0,0,3.2816631794,,,,,2015_Sep_26_1406,G,facesParametric,8,59.8056812705,
./stim/MorphM8_08_orig.jpg,65,,,,,,,,,0,65,65,65,,,,,,,,,,,,,,,-4.1015625,-9.462890625,1,0,0,0.769577980042,,,,,2015_Sep_26_1406,G,facesParametric,8,59.8056812705,
./stim/MorphM3_04_orig.jpg,66,,,,,,,,,0,66,66,66,,,,,,,,,,,,,,,-4.1015625,-9.462890625,1,0,0,1.7403922081,,,,,2015_Sep_26_1406,G,facesParametric,8,59.8056812705,
./stim/MorphF3_06_orig.jpg,67,,,,,,,,,0,67,67,67,,,,,,,,,,,,,,,-4.072265625,-9.4921875,1,0,0,1.69177699089,,,,,2015_Sep_26_1406,G,facesParametric,8,59.8056812705,
./stim/MorphF9_04_orig.jpg,68,,,,,,,,,0,68,68,68,,,,,,,,,,,,,,,-4.072265625,-9.4921875,0,0,1,1.79053997993,,,,,2015_Sep_26_1406,G,facesParametric,8,59.8056812705,
./stim/MorphM9_00_orig.jpg,69,,,,,,,,,0,69,69,69,,,,,,,,,,,,,,,-4.04296875,-9.55078125,0,0,1,2.51303195953,,,,,2015_Sep_26_1406,G,facesParametric,8,59.8056812705,
./stim/MorphM2_10_orig.jpg,70,,,,,,,,,0,70,70,70,,,,,,,,,,,,,,,-4.04296875,-9.55078125,1,0,0,0.752888917923,,,,,2015_Sep_26_1406,G,facesParametric,8,59.8056812705,
./stim/MorphF1_10_orig.jpg,71,,,,,,,,,0,71,71,71,,,,,,,,,,,,,,,-4.04296875,-9.55078125,1,0,0,0.770275831223,,,,,2015_Sep_26_1406,G,facesParametric,8,59.8056812705,
./stim/MorphF2_01_orig.jpg,72,,,,,,,,,0,72,72,72,,,,,,,,,,,,,,,-4.04296875,-9.580078125,0,0,1,1.7393591404,,,,,2015_Sep_26_1406,G,facesParametric,8,59.8056812705,
./stim/MorphF5_08_orig.jpg,73,,,,,,,,,0,73,73,73,,,,,,,,,,,,,,,-4.04296875,-9.609375,1,0,0,0.668039083481,,,,,2015_Sep_26_1406,G,facesParametric,8,59.8056812705,
./stim/MorphF9_08_orig.jpg,74,,,,,,,,,0,74,74,74,,,,,,,,,,,,,,,-4.013671875,-9.638671875,1,0,0,1.60804104805,,,,,2015_Sep_26_1406,G,facesParametric,8,59.8056812705,
./stim/MorphM3_00_orig.jpg,75,,,,,,,,,0,75,75,75,,,,,,,,,,,,,,,-4.013671875,-9.66796875,0,0,1,1.07144808769,,,,,2015_Sep_26_1406,G,facesParametric,8,59.8056812705,
./stim/MorphF10_02_orig.jpg,76,,,,,,,,,0,76,76,76,,,,,,,,,,,,,,,-4.013671875,-9.66796875,1,0,0,0.936718940735,,,,,2015_Sep_26_1406,G,facesParametric,8,59.8056812705,
./stim/MorphF7_01_orig.jpg,77,,,,,,,,,0,77,77,77,,,,,,,,,,,,,,,-4.189453125,-9.814453125,0,0,1,1.49033379555,,,,,2015_Sep_26_1406,G,facesParametric,8,59.8056812705,
./stim/MorphF4_02_orig.jpg,78,,,,,,,,,0,78,78,78,,,,,,,,,,,,,,,-4.16015625,-9.755859375,0,0,1,0.853405952454,,,,,2015_Sep_26_1406,G,facesParametric,8,59.8056812705,
./stim/MorphF8_02_orig.jpg,79,,,,,,,,,0,79,79,79,,,,,,,,,,,,,,,-4.16015625,-9.755859375,0,0,1,1.08650684357,,,,,2015_Sep_26_1406,G,facesParametric,8,59.8056812705,
./stim/MorphM4_01_orig.jpg,80,,,,,,,,,0,80,80,80,,,,,,,,,,,,,,,-4.16015625,-9.755859375,0,0,1,1.77548003197,,,,,2015_Sep_26_1406,G,facesParametric,8,59.8056812705,
./stim/MorphM6_00_orig.jpg,81,,,,,,,,,0,81,81,81,,,,,,,,,,,,,,,-4.16015625,-9.755859375,0,0,1,1.03766298294,,,,,2015_Sep_26_1406,G,facesParametric,8,59.8056812705,
./stim/MorphF1_04_orig.jpg,82,,,,,,,,,0,82,82,82,,,,,,,,,,,,,,,-4.16015625,-9.755859375,0,0,1,1.50725889206,,,,,2015_Sep_26_1406,G,facesParametric,8,59.8056812705,
./stim/MorphM8_07_orig.jpg,83,,,,,,,,,0,83,83,83,,,,,,,,,,,,,,,-4.16015625,-9.755859375,1,0,0,0.887198925018,,,,,2015_Sep_26_1406,G,facesParametric,8,59.8056812705,
./stim/MorphM2_04_orig.jpg,84,,,,,,,,,0,84,84,84,,,,,,,,,,,,,,,-4.1015625,-9.78515625,0,0,1,1.07110190392,,,,,2015_Sep_26_1406,G,facesParametric,8,59.8056812705,
./stim/MorphM3_05_orig.jpg,85,,,,,,,,,0,85,85,85,,,,,,,,,,,,,,,-4.1015625,-9.78515625,1,0,0,1.67483711243,,,,,2015_Sep_26_1406,G,facesParametric,8,59.8056812705,
./stim/MorphM6_08_orig.jpg,86,,,,,,,,,0,86,86,86,,,,,,,,,,,,,,,-4.04296875,-9.78515625,1,0,0,2.16057300568,,,,,2015_Sep_26_1406,G,facesParametric,8,59.8056812705,
./stim/MorphF7_00_orig.jpg,87,,,,,,,,,0,87,87,87,,,,,,,,,,,,,,,-4.130859375,-9.755859375,0,0,1,1.18700790405,,,,,2015_Sep_26_1406,G,facesParametric,8,59.8056812705,
./stim/MorphF4_04_orig.jpg,88,,,,,,,,,0,88,88,88,,,,,,,,,,,,,,,-4.130859375,-9.755859375,0,0,1,0.903513908386,,,,,2015_Sep_26_1406,G,facesParametric,8,59.8056812705,
./stim/MorphF6_01_orig.jpg,89,,,,,,,,,0,89,89,89,,,,,,,,,,,,,,,-4.130859375,-9.755859375,0,0,1,1.12240195274,,,,,2015_Sep_26_1406,G,facesParametric,8,59.8056812705,
./stim/MorphF4_08_orig.jpg,90,,,,,,,,,0,90,90,90,,,,,,,,,,,,,,,-4.130859375,-9.7265625,1,0,0,1.95841097832,,,,,2015_Sep_26_1406,G,facesParametric,8,59.8056812705,
./stim/MorphM4_09_orig.jpg,91,,,,,,,,,0,91,91,91,,,,,,,,,,,,,,,-4.130859375,-9.7265625,1,0,0,0.988062143326,,,,,2015_Sep_26_1406,G,facesParametric,8,59.8056812705,
./stim/MorphM7_07_orig.jpg,92,,,,,,,,,0,92,92,92,,,,,,,,,,,,,,,-4.130859375,-9.7265625,1,0,0,0.801624059677,,,,,2015_Sep_26_1406,G,facesParametric,8,59.8056812705,
./stim/MorphF9_01_orig.jpg,93,,,,,,,,,0,93,93,93,,,,,,,,,,,,,,,-4.130859375,-9.7265625,0,0,1,1.924254179,,,,,2015_Sep_26_1406,G,facesParametric,8,59.8056812705,
./stim/MorphM8_05_orig.jpg,94,,,,,,,,,0,94,94,94,,,,,,,,,,,,,,,-4.1015625,-9.697265625,1,0,0,2.8979408741,,,,,2015_Sep_26_1406,G,facesParametric,8,59.8056812705,
./stim/MorphM4_08_orig.jpg,95,,,,,,,,,0,95,95,95,,,,,,,,,,,,,,,-4.1015625,-9.697265625,1,0,0,0.85343003273,,,,,2015_Sep_26_1406,G,facesParametric,8,59.8056812705,
./stim/MorphM6_04_orig.jpg,96,,,,,,,,,0,96,96,96,,,,,,,,,,,,,,,-4.1015625,-9.755859375,0,0,1,1.02084708214,,,,,2015_Sep_26_1406,G,facesParametric,8,59.8056812705,
./stim/MorphF8_00_orig.jpg,97,,,,,,,,,0,97,97,97,,,,,,,,,,,,,,,-4.1015625,-9.755859375,0,0,1,1.17047810555,,,,,2015_Sep_26_1406,G,facesParametric,8,59.8056812705,
./stim/MorphF4_00_orig.jpg,98,,,,,,,,,0,98,98,98,,,,,,,,,,,,,,,-4.1015625,-9.755859375,0,0,1,0.736218929291,,,,,2015_Sep_26_1406,G,facesParametric,8,59.8056812705,
./stim/MorphM2_07_orig.jpg,99,,,,,,,,,0,99,99,99,,,,,,,,,,,,,,,-4.1015625,-9.755859375,1,0,0,1.65720295906,,,,,2015_Sep_26_1406,G,facesParametric,8,59.8056812705,
./stim/MorphF6_10_orig.jpg,100,,,,,,,,,0,100,100,100,,,,,,,,,,,,,,,-4.1015625,-9.755859375,1,0,0,0.954130172729,,,,,2015_Sep_26_1406,G,facesParametric,8,59.8056812705,
./stim/MorphM1_05_orig.jpg,101,,,,,,,,,0,101,101,101,,,,,,,,,,,,,,,-4.16015625,-9.78515625,0,0,1,1.54057097435,,,,,2015_Sep_26_1406,G,facesParametric,8,59.8056812705,
./stim/MorphF1_02_orig.jpg,102,,,,,,,,,0,102,102,102,,,,,,,,,,,,,,,-4.130859375,-9.84375,0,0,1,1.05423903465,,,,,2015_Sep_26_1406,G,facesParametric,8,59.8056812705,
./stim/MorphF4_01_orig.jpg,103,,,,,,,,,0,103,103,103,,,,,,,,,,,,,,,-4.130859375,-9.84375,0,0,1,1.8088350296,,,,,2015_Sep_26_1406,G,facesParametric,8,59.8056812705,
./stim/MorphM10_08_orig.jpg,104,,,,,,,,,0,104,104,104,,,,,,,,,,,,,,,-4.130859375,-9.84375,1,0,0,0.668690919876,,,,,2015_Sep_26_1406,G,facesParametric,8,59.8056812705,
./stim/MorphM1_00_orig.jpg,105,,,,,,,,,0,105,105,105,,,,,,,,,,,,,,,-4.1015625,-9.78515625,0,0,1,1.23896503448,,,,,2015_Sep_26_1406,G,facesParametric,8,59.8056812705,
./stim/MorphF3_00_orig.jpg,106,,,,,,,,,0,106,106,106,,,,,,,,,,,,,,,-4.1015625,-9.78515625,0,0,1,2.11028599739,,,,,2015_Sep_26_1406,G,facesParametric,8,59.8056812705,
./stim/MorphF10_06_orig.jpg,107,,,,,,,,,0,107,107,107,,,,,,,,,,,,,,,-4.04296875,-9.814453125,1,0,0,1.80862283707,,,,,2015_Sep_26_1406,G,facesParametric,8,59.8056812705,
./stim/MorphF3_10_orig.jpg,108,,,,,,,,,0,108,108,108,,,,,,,,,,,,,,,-4.013671875,-9.78515625,1,0,0,0.987734079361,,,,,2015_Sep_26_1406,G,facesParametric,8,59.8056812705,
./stim/MorphF7_10_orig.jpg,109,,,,,,,,,0,109,109,109,,,,,,,,,,,,,,,-4.013671875,-9.78515625,1,0,0,0.920418024063,,,,,2015_Sep_26_1406,G,facesParametric,8,59.8056812705,
./stim/MorphF9_07_orig.jpg,110,,,,,,,,,0,110,110,110,,,,,,,,,,,,,,,-4.013671875,-9.78515625,1,0,0,1.65682506561,,,,,2015_Sep_26_1406,G,facesParametric,8,59.8056812705,
./stim/MorphM6_02_orig.jpg,111,,,,,,,,,0,111,111,111,,,,,,,,,,,,,,,-4.013671875,-9.78515625,0,0,1,0.970431804657,,,,,2015_Sep_26_1406,G,facesParametric,8,59.8056812705,
./stim/MorphM9_04_orig.jpg,112,,,,,,,,,0,112,112,112,,,,,,,,,,,,,,,-3.984375,-9.84375,0,0,1,3.6339700222,,,,,2015_Sep_26_1406,G,facesParametric,8,59.8056812705,
./stim/MorphM6_05_orig.jpg,113,,,,,,,,,0,113,113,113,,,,,,,,,,,,,,,-3.955078125,-9.873046875,0,0,1,2.41046190262,,,,,2015_Sep_26_1406,G,facesParametric,8,59.8056812705,
./stim/MorphF6_04_orig.jpg,114,,,,,,,,,0,114,114,114,,,,,,,,,,,,,,,-3.955078125,-9.873046875,1,0,0,0.820124149323,,,,,2015_Sep_26_1406,G,facesParametric,8,59.8056812705,
./stim/MorphM5_06_orig.jpg,115,,,,,,,,,0,115,115,115,,,,,,,,,,,,,,,-3.955078125,-9.873046875,1,0,0,1.28885006905,,,,,2015_Sep_26_1406,G,facesParametric,8,59.8056812705,
./stim/MorphM4_10_orig.jpg,116,,,,,,,,,0,116,116,116,,,,,,,,,,,,,,,-3.955078125,-9.873046875,1,0,0,0.669226884842,,,,,2015_Sep_26_1406,G,facesParametric,8,59.8056812705,
./stim/MorphF3_08_orig.jpg,117,,,,,,,,,0,117,117,117,,,,,,,,,,,,,,,-3.955078125,-9.873046875,1,0,0,0.819072008133,,,,,2015_Sep_26_1406,G,facesParametric,8,59.8056812705,
./stim/MorphF9_05_orig.jpg,118,,,,,,,,,0,118,118,118,,,,,,,,,,,,,,,-3.955078125,-9.931640625,0,0,1,2.46220993996,,,,,2015_Sep_26_1406,G,facesParametric,8,59.8056812705,
./stim/MorphM7_09_orig.jpg,119,,,,,,,,,0,119,119,119,,,,,,,,,,,,,,,-3.92578125,-9.90234375,1,0,0,1.0376470089,,,,,2015_Sep_26_1406,G,facesParametric,8,59.8056812705,
./stim/MorphF1_09_orig.jpg,120,,,,,,,,,0,120,120,120,,,,,,,,,,,,,,,-3.896484375,-9.931640625,1,0,0,1.6073179245,,,,,2015_Sep_26_1406,G,facesParametric,8,59.8056812705,
./stim/MorphM6_09_orig.jpg,121,,,,,,,,,0,121,121,121,,,,,,,,,,,,,,,-3.8671875,-9.9609375,1,0,0,0.851743221283,,,,,2015_Sep_26_1406,G,facesParametric,8,59.8056812705,
./stim/MorphF4_06_orig.jpg,122,,,,,,,,,0,122,122,122,,,,,,,,,,,,,,,-3.896484375,-9.990234375,1,0,0,2.10945510864,,,,,2015_Sep_26_1406,G,facesParametric,8,59.8056812705,
./stim/MorphF7_06_orig.jpg,123,,,,,,,,,0,123,123,123,,,,,,,,,,,,,,,-3.92578125,-10.01953125,1,0,0,0.70271897316,,,,,2015_Sep_26_1406,G,facesParametric,8,59.8056812705,
./stim/MorphM5_02_orig.jpg,124,,,,,,,,,0,124,124,124,,,,,,,,,,,,,,,-3.955078125,-10.107421875,0,0,1,1.08782291412,,,,,2015_Sep_26_1406,G,facesParametric,8,59.8056812705,
./stim/MorphF10_05_orig.jpg,125,,,,,,,,,0,125,125,125,,,,,,,,,,,,,,,-3.955078125,-10.107421875,1,0,0,0.684349060059,,,,,2015_Sep_26_1406,G,facesParametric,8,59.8056812705,
./stim/MorphF7_05_orig.jpg,126,,,,,,,,,0,126,126,126,,,,,,,,,,,,,,,-3.955078125,-10.107421875,1,0,0,1.72384405136,,,,,2015_Sep_26_1406,G,facesParametric,8,59.8056812705,
./stim/MorphF1_03_orig.jpg,127,,,,,,,,,0,127,127,127,,,,,,,,,,,,,,,-3.955078125,-10.048828125,1,0,0,3.35171508789,,,,,2015_Sep_26_1406,G,facesParametric,8,59.8056812705,
./stim/MorphF3_07_orig.jpg,128,,,,,,,,,0,128,128,128,,,,,,,,,,,,,,,-3.955078125,-10.048828125,1,0,0,1.07021617889,,,,,2015_Sep_26_1406,G,facesParametric,8,59.8056812705,
./stim/MorphF4_05_orig.jpg,129,,,,,,,,,0,129,129,129,,,,,,,,,,,,,,,-4.013671875,-10.048828125,0,0,1,1.4732708931,,,,,2015_Sep_26_1406,G,facesParametric,8,59.8056812705,
./stim/MorphF6_07_orig.jpg,130,,,,,,,,,0,130,130,130,,,,,,,,,,,,,,,-3.955078125,-10.048828125,1,0,0,0.685997962952,,,,,2015_Sep_26_1406,G,facesParametric,8,59.8056812705,
./stim/MorphF3_02_orig.jpg,131,,,,,,,,,0,131,131,131,,,,,,,,,,,,,,,-3.896484375,-9.990234375,0,0,1,1.18692612648,,,,,2015_Sep_26_1406,G,facesParametric,8,59.8056812705,
./stim/MorphF1_00_orig.jpg,132,,,,,,,,,0,132,132,132,,,,,,,,,,,,,,,-3.896484375,-9.931640625,0,0,1,1.10518312454,,,,,2015_Sep_26_1406,G,facesParametric,8,59.8056812705,
./stim/MorphF4_03_orig.jpg,133,,,,,,,,,0,133,133,133,,,,,,,,,,,,,,,-3.896484375,-9.84375,0,0,1,1.38728713989,,,,,2015_Sep_26_1406,G,facesParametric,8,59.8056812705,
./stim/MorphM2_03_orig.jpg,134,,,,,,,,,0,134,134,134,,,,,,,,,,,,,,,-3.92578125,-9.873046875,0,0,1,1.32181191444,,,,,2015_Sep_26_1406,G,facesParametric,8,59.8056812705,
./stim/MorphF10_10_orig.jpg,135,,,,,,,,,0,135,135,135,,,,,,,,,,,,,,,-3.955078125,-9.90234375,1,0,0,0.65190911293,,,,,2015_Sep_26_1406,G,facesParametric,8,59.8056812705,
./stim/MorphM2_09_orig.jpg,136,,,,,,,,,0,136,136,136,,,,,,,,,,,,,,,-3.955078125,-9.90234375,0,0,1,0.685981988907,,,,,2015_Sep_26_1406,G,facesParametric,8,59.8056812705,
./stim/MorphM6_01_orig.jpg,137,,,,,,,,,0,137,137,137,,,,,,,,,,,,,,,-4.62890625,-10.78125,0,0,1,7.35401105881,,,,,2015_Sep_26_1406,G,facesParametric,8,59.8056812705,
./stim/MorphF9_09_orig.jpg,138,,,,,,,,,0,138,138,138,,,,,,,,,,,,,,,-4.658203125,-10.810546875,1,0,0,0.719611883163,,,,,2015_Sep_26_1406,G,facesParametric,8,59.8056812705,
./stim/MorphM5_03_orig.jpg,139,,,,,,,,,0,139,139,139,,,,,,,,,,,,,,,-4.74609375,-10.810546875,0,0,1,1.77471208572,,,,,2015_Sep_26_1406,G,facesParametric,8,59.8056812705,
./stim/MorphF10_00_orig.jpg,140,,,,,,,,,0,140,140,140,,,,,,,,,,,,,,,-4.775390625,-10.78125,1,0,0,0.971493005753,,,,,2015_Sep_26_1406,G,facesParametric,8,59.8056812705,
./stim/MorphF2_02_orig.jpg,141,,,,,,,,,0,141,141,141,,,,,,,,,,,,,,,-4.74609375,-10.8984375,0,0,1,0.970027923584,,,,,2015_Sep_26_1406,G,facesParametric,8,59.8056812705,
./stim/MorphM3_06_orig.jpg,142,,,,,,,,,0,142,142,142,,,,,,,,,,,,,,,-4.716796875,-10.751953125,1,0,0,0.886900901794,,,,,2015_Sep_26_1406,G,facesParametric,8,59.8056812705,
./stim/MorphF7_04_orig.jpg,143,,,,,,,,,0,143,143,143,,,,,,,,,,,,,,,-4.62890625,-10.751953125,1,0,0,0.819140911102,,,,,2015_Sep_26_1406,G,facesParametric,8,59.8056812705,
./stim/MorphF5_01_orig.jpg,144,,,,,,,,,0,144,144,144,,,,,,,,,,,,,,,-4.74609375,-10.8984375,0,0,1,1.00407290459,,,,,2015_Sep_26_1406,G,facesParametric,8,59.8056812705,
./stim/MorphF7_09_orig.jpg,145,,,,,,,,,0,145,145,145,,,,,,,,,,,,,,,-4.74609375,-10.869140625,1,0,0,1.12179994583,,,,,2015_Sep_26_1406,G,facesParametric,8,59.8056812705,
./stim/MorphM3_10_orig.jpg,146,,,,,,,,,0,146,146,146,,,,,,,,,,,,,,,-4.716796875,-10.869140625,1,0,0,0.836654901505,,,,,2015_Sep_26_1406,G,facesParametric,8,59.8056812705,
./stim/MorphM9_02_orig.jpg,147,,,,,,,,,0,147,147,147,,,,,,,,,,,,,,,-4.74609375,-10.8984375,0,0,1,1.05411696434,,,,,2015_Sep_26_1406,G,facesParametric,8,59.8056812705,
./stim/MorphF9_10_orig.jpg,148,,,,,,,,,0,148,148,148,,,,,,,,,,,,,,,-4.74609375,-10.927734375,1,0,0,1.23916816711,,,,,2015_Sep_26_1406,G,facesParametric,8,59.8056812705,
./stim/MorphM5_00_orig.jpg,149,,,,,,,,,0,149,149,149,,,,,,,,,,,,,,,-4.74609375,-10.869140625,0,0,1,1.75776290894,,,,,2015_Sep_26_1406,G,facesParametric,8,59.8056812705,
./stim/MorphF2_00_orig.jpg,150,,,,,,,,,0,150,150,150,,,,,,,,,,,,,,,-4.892578125,-11.044921875,0,0,1,1.39012813568,,,,,2015_Sep_26_1406,G,facesParametric,8,59.8056812705,
./stim/MorphM6_06_orig.jpg,151,,,,,,,,,0,151,151,151,,,,,,,,,,,,,,,-4.921875,-10.576171875,0,0,1,1.8757610321,,,,,2015_Sep_26_1406,G,facesParametric,8,59.8056812705,
./stim/MorphM7_06_orig.jpg,152,,,,,,,,,0,152,152,152,,,,,,,,,,,,,,,-4.716796875,-10.107421875,1,0,0,2.22750496864,,,,,2015_Sep_26_1406,G,facesParametric,8,59.8056812705,
./stim/MorphF2_10_orig.jpg,153,,,,,,,,,0,153,153,153,,,,,,,,,,,,,,,-4.6875,-10.13671875,1,0,0,0.834738969803,,,,,2015_Sep_26_1406,G,facesParametric,8,59.8056812705,
./stim/MorphF10_08_orig.jpg,154,,,,,,,,,0,154,154,154,,,,,,,,,,,,,,,-5.15625,-10.13671875,1,0,0,2.84854912758,,,,,2015_Sep_26_1406,G,facesParametric,8,59.8056812705,
./stim/MorphF3_01_orig.jpg,155,,,,,,,,,0,155,155,155,,,,,,,,,,,,,,,-5.09765625,-10.166015625,0,0,1,1.28946495056,,,,,2015_Sep_26_1406,G,facesParametric,8,59.8056812705,
./stim/MorphM9_06_orig.jpg,156,,,,,,,,,0,156,156,156,,,,,,,,,,,,,,,-5.126953125,-10.1953125,0,0,1,1.03757596016,,,,,2015_Sep_26_1406,G,facesParametric,8,59.8056812705,
./stim/MorphF10_01_orig.jpg,157,,,,,,,,,0,157,157,157,,,,,,,,,,,,,,,-5.15625,-10.224609375,0,0,1,2.83076405525,,,,,2015_Sep_26_1406,G,facesParametric,8,59.8056812705,
./stim/MorphM2_05_orig.jpg,158,,,,,,,,,0,158,158,158,,,,,,,,,,,,,,,-5.185546875,-10.25390625,0,0,1,1.15514707565,,,,,2015_Sep_26_1406,G,facesParametric,8,59.8056812705,
./stim/MorphM4_03_orig.jpg,159,,,,,,,,,0,159,159,159,,,,,,,,,,,,,,,-5.185546875,-10.283203125,0,0,1,2.32868885994,,,,,2015_Sep_26_1406,G,facesParametric,8,59.8056812705,
./stim/MorphF7_02_orig.jpg,160,,,,,,,,,0,160,160,160,,,,,,,,,,,,,,,-5.126953125,-10.341796875,0,0,1,4.30459785461,,,,,2015_Sep_26_1406,G,facesParametric,8,59.8056812705,
./stim/MorphM8_01_orig.jpg,161,,,,,,,,,0,161,161,161,,,,,,,,,,,,,,,-5.126953125,-10.341796875,0,0,1,1.22251391411,,,,,2015_Sep_26_1406,G,facesParametric,8,59.8056812705,
./stim/MorphF5_04_orig.jpg,162,,,,,,,,,0,162,162,162,,,,,,,,,,,,,,,-5.21484375,-10.341796875,1,0,0,3.58515095711,,,,,2015_Sep_26_1406,G,facesParametric,8,59.8056812705,
./stim/MorphM1_01_orig.jpg,163,,,,,,,,,0,163,163,163,,,,,,,,,,,,,,,-5.15625,-10.4296875,0,0,1,1.38745093346,,,,,2015_Sep_26_1406,G,facesParametric,8,59.8056812705,
./stim/MorphM9_07_orig.jpg,164,,,,,,,,,0,164,164,164,,,,,,,,,,,,,,,-5.15625,-10.4296875,1,0,0,1.18906402588,,,,,2015_Sep_26_1406,G,facesParametric,8,59.8056812705,
./stim/MorphM10_07_orig.jpg,165,,,,,,,,,0,165,165,165,,,,,,,,,,,,,,,-5.15625,-10.4296875,1,0,0,0.886744976044,,,,,2015_Sep_26_1406,G,facesParametric,8,59.8056812705,
./stim/MorphM8_00_orig.jpg,166,,,,,,,,,0,166,166,166,,,,,,,,,,,,,,,-5.15625,-10.4296875,0,0,1,1.92726802826,,,,,2015_Sep_26_1406,G,facesParametric,8,59.8056812705,
./stim/MorphF2_08_orig.jpg,167,,,,,,,,,0,167,167,167,,,,,,,,,,,,,,,-5.126953125,-10.400390625,1,0,0,0.701519966125,,,,,2015_Sep_26_1406,G,facesParametric,8,59.8056812705,
./stim/MorphM8_09_orig.jpg,168,,,,,,,,,0,168,168,168,,,,,,,,,,,,,,,-5.126953125,-10.400390625,1,0,0,1.13848590851,,,,,2015_Sep_26_1406,G,facesParametric,8,59.8056812705,
./stim/MorphF1_01_orig.jpg,169,,,,,,,,,0,169,169,169,,,,,,,,,,,,,,,-5.21484375,-10.72265625,0,0,1,2.12738013268,,,,,2015_Sep_26_1406,G,facesParametric,8,59.8056812705,
./stim/MorphM5_08_orig.jpg,170,,,,,,,,,0,170,170,170,,,,,,,,,,,,,,,-5.21484375,-10.634765625,1,0,0,0.903544902802,,,,,2015_Sep_26_1406,G,facesParametric,8,59.8056812705,
./stim/MorphM2_06_orig.jpg,171,,,,,,,,,0,171,171,171,,,,,,,,,,,,,,,-5.21484375,-10.693359375,0,0,1,1.44039607048,,,,,2015_Sep_26_1406,G,facesParametric,8,59.8056812705,
./stim/MorphM6_10_orig.jpg,172,,,,,,,,,0,172,172,172,,,,,,,,,,,,,,,-5.009765625,-10.6640625,1,0,0,1.72396802902,,,,,2015_Sep_26_1406,G,facesParametric,8,59.8056812705,
./stim/MorphF10_04_orig.jpg,173,,,,,,,,,0,173,173,173,,,,,,,,,,,,,,,-5.09765625,-10.576171875,1,0,0,3.26667308807,,,,,2015_Sep_26_1406,G,facesParametric,8,59.8056812705,
./stim/MorphM7_00_orig.jpg,174,,,,,,,,,0,174,174,174,,,,,,,,,,,,,,,-5.09765625,-10.60546875,0,0,1,1.23924183846,,,,,2015_Sep_26_1406,G,facesParametric,8,59.8056812705,
./stim/MorphF8_05_orig.jpg,175,,,,,,,,,0,175,175,175,,,,,,,,,,,,,,,-5.126953125,-10.634765625,0,0,1,1.59077191353,,,,,2015_Sep_26_1406,G,facesParametric,8,59.8056812705,
./stim/MorphF2_04_orig.jpg,176,,,,,,,,,0,176,176,176,,,,,,,,,,,,,,,-5.126953125,-10.634765625,0,0,1,1.13896799088,,,,,2015_Sep_26_1406,G,facesParametric,8,59.8056812705,
./stim/MorphM7_03_orig.jpg,177,,,,,,,,,0,177,177,177,,,,,,,,,,,,,,,-5.15625,-10.6640625,0,0,1,1.0705678463,,,,,2015_Sep_26_1406,G,facesParametric,8,59.8056812705,
./stim/MorphM4_00_orig.jpg,178,,,,,,,,,0,178,178,178,,,,,,,,,,,,,,,-5.15625,-10.6640625,0,0,1,0.921350002289,,,,,2015_Sep_26_1406,G,facesParametric,8,59.8056812705,
./stim/MorphM10_06_orig.jpg,179,,,,,,,,,0,179,179,179,,,,,,,,,,,,,,,-5.126953125,-10.576171875,1,0,0,0.903382062912,,,,,2015_Sep_26_1406,G,facesParametric,8,59.8056812705,
./stim/MorphF8_07_orig.jpg,180,,,,,,,,,0,180,180,180,,,,,,,,,,,,,,,-5.068359375,-10.546875,1,0,0,1.12170815468,,,,,2015_Sep_26_1406,G,facesParametric,8,59.8056812705,
./stim/MorphM5_01_orig.jpg,181,,,,,,,,,0,181,181,181,,,,,,,,,,,,,,,-5.09765625,-10.576171875,0,0,1,1.15341186523,,,,,2015_Sep_26_1406,G,facesParametric,8,59.8056812705,
./stim/MorphM7_05_orig.jpg,182,,,,,,,,,0,182,182,182,,,,,,,,,,,,,,,-5.09765625,-10.576171875,1,0,0,0.971087932587,,,,,2015_Sep_26_1406,G,facesParametric,8,59.8056812705,
./stim/MorphF5_10_orig.jpg,183,,,,,,,,,0,183,183,183,,,,,,,,,,,,,,,-5.09765625,-10.576171875,1,0,0,0.970391988754,,,,,2015_Sep_26_1406,G,facesParametric,8,59.8056812705,
./stim/MorphM1_08_orig.jpg,184,,,,,,,,,0,184,184,184,,,,,,,,,,,,,,,-5.09765625,-10.576171875,1,0,0,1.13851904869,,,,,2015_Sep_26_1406,G,facesParametric,8,59.8056812705,
./stim/MorphF8_04_orig.jpg,185,,,,,,,,,0,185,185,185,,,,,,,,,,,,,,,-5.185546875,-10.60546875,0,0,1,3.11567401886,,,,,2015_Sep_26_1406,G,facesParametric,8,59.8056812705,
./stim/MorphF9_00_orig.jpg,186,,,,,,,,,0,186,186,186,,,,,,,,,,,,,,,-5.21484375,-10.634765625,0,0,1,1.00455617905,,,,,2015_Sep_26_1406,G,facesParametric,8,59.8056812705,
./stim/MorphM3_02_orig.jpg,187,,,,,,,,,0,187,187,187,,,,,,,,,,,,,,,-5.244140625,-10.60546875,0,0,1,1.0889480114,,,,,2015_Sep_26_1406,G,facesParametric,8,59.8056812705,
./stim/MorphF2_03_orig.jpg,188,,,,,,,,,0,188,188,188,,,,,,,,,,,,,,,-5.244140625,-10.60546875,0,0,1,1.05370903015,,,,,2015_Sep_26_1406,G,facesParametric,8,59.8056812705,
./stim/MorphM4_06_orig.jpg,189,,,,,,,,,0,189,189,189,,,,,,,,,,,,,,,-5.244140625,-10.60546875,1,0,0,1.32289385796,,,,,2015_Sep_26_1406,G,facesParametric,8,59.8056812705,
./stim/MorphM8_04_orig.jpg,190,,,,,,,,,0,190,190,190,,,,,,,,,,,,,,,-5.2734375,-10.60546875,0,0,1,2.39539813995,,,,,2015_Sep_26_1406,G,facesParametric,8,59.8056812705,
./stim/MorphF3_09_orig.jpg,191,,,,,,,,,0,191,191,191,,,,,,,,,,,,,,,-5.302734375,-10.634765625,1,0,0,0.954143047333,,,,,2015_Sep_26_1406,G,facesParametric,8,59.8056812705,
./stim/MorphF2_05_orig.jpg,192,,,,,,,,,0,192,192,192,,,,,,,,,,,,,,,-5.302734375,-10.634765625,0,0,1,0.784614086151,,,,,2015_Sep_26_1406,G,facesParametric,8,59.8056812705,
./stim/MorphF3_05_orig.jpg,193,,,,,,,,,0,193,193,193,,,,,,,,,,,,,,,-5.2734375,-10.576171875,0,0,1,1.55539798737,,,,,2015_Sep_26_1406,G,facesParametric,8,59.8056812705,
./stim/MorphF5_00_orig.jpg,194,,,,,,,,,0,194,194,194,,,,,,,,,,,,,,,-5.244140625,-10.60546875,0,0,1,1.43992590904,,,,,2015_Sep_26_1406,G,facesParametric,8,59.8056812705,
./stim/MorphM3_08_orig.jpg,195,,,,,,,,,0,195,195,195,,,,,,,,,,,,,,,-5.21484375,-10.576171875,1,0,0,1.42079091072,,,,,2015_Sep_26_1406,G,facesParametric,8,59.8056812705,
./stim/MorphM4_07_orig.jpg,196,,,,,,,,,0,196,196,196,,,,,,,,,,,,,,,-5.21484375,-10.576171875,1,0,0,1.02146410942,,,,,2015_Sep_26_1406,G,facesParametric,8,59.8056812705,
./stim/MorphF8_01_orig.jpg,197,,,,,,,,,0,197,197,197,,,,,,,,,,,,,,,-5.21484375,-10.576171875,0,0,1,1.10501217842,,,,,2015_Sep_26_1406,G,facesParametric,8,59.8056812705,
./stim/MorphF6_02_orig.jpg,198,,,,,,,,,0,198,198,198,,,,,,,,,,,,,,,-5.21484375,-10.576171875,0,0,1,1.07104206085,,,,,2015_Sep_26_1406,G,facesParametric,8,59.8056812705,
./stim/MorphM7_04_orig.jpg,199,,,,,,,,,0,199,199,199,,,,,,,,,,,,,,,-5.21484375,-10.576171875,0,0,1,1.50727701187,,,,,2015_Sep_26_1406,G,facesParametric,8,59.8056812705,
./stim/MorphM9_09_orig.jpg,200,,,,,,,,,0,200,200,200,,,,,,,,,,,,,,,-5.21484375,-10.576171875,1,0,0,0.938282012939,,,,,2015_Sep_26_1406,G,facesParametric,8,59.8056812705,
./stim/MorphM3_03_orig.jpg,201,,,,,,,,,0,201,201,201,,,,,,,,,,,,,,,-5.21484375,-10.576171875,0,0,1,1.18744492531,,,,,2015_Sep_26_1406,G,facesParametric,8,59.8056812705,
./stim/MorphM7_08_orig.jpg,202,,,,,,,,,0,202,202,202,,,,,,,,,,,,,,,-5.21484375,-10.576171875,1,0,0,0.81992316246,,,,,2015_Sep_26_1406,G,facesParametric,8,59.8056812705,
./stim/MorphM2_08_orig.jpg,203,,,,,,,,,0,203,203,203,,,,,,,,,,,,,,,-5.185546875,-10.60546875,1,0,0,1.3720471859,,,,,2015_Sep_26_1406,G,facesParametric,8,59.8056812705,
./stim/MorphF1_05_orig.jpg,204,,,,,,,,,0,204,204,204,,,,,,,,,,,,,,,-5.185546875,-10.60546875,1,0,0,1.10498404503,,,,,2015_Sep_26_1406,G,facesParametric,8,59.8056812705,
./stim/MorphM8_06_orig.jpg,205,,,,,,,,,0,205,205,205,,,,,,,,,,,,,,,-5.21484375,-10.576171875,1,0,0,1.44000315666,,,,,2015_Sep_26_1406,G,facesParametric,8,59.8056812705,
./stim/MorphF6_09_orig.jpg,206,,,,,,,,,0,206,206,206,,,,,,,,,,,,,,,-5.21484375,-10.576171875,1,0,0,0.870141983032,,,,,2015_Sep_26_1406,G,facesParametric,8,59.8056812705,
./stim/MorphM1_04_orig.jpg,207,,,,,,,,,0,207,207,207,,,,,,,,,,,,,,,-5.21484375,-10.576171875,0,0,1,0.920777082443,,,,,2015_Sep_26_1406,G,facesParametric,8,59.8056812705,
./stim/MorphM3_07_orig.jpg,208,,,,,,,,,0,208,208,208,,,,,,,,,,,,,,,-5.21484375,-10.576171875,1,0,0,0.86952495575,,,,,2015_Sep_26_1406,G,facesParametric,8,59.8056812705,
./stim/MorphF2_09_orig.jpg,209,,,,,,,,,0,209,209,209,,,,,,,,,,,,,,,-5.21484375,-10.576171875,1,0,0,1.37351799011,,,,,2015_Sep_26_1406,G,facesParametric,8,59.8056812705,
./stim/MorphF4_07_orig.jpg,210,,,,,,,,,0,210,210,210,,,,,,,,,,,,,,,-5.21484375,-10.576171875,1,0,0,0.869655847549,,,,,2015_Sep_26_1406,G,facesParametric,8,59.8056812705,
./stim/MorphM7_01_orig.jpg,211,,,,,,,,,0,211,211,211,,,,,,,,,,,,,,,-5.21484375,-10.576171875,0,0,1,1.16996097565,,,,,2015_Sep_26_1406,G,facesParametric,8,59.8056812705,
./stim/MorphF8_03_orig.jpg,212,,,,,,,,,0,212,212,212,,,,,,,,,,,,,,,-5.185546875,-10.546875,0,0,1,0.837282180786,,,,,2015_Sep_26_1406,G,facesParametric,8,59.8056812705,
./stim/MorphM8_02_orig.jpg,213,,,,,,,,,0,213,213,213,,,,,,,,,,,,,,,-5.185546875,-10.546875,0,0,1,0.90332198143,,,,,2015_Sep_26_1406,G,facesParametric,8,59.8056812705,
./stim/MorphM10_02_orig.jpg,214,,,,,,,,,0,214,214,214,,,,,,,,,,,,,,,-5.185546875,-10.546875,0,0,1,1.3721280098,,,,,2015_Sep_26_1406,G,facesParametric,8,59.8056812705,
./stim/MorphM5_09_orig.jpg,215,,,,,,,,,0,215,215,215,,,,,,,,,,,,,,,-5.21484375,-10.576171875,1,0,0,1.07128882408,,,,,2015_Sep_26_1406,G,facesParametric,8,59.8056812705,
./stim/MorphF5_02_orig.jpg,216,,,,,,,,,0,216,216,216,,,,,,,,,,,,,,,-5.244140625,-10.60546875,0,0,1,1.27156805992,,,,,2015_Sep_26_1406,G,facesParametric,8,59.8056812705,
./stim/MorphM10_10_orig.jpg,217,,,,,,,,,0,217,217,217,,,,,,,,,,,,,,,-5.244140625,-10.60546875,1,0,0,0.852764129639,,,,,2015_Sep_26_1406,G,facesParametric,8,59.8056812705,
./stim/MorphM2_00_orig.jpg,218,,,,,,,,,0,218,218,218,,,,,,,,,,,,,,,-5.244140625,-10.60546875,0,0,1,1.27146196365,,,,,2015_Sep_26_1406,G,facesParametric,8,59.8056812705,
./stim/MorphM9_05_orig.jpg,219,,,,,,,,,0,219,219,219,,,,,,,,,,,,,,,-5.2734375,-10.546875,1,0,0,1.55707907677,,,,,2015_Sep_26_1406,G,facesParametric,8,59.8056812705,
,,,,,,,,,,,,,,,,,,,,,,,,,,,,,,,,,,,,return,32.4919290543,2015_Sep_26_1406,G,facesParametric,8,59.8056812705,
