img,num,basicLoop.thisRepN,basicLoop.thisTrialN,basicLoop.thisN,basicLoop.thisIndex,trials.thisRepN,trials.thisTrialN,trials.thisN,trials.thisIndex,trials2.thisRepN,trials2.thisTrialN,trials2.thisN,trials2.thisIndex,key_resp_2.keys,key_resp_2.rt,basicRating1.response,basicRating1.rt,basicRating2.response,basicRating2.rt,basicRating3.response,basicRating3.rt,basicRating4.response,basicRating4.rt,key_resp_3.keys,key_resp_3.rt,key_resp_4.keys,key_resp_4.rt,mouseResp.x,mouseResp.y,mouseResp.leftButton,mouseResp.midButton,mouseResp.rightButton,mouseResp.time,key_resp_5.keys,key_resp_5.rt,key_resp_7.keys,key_resp_7.rt,date,group,expName,participant,frameRate,
,,,,,,,,,,,,,,return,42.8685510159,,,,,,,,,,,,,,,,,,,,,,,2015_Sep_26_1434,G,facesParametric,9,59.5929954179,
./basicStim/03F_AN_O.jpg,,0,0,0,14,,,,,,,,,,,None,None,None,None,None,None,NTR,11.797,,,,,,,,,,,,,,,2015_Sep_26_1434,G,facesParametric,9,59.5929954179,
./basicStim/02F_NE_C.jpg,,0,1,1,13,,,,,,,,,,,None,None,None,None,None,None,NTR,13.063,,,,,,,,,,,,,,,2015_Sep_26_1434,G,facesParametric,9,59.5929954179,
./basicStim/21M_AN_O.jpg,,0,2,2,42,,,,,,,,,,,None,None,ANG,3.856,None,None,None,None,,,,,,,,,,,,,,,2015_Sep_26_1434,G,facesParametric,9,59.5929954179,
./basicStim/02F_HA_O.jpg,,0,3,3,10,,,,,,,,,,,HAP,3.712,None,None,None,None,None,None,,,,,,,,,,,,,,,2015_Sep_26_1434,G,facesParametric,9,59.5929954179,
./basicStim/36M_AN_O.jpg,,0,4,4,77,,,,,,,,,,,None,None,ANG,6.589,None,None,None,None,,,,,,,,,,,,,,,2015_Sep_26_1434,G,facesParametric,9,59.5929954179,
./basicStim/34M_SP_O.jpg,,0,5,5,75,,,,,,,,,,,None,None,None,None,SUP,2.598,None,None,,,,,,,,,,,,,,,2015_Sep_26_1434,G,facesParametric,9,59.5929954179,
./basicStim/28M_FE_O.jpg,,0,6,6,65,,,,,,,,,,,None,None,FEA,4.093,None,None,None,None,,,,,,,,,,,,,,,2015_Sep_26_1434,G,facesParametric,9,59.5929954179,
./basicStim/01F_HA_O.jpg,,0,7,7,3,,,,,,,,,,,HAP,2.453,None,None,None,None,None,None,,,,,,,,,,,,,,,2015_Sep_26_1434,G,facesParametric,9,59.5929954179,
./basicStim/01F_SA_C.jpg,,0,8,8,4,,,,,,,,,,,SAD,3.562,None,None,None,None,None,None,,,,,,,,,,,,,,,2015_Sep_26_1434,G,facesParametric,9,59.5929954179,
./basicStim/24M_HA_O.jpg,,0,9,9,59,,,,,,,,,,,HAP,1.969,None,None,None,None,None,None,,,,,,,,,,,,,,,2015_Sep_26_1434,G,facesParametric,9,59.5929954179,
./basicStim/02F_SP_O.jpg,,0,10,10,12,,,,,,,,,,,None,None,None,None,SUP,1.618,None,None,,,,,,,,,,,,,,,2015_Sep_26_1434,G,facesParametric,9,59.5929954179,
./basicStim/36M_HA_O.jpg,,0,11,11,80,,,,,,,,,,,HAP,2.452,None,None,None,None,None,None,,,,,,,,,,,,,,,2015_Sep_26_1434,G,facesParametric,9,59.5929954179,
./basicStim/36M_SA_C.jpg,,0,12,12,81,,,,,,,,,,,None,None,ANG,6.11,None,None,None,None,,,,,,,,,,,,,,,2015_Sep_26_1434,G,facesParametric,9,59.5929954179,
./basicStim/07F_AN_O.jpg,,0,13,13,28,,,,,,,,,,,None,None,ANG,2.417,None,None,None,None,,,,,,,,,,,,,,,2015_Sep_26_1434,G,facesParametric,9,59.5929954179,
./basicStim/06F_SP_O.jpg,,0,14,14,26,,,,,,,,,,,None,None,None,None,SUP,1.763,None,None,,,,,,,,,,,,,,,2015_Sep_26_1434,G,facesParametric,9,59.5929954179,
./basicStim/28M_HA_O.jpg,,0,15,15,66,,,,,,,,,,,HAP,1.715,None,None,None,None,None,None,,,,,,,,,,,,,,,2015_Sep_26_1434,G,facesParametric,9,59.5929954179,
./basicStim/21M_DI_O.jpg,,0,16,16,43,,,,,,,,,,,None,None,None,None,DIS,2.233,None,None,,,,,,,,,,,,,,,2015_Sep_26_1434,G,facesParametric,9,59.5929954179,
./basicStim/21M_NE_C.jpg,,0,17,17,48,,,,,,,,,,,None,None,None,None,None,None,NTR,3.608,,,,,,,,,,,,,,,2015_Sep_26_1434,G,facesParametric,9,59.5929954179,
./basicStim/07F_SA_C.jpg,,0,18,18,32,,,,,,,,,,,SAD,2.943,None,None,None,None,None,None,,,,,,,,,,,,,,,2015_Sep_26_1434,G,facesParametric,9,59.5929954179,
./basicStim/07F_HA_O.jpg,,0,19,19,31,,,,,,,,,,,HAP,1.629,None,None,None,None,None,None,,,,,,,,,,,,,,,2015_Sep_26_1434,G,facesParametric,9,59.5929954179,
./basicStim/21M_HA_O.jpg,,0,20,20,45,,,,,,,,,,,HAP,1.031,None,None,None,None,None,None,,,,,,,,,,,,,,,2015_Sep_26_1434,G,facesParametric,9,59.5929954179,
./basicStim/34M_FE_O.jpg,,0,21,21,72,,,,,,,,,,,None,None,None,None,DIS,4.293,None,None,,,,,,,,,,,,,,,2015_Sep_26_1434,G,facesParametric,9,59.5929954179,
./basicStim/09F_HA_O.jpg,,0,22,22,38,,,,,,,,,,,HAP,1.647,None,None,None,None,None,None,,,,,,,,,,,,,,,2015_Sep_26_1434,G,facesParametric,9,59.5929954179,
./basicStim/01F_NE_C.jpg,,0,23,23,6,,,,,,,,,,,None,None,None,None,SUP,3.372,None,None,,,,,,,,,,,,,,,2015_Sep_26_1434,G,facesParametric,9,59.5929954179,
./basicStim/23M_AN_O.jpg,,0,24,24,49,,,,,,,,,,,None,None,ANG,1.952,None,None,None,None,,,,,,,,,,,,,,,2015_Sep_26_1434,G,facesParametric,9,59.5929954179,
./basicStim/03F_SA_C.jpg,,0,25,25,18,,,,,,,,,,,None,None,ANG,3.8,None,None,None,None,,,,,,,,,,,,,,,2015_Sep_26_1434,G,facesParametric,9,59.5929954179,
./basicStim/09F_SA_C.jpg,,0,26,26,39,,,,,,,,,,,None,None,None,None,DIS,3.22,None,None,,,,,,,,,,,,,,,2015_Sep_26_1434,G,facesParametric,9,59.5929954179,
./basicStim/02F_SA_C.jpg,,0,27,27,11,,,,,,,,,,,None,None,ANG,4.008,None,None,None,None,,,,,,,,,,,,,,,2015_Sep_26_1434,G,facesParametric,9,59.5929954179,
./basicStim/23M_SA_C.jpg,,0,28,28,53,,,,,,,,,,,None,None,None,None,DIS,1.986,None,None,,,,,,,,,,,,,,,2015_Sep_26_1434,G,facesParametric,9,59.5929954179,
./basicStim/09F_AN_O.jpg,,0,29,29,35,,,,,,,,,,,None,None,ANG,5.549,None,None,None,None,,,,,,,,,,,,,,,2015_Sep_26_1434,G,facesParametric,9,59.5929954179,
./basicStim/01F_FE_O.jpg,,0,30,30,2,,,,,,,,,,,None,None,None,None,SUP,4.947,None,None,,,,,,,,,,,,,,,2015_Sep_26_1434,G,facesParametric,9,59.5929954179,
./basicStim/24M_SP_O.jpg,,0,31,31,61,,,,,,,,,,,None,None,None,None,SUP,2.604,None,None,,,,,,,,,,,,,,,2015_Sep_26_1434,G,facesParametric,9,59.5929954179,
./basicStim/23M_FE_O.jpg,,0,32,32,51,,,,,,,,,,,None,None,None,None,DIS,4.645,None,None,,,,,,,,,,,,,,,2015_Sep_26_1434,G,facesParametric,9,59.5929954179,
./basicStim/24M_FE_O.jpg,,0,33,33,58,,,,,,,,,,,None,None,FEA,2.485,None,None,None,None,,,,,,,,,,,,,,,2015_Sep_26_1434,G,facesParametric,9,59.5929954179,
./basicStim/21M_FE_O.jpg,,0,34,34,44,,,,,,,,,,,None,None,FEA,1.55,None,None,None,None,,,,,,,,,,,,,,,2015_Sep_26_1434,G,facesParametric,9,59.5929954179,
./basicStim/03F_FE_O.jpg,,0,35,35,16,,,,,,,,,,,None,None,FEA,3.411,None,None,None,None,,,,,,,,,,,,,,,2015_Sep_26_1434,G,facesParametric,9,59.5929954179,
./basicStim/36M_NE_C.jpg,,0,36,36,83,,,,,,,,,,,None,None,None,None,None,None,NTR,2.031,,,,,,,,,,,,,,,2015_Sep_26_1434,G,facesParametric,9,59.5929954179,
./basicStim/01F_SP_O.jpg,,0,37,37,5,,,,,,,,,,,None,None,None,None,SUP,3.025,None,None,,,,,,,,,,,,,,,2015_Sep_26_1434,G,facesParametric,9,59.5929954179,
./basicStim/34M_NE_C.jpg,,0,38,38,76,,,,,,,,,,,None,None,None,None,None,None,NTR,2.773,,,,,,,,,,,,,,,2015_Sep_26_1434,G,facesParametric,9,59.5929954179,
./basicStim/09F_DI_O.jpg,,0,39,39,36,,,,,,,,,,,None,None,None,None,DIS,2.211,None,None,,,,,,,,,,,,,,,2015_Sep_26_1434,G,facesParametric,9,59.5929954179,
./basicStim/09F_FE_O.jpg,,0,40,40,37,,,,,,,,,,,None,None,None,None,SUP,3.172,None,None,,,,,,,,,,,,,,,2015_Sep_26_1434,G,facesParametric,9,59.5929954179,
./basicStim/02F_AN_O.jpg,,0,41,41,7,,,,,,,,,,,None,None,ANG,2.981,None,None,None,None,,,,,,,,,,,,,,,2015_Sep_26_1434,G,facesParametric,9,59.5929954179,
./basicStim/07F_FE_O.jpg,,0,42,42,30,,,,,,,,,,,None,None,None,None,DIS,3.05,None,None,,,,,,,,,,,,,,,2015_Sep_26_1434,G,facesParametric,9,59.5929954179,
./basicStim/28M_SA_C.jpg,,0,43,43,67,,,,,,,,,,,None,None,None,None,SUP,2.69,None,None,,,,,,,,,,,,,,,2015_Sep_26_1434,G,facesParametric,9,59.5929954179,
./basicStim/06F_AN_O.jpg,,0,44,44,21,,,,,,,,,,,None,None,None,None,DIS,3.687,None,None,,,,,,,,,,,,,,,2015_Sep_26_1434,G,facesParametric,9,59.5929954179,
./basicStim/34M_SA_C.jpg,,0,45,45,74,,,,,,,,,,,SAD,3.071,None,None,None,None,None,None,,,,,,,,,,,,,,,2015_Sep_26_1434,G,facesParametric,9,59.5929954179,
./basicStim/28M_NE_C.jpg,,0,46,46,69,,,,,,,,,,,HAP,4.954,None,None,None,None,None,None,,,,,,,,,,,,,,,2015_Sep_26_1434,G,facesParametric,9,59.5929954179,
./basicStim/03F_DI_O.jpg,,0,47,47,15,,,,,,,,,,,None,None,None,None,DIS,2.28,None,None,,,,,,,,,,,,,,,2015_Sep_26_1434,G,facesParametric,9,59.5929954179,
./basicStim/03F_HA_O.jpg,,0,48,48,17,,,,,,,,,,,HAP,1.668,None,None,None,None,None,None,,,,,,,,,,,,,,,2015_Sep_26_1434,G,facesParametric,9,59.5929954179,
./basicStim/28M_DI_O.jpg,,0,49,49,64,,,,,,,,,,,None,None,None,None,DIS,1.877,None,None,,,,,,,,,,,,,,,2015_Sep_26_1434,G,facesParametric,9,59.5929954179,
./basicStim/23M_HA_O.jpg,,0,50,50,52,,,,,,,,,,,HAP,2.0,None,None,None,None,None,None,,,,,,,,,,,,,,,2015_Sep_26_1434,G,facesParametric,9,59.5929954179,
./basicStim/36M_SP_O.jpg,,0,51,51,82,,,,,,,,,,,None,None,None,None,SUP,3.696,None,None,,,,,,,,,,,,,,,2015_Sep_26_1434,G,facesParametric,9,59.5929954179,
./basicStim/24M_SA_C.jpg,,0,52,52,60,,,,,,,,,,,None,None,None,None,DIS,3.375,None,None,,,,,,,,,,,,,,,2015_Sep_26_1434,G,facesParametric,9,59.5929954179,
./basicStim/01F_DI_O.jpg,,0,53,53,1,,,,,,,,,,,None,None,None,None,DIS,3.256,None,None,,,,,,,,,,,,,,,2015_Sep_26_1434,G,facesParametric,9,59.5929954179,
./basicStim/36M_DI_O.jpg,,0,54,54,78,,,,,,,,,,,None,None,None,None,DIS,0.973,None,None,,,,,,,,,,,,,,,2015_Sep_26_1434,G,facesParametric,9,59.5929954179,
./basicStim/06F_SA_C.jpg,,0,55,55,25,,,,,,,,,,,None,None,None,None,DIS,3.737,None,None,,,,,,,,,,,,,,,2015_Sep_26_1434,G,facesParametric,9,59.5929954179,
./basicStim/23M_NE_C.jpg,,0,56,56,55,,,,,,,,,,,None,None,None,None,None,None,NTR,2.869,,,,,,,,,,,,,,,2015_Sep_26_1434,G,facesParametric,9,59.5929954179,
./basicStim/21M_SA_C.jpg,,0,57,57,46,,,,,,,,,,,None,None,FEA,5.168,None,None,None,None,,,,,,,,,,,,,,,2015_Sep_26_1434,G,facesParametric,9,59.5929954179,
./basicStim/06F_HA_O.jpg,,0,58,58,24,,,,,,,,,,,HAP,2.001,None,None,None,None,None,None,,,,,,,,,,,,,,,2015_Sep_26_1434,G,facesParametric,9,59.5929954179,
./basicStim/23M_SP_O.jpg,,0,59,59,54,,,,,,,,,,,None,None,None,None,SUP,1.439,None,None,,,,,,,,,,,,,,,2015_Sep_26_1434,G,facesParametric,9,59.5929954179,
./basicStim/23M_DI_O.jpg,,0,60,60,50,,,,,,,,,,,None,None,None,None,DIS,2.468,None,None,,,,,,,,,,,,,,,2015_Sep_26_1434,G,facesParametric,9,59.5929954179,
./basicStim/36M_FE_O.jpg,,0,61,61,79,,,,,,,,,,,None,None,FEA,2.777,None,None,None,None,,,,,,,,,,,,,,,2015_Sep_26_1434,G,facesParametric,9,59.5929954179,
./basicStim/21M_SP_O.jpg,,0,62,62,47,,,,,,,,,,,None,None,None,None,SUP,2.364,None,None,,,,,,,,,,,,,,,2015_Sep_26_1434,G,facesParametric,9,59.5929954179,
./basicStim/09F_SP_O.jpg,,0,63,63,40,,,,,,,,,,,None,None,None,None,SUP,0.864,None,None,,,,,,,,,,,,,,,2015_Sep_26_1434,G,facesParametric,9,59.5929954179,
./basicStim/28M_SP_O.jpg,,0,64,64,68,,,,,,,,,,,None,None,None,None,SUP,0.891,None,None,,,,,,,,,,,,,,,2015_Sep_26_1434,G,facesParametric,9,59.5929954179,
./basicStim/02F_DI_O.jpg,,0,65,65,8,,,,,,,,,,,None,None,None,None,DIS,2.917,None,None,,,,,,,,,,,,,,,2015_Sep_26_1434,G,facesParametric,9,59.5929954179,
./basicStim/34M_AN_O.jpg,,0,66,66,70,,,,,,,,,,,None,None,None,None,DIS,3.344,None,None,,,,,,,,,,,,,,,2015_Sep_26_1434,G,facesParametric,9,59.5929954179,
./basicStim/07F_NE_C.jpg,,0,67,67,34,,,,,,,,,,,SAD,5.521,None,None,None,None,None,None,,,,,,,,,,,,,,,2015_Sep_26_1434,G,facesParametric,9,59.5929954179,
./basicStim/09F_NE_C.jpg,,0,68,68,41,,,,,,,,,,,None,None,None,None,None,None,NTR,1.742,,,,,,,,,,,,,,,2015_Sep_26_1434,G,facesParametric,9,59.5929954179,
./basicStim/34M_HA_O.jpg,,0,69,69,73,,,,,,,,,,,HAP,3.34,None,None,None,None,None,None,,,,,,,,,,,,,,,2015_Sep_26_1434,G,facesParametric,9,59.5929954179,
./basicStim/07F_SP_O.jpg,,0,70,70,33,,,,,,,,,,,None,None,None,None,SUP,2.464,None,None,,,,,,,,,,,,,,,2015_Sep_26_1434,G,facesParametric,9,59.5929954179,
./basicStim/24M_AN_O.jpg,,0,71,71,56,,,,,,,,,,,None,None,ANG,3.324,None,None,None,None,,,,,,,,,,,,,,,2015_Sep_26_1434,G,facesParametric,9,59.5929954179,
./basicStim/06F_DI_O.jpg,,0,72,72,22,,,,,,,,,,,None,None,None,None,DIS,3.168,None,None,,,,,,,,,,,,,,,2015_Sep_26_1434,G,facesParametric,9,59.5929954179,
./basicStim/06F_FE_O.jpg,,0,73,73,23,,,,,,,,,,,None,None,None,None,SUP,2.318,None,None,,,,,,,,,,,,,,,2015_Sep_26_1434,G,facesParametric,9,59.5929954179,
./basicStim/03F_SP_O.jpg,,0,74,74,19,,,,,,,,,,,HAP,3.74,None,None,None,None,None,None,,,,,,,,,,,,,,,2015_Sep_26_1434,G,facesParametric,9,59.5929954179,
./basicStim/07F_DI_O.jpg,,0,75,75,29,,,,,,,,,,,None,None,None,None,DIS,2.416,None,None,,,,,,,,,,,,,,,2015_Sep_26_1434,G,facesParametric,9,59.5929954179,
./basicStim/28M_AN_O.jpg,,0,76,76,63,,,,,,,,,,,None,None,ANG,3.556,None,None,None,None,,,,,,,,,,,,,,,2015_Sep_26_1434,G,facesParametric,9,59.5929954179,
./basicStim/01F_AN_O.jpg,,0,77,77,0,,,,,,,,,,,None,None,ANG,1.95,None,None,None,None,,,,,,,,,,,,,,,2015_Sep_26_1434,G,facesParametric,9,59.5929954179,
./basicStim/03F_NE_C.jpg,,0,78,78,20,,,,,,,,,,,None,None,None,None,None,None,NTR,3.025,,,,,,,,,,,,,,,2015_Sep_26_1434,G,facesParametric,9,59.5929954179,
./basicStim/24M_NE_C.jpg,,0,79,79,62,,,,,,,,,,,None,None,None,None,None,None,NTR,3.904,,,,,,,,,,,,,,,2015_Sep_26_1434,G,facesParametric,9,59.5929954179,
./basicStim/06F_NE_C.jpg,,0,80,80,27,,,,,,,,,,,None,None,None,None,SUP,4.209,None,None,,,,,,,,,,,,,,,2015_Sep_26_1434,G,facesParametric,9,59.5929954179,
./basicStim/34M_DI_O.jpg,,0,81,81,71,,,,,,,,,,,None,None,None,None,DIS,4.244,None,None,,,,,,,,,,,,,,,2015_Sep_26_1434,G,facesParametric,9,59.5929954179,
./basicStim/02F_FE_O.jpg,,0,82,82,9,,,,,,,,,,,None,None,FEA,4.453,None,None,None,None,,,,,,,,,,,,,,,2015_Sep_26_1434,G,facesParametric,9,59.5929954179,
./basicStim/24M_DI_O.jpg,,0,83,83,57,,,,,,,,,,,None,None,None,None,SUP,4.309,None,None,,,,,,,,,,,,,,,2015_Sep_26_1434,G,facesParametric,9,59.5929954179,
,,,,,,,,,,,,,,,,,,,,,,,,return,17.2643229961,,,,,,,,,,,,,2015_Sep_26_1434,G,facesParametric,9,59.5929954179,
,,,,,,,,,,,,,,return,1.27229094505,,,,,,,,,,,,,,,,,,,,,,,2015_Sep_26_1434,G,facesParametric,9,59.5929954179,
,,,,,,,,,,,,,,,,,,,,,,,,return,9.55314302444,,,,,,,,,,,,,2015_Sep_26_1434,G,facesParametric,9,59.5929954179,
,,,,,,,,,,,,,,,,,,,,,,,,,,return,16.0052530766,,,,,,,,,,,2015_Sep_26_1434,G,facesParametric,9,59.5929954179,
./stim/MorphM9_07_orig.jpg,0,,,,,0,0,0,0,,,,,,,,,,,,,,,,,,,-12.275390625,11.982421875,1,0,0,3.54269099236,,,,,2015_Sep_26_1434,G,facesParametric,9,59.5929954179,
./stim/MorphM10_05_orig.jpg,1,,,,,0,1,1,1,,,,,,,,,,,,,,,,,,,-12.451171875,12.01171875,1,0,0,5.20933794975,,,,,2015_Sep_26_1434,G,facesParametric,9,59.5929954179,
./stim/MorphM2_07_orig.jpg,2,,,,,0,2,2,2,,,,,,,,,,,,,,,,,,,-12.36328125,11.8359375,0,0,1,8.17780804634,,,,,2015_Sep_26_1434,G,facesParametric,9,59.5929954179,
./stim/MorphF5_06_orig.jpg,3,,,,,0,3,3,3,,,,,,,,,,,,,,,,,,,-23.173828125,-10.6640625,1,0,0,10.3725199699,,,,,2015_Sep_26_1434,G,facesParametric,9,59.5929954179,
./stim/MorphM3_09_orig.jpg,4,,,,,0,4,4,4,,,,,,,,,,,,,,,,,,,-20.80078125,-9.31640625,0,0,1,1.95781493187,,,,,2015_Sep_26_1434,G,facesParametric,9,59.5929954179,
./stim/MorphF9_04_orig.jpg,5,,,,,0,5,5,5,,,,,,,,,,,,,,,,,,,-20.771484375,-9.2578125,1,0,0,4.40518522263,,,,,2015_Sep_26_1434,G,facesParametric,9,59.5929954179,
./stim/MorphM3_04_orig.jpg,6,,,,,0,6,6,6,,,,,,,,,,,,,,,,,,,-20.771484375,-9.2578125,0,0,1,1.08796620369,,,,,2015_Sep_26_1434,G,facesParametric,9,59.5929954179,
./stim/MorphF10_00_orig.jpg,7,,,,,0,7,7,7,,,,,,,,,,,,,,,,,,,-20.771484375,-9.2578125,1,0,0,10.25553298,,,,,2015_Sep_26_1434,G,facesParametric,9,59.5929954179,
./stim/MorphF6_01_orig.jpg,8,,,,,0,8,8,8,,,,,,,,,,,,,,,,,,,-20.771484375,-9.2578125,1,0,0,1.97639012337,,,,,2015_Sep_26_1434,G,facesParametric,9,59.5929954179,
./stim/MorphF1_01_orig.jpg,9,,,,,0,9,9,9,,,,,,,,,,,,,,,,,,,-20.771484375,-9.2578125,0,0,1,1.5574760437,,,,,2015_Sep_26_1434,G,facesParametric,9,59.5929954179,
./stim/MorphM3_07_orig.jpg,10,,,,,0,10,10,10,,,,,,,,,,,,,,,,,,,-20.771484375,-9.2578125,0,0,1,3.51796793938,,,,,2015_Sep_26_1434,G,facesParametric,9,59.5929954179,
./stim/MorphF7_08_orig.jpg,11,,,,,0,11,11,11,,,,,,,,,,,,,,,,,,,-20.771484375,-9.2578125,0,0,1,1.2225689888,,,,,2015_Sep_26_1434,G,facesParametric,9,59.5929954179,
./stim/MorphM7_07_orig.jpg,12,,,,,0,12,12,12,,,,,,,,,,,,,,,,,,,-20.771484375,-9.2578125,0,0,1,2.04342389107,,,,,2015_Sep_26_1434,G,facesParametric,9,59.5929954179,
./stim/MorphM9_04_orig.jpg,13,,,,,0,13,13,13,,,,,,,,,,,,,,,,,,,-20.80078125,-9.287109375,1,0,0,2.66346096992,,,,,2015_Sep_26_1434,G,facesParametric,9,59.5929954179,
./stim/MorphF7_02_orig.jpg,14,,,,,0,14,14,14,,,,,,,,,,,,,,,,,,,-20.80078125,-9.287109375,1,0,0,3.24972295761,,,,,2015_Sep_26_1434,G,facesParametric,9,59.5929954179,
./stim/MorphM4_02_orig.jpg,15,,,,,0,15,15,15,,,,,,,,,,,,,,,,,,,-20.80078125,-9.2578125,1,0,0,2.34535193443,,,,,2015_Sep_26_1434,G,facesParametric,9,59.5929954179,
./stim/MorphF2_08_orig.jpg,16,,,,,0,16,16,16,,,,,,,,,,,,,,,,,,,-20.80078125,-9.2578125,0,0,1,1.02061510086,,,,,2015_Sep_26_1434,G,facesParametric,9,59.5929954179,
./stim/MorphM10_04_orig.jpg,17,,,,,0,17,17,17,,,,,,,,,,,,,,,,,,,-20.80078125,-9.2578125,0,0,1,0.818838834763,,,,,2015_Sep_26_1434,G,facesParametric,9,59.5929954179,
./stim/MorphM6_05_orig.jpg,18,,,,,0,18,18,18,,,,,,,,,,,,,,,,,,,-20.712890625,-9.140625,1,0,0,2.68009400368,,,,,2015_Sep_26_1434,G,facesParametric,9,59.5929954179,
./stim/MorphM5_00_orig.jpg,19,,,,,0,19,19,19,,,,,,,,,,,,,,,,,,,-20.712890625,-9.140625,1,0,0,2.76409602165,,,,,2015_Sep_26_1434,G,facesParametric,9,59.5929954179,
./stim/MorphF1_03_orig.jpg,20,,,,,0,20,20,20,,,,,,,,,,,,,,,,,,,-20.712890625,-9.140625,1,0,0,2.54586601257,,,,,2015_Sep_26_1434,G,facesParametric,9,59.5929954179,
./stim/MorphF5_05_orig.jpg,21,,,,,0,21,21,21,,,,,,,,,,,,,,,,,,,-20.712890625,-9.140625,0,0,1,2.10972189903,,,,,2015_Sep_26_1434,G,facesParametric,9,59.5929954179,
./stim/MorphM10_02_orig.jpg,22,,,,,0,22,22,22,,,,,,,,,,,,,,,,,,,-20.712890625,-9.140625,0,0,1,1.03744792938,,,,,2015_Sep_26_1434,G,facesParametric,9,59.5929954179,
./stim/MorphM8_08_orig.jpg,23,,,,,0,23,23,23,,,,,,,,,,,,,,,,,,,-20.712890625,-9.140625,0,0,1,1.18842482567,,,,,2015_Sep_26_1434,G,facesParametric,9,59.5929954179,
./stim/MorphF3_05_orig.jpg,24,,,,,0,24,24,24,,,,,,,,,,,,,,,,,,,-20.712890625,-9.140625,1,0,0,2.04207801819,,,,,2015_Sep_26_1434,G,facesParametric,9,59.5929954179,
./stim/MorphM8_07_orig.jpg,25,,,,,0,25,25,25,,,,,,,,,,,,,,,,,,,-20.7421875,-9.111328125,0,0,1,1.97587513924,,,,,2015_Sep_26_1434,G,facesParametric,9,59.5929954179,
./stim/MorphF4_01_orig.jpg,26,,,,,0,26,26,26,,,,,,,,,,,,,,,,,,,-20.7421875,-9.111328125,1,0,0,2.21068716049,,,,,2015_Sep_26_1434,G,facesParametric,9,59.5929954179,
./stim/MorphM10_00_orig.jpg,27,,,,,0,27,27,27,,,,,,,,,,,,,,,,,,,-20.7421875,-9.111328125,1,0,0,2.04367399216,,,,,2015_Sep_26_1434,G,facesParametric,9,59.5929954179,
./stim/MorphM8_09_orig.jpg,28,,,,,0,28,28,28,,,,,,,,,,,,,,,,,,,-20.7421875,-9.111328125,0,0,1,0.935981988907,,,,,2015_Sep_26_1434,G,facesParametric,9,59.5929954179,
./stim/MorphM2_01_orig.jpg,29,,,,,0,29,29,29,,,,,,,,,,,,,,,,,,,-20.712890625,-9.08203125,1,0,0,2.14449501038,,,,,2015_Sep_26_1434,G,facesParametric,9,59.5929954179,
./stim/MorphM6_03_orig.jpg,30,,,,,0,30,30,30,,,,,,,,,,,,,,,,,,,-20.712890625,-9.08203125,0,0,1,4.77447295189,,,,,2015_Sep_26_1434,G,facesParametric,9,59.5929954179,
./stim/MorphM8_03_orig.jpg,31,,,,,0,31,31,31,,,,,,,,,,,,,,,,,,,-20.712890625,-9.08203125,0,0,1,3.56792902946,,,,,2015_Sep_26_1434,G,facesParametric,9,59.5929954179,
./stim/MorphF2_01_orig.jpg,32,,,,,0,32,32,32,,,,,,,,,,,,,,,,,,,-20.7421875,-9.052734375,1,0,0,1.52383613586,,,,,2015_Sep_26_1434,G,facesParametric,9,59.5929954179,
./stim/MorphM9_01_orig.jpg,33,,,,,0,33,33,33,,,,,,,,,,,,,,,,,,,-20.7421875,-9.052734375,1,0,0,2.24420619011,,,,,2015_Sep_26_1434,G,facesParametric,9,59.5929954179,
./stim/MorphF4_09_orig.jpg,34,,,,,0,34,34,34,,,,,,,,,,,,,,,,,,,-20.7421875,-9.052734375,0,0,1,1.20367503166,,,,,2015_Sep_26_1434,G,facesParametric,9,59.5929954179,
./stim/MorphM3_05_orig.jpg,35,,,,,0,35,35,35,,,,,,,,,,,,,,,,,,,-20.7421875,-9.052734375,0,0,1,2.11026597023,,,,,2015_Sep_26_1434,G,facesParametric,9,59.5929954179,
./stim/MorphM8_02_orig.jpg,36,,,,,0,36,36,36,,,,,,,,,,,,,,,,,,,-20.7421875,-9.052734375,0,0,1,3.43436789513,,,,,2015_Sep_26_1434,G,facesParametric,9,59.5929954179,
./stim/MorphF8_09_orig.jpg,37,,,,,0,37,37,37,,,,,,,,,,,,,,,,,,,-20.7421875,-9.052734375,0,0,1,3.03211903572,,,,,2015_Sep_26_1434,G,facesParametric,9,59.5929954179,
./stim/MorphM7_08_orig.jpg,38,,,,,0,38,38,38,,,,,,,,,,,,,,,,,,,-20.7421875,-9.052734375,0,0,1,1.99144387245,,,,,2015_Sep_26_1434,G,facesParametric,9,59.5929954179,
./stim/MorphM8_10_orig.jpg,39,,,,,0,39,39,39,,,,,,,,,,,,,,,,,,,-20.7421875,-9.052734375,0,0,1,1.22224998474,,,,,2015_Sep_26_1434,G,facesParametric,9,59.5929954179,
./stim/MorphF7_06_orig.jpg,40,,,,,0,40,40,40,,,,,,,,,,,,,,,,,,,-20.7421875,-9.052734375,0,0,1,4.20551896095,,,,,2015_Sep_26_1434,G,facesParametric,9,59.5929954179,
./stim/MorphF9_06_orig.jpg,41,,,,,0,41,41,41,,,,,,,,,,,,,,,,,,,-20.7421875,-9.052734375,1,0,0,2.67994809151,,,,,2015_Sep_26_1434,G,facesParametric,9,59.5929954179,
./stim/MorphF6_06_orig.jpg,42,,,,,0,42,42,42,,,,,,,,,,,,,,,,,,,-20.7421875,-9.052734375,1,0,0,2.11063909531,,,,,2015_Sep_26_1434,G,facesParametric,9,59.5929954179,
./stim/MorphM7_10_orig.jpg,43,,,,,0,43,43,43,,,,,,,,,,,,,,,,,,,-20.7421875,-9.052734375,0,0,1,0.836722135544,,,,,2015_Sep_26_1434,G,facesParametric,9,59.5929954179,
./stim/MorphF3_01_orig.jpg,44,,,,,0,44,44,44,,,,,,,,,,,,,,,,,,,-20.771484375,-9.08203125,1,0,0,1.82486605644,,,,,2015_Sep_26_1434,G,facesParametric,9,59.5929954179,
./stim/MorphM7_06_orig.jpg,45,,,,,0,45,45,45,,,,,,,,,,,,,,,,,,,-20.771484375,-9.08203125,0,0,1,1.52367997169,,,,,2015_Sep_26_1434,G,facesParametric,9,59.5929954179,
./stim/MorphM9_03_orig.jpg,46,,,,,0,46,46,46,,,,,,,,,,,,,,,,,,,-20.771484375,-9.08203125,1,0,0,1.75789690018,,,,,2015_Sep_26_1434,G,facesParametric,9,59.5929954179,
./stim/MorphF7_10_orig.jpg,47,,,,,0,47,47,47,,,,,,,,,,,,,,,,,,,-20.771484375,-9.08203125,0,0,1,1.40589189529,,,,,2015_Sep_26_1434,G,facesParametric,9,59.5929954179,
./stim/MorphF4_03_orig.jpg,48,,,,,0,48,48,48,,,,,,,,,,,,,,,,,,,-20.771484375,-9.08203125,1,0,0,3.56825208664,,,,,2015_Sep_26_1434,G,facesParametric,9,59.5929954179,
./stim/MorphF7_04_orig.jpg,49,,,,,0,49,49,49,,,,,,,,,,,,,,,,,,,-20.771484375,-9.08203125,1,0,0,1.8417301178,,,,,2015_Sep_26_1434,G,facesParametric,9,59.5929954179,
./stim/MorphM10_10_orig.jpg,50,,,,,0,50,50,50,,,,,,,,,,,,,,,,,,,-20.771484375,-9.08203125,0,0,1,0.971616983414,,,,,2015_Sep_26_1434,G,facesParametric,9,59.5929954179,
./stim/MorphM3_01_orig.jpg,51,,,,,0,51,51,51,,,,,,,,,,,,,,,,,,,-20.771484375,-9.08203125,1,0,0,1.89188694954,,,,,2015_Sep_26_1434,G,facesParametric,9,59.5929954179,
./stim/MorphM2_04_orig.jpg,52,,,,,0,52,52,52,,,,,,,,,,,,,,,,,,,-20.771484375,-9.08203125,1,0,0,1.30583095551,,,,,2015_Sep_26_1434,G,facesParametric,9,59.5929954179,
./stim/MorphF1_04_orig.jpg,53,,,,,0,53,53,53,,,,,,,,,,,,,,,,,,,-20.771484375,-9.08203125,1,0,0,1.62465286255,,,,,2015_Sep_26_1434,G,facesParametric,9,59.5929954179,
./stim/MorphM4_01_orig.jpg,54,,,,,0,54,54,54,,,,,,,,,,,,,,,,,,,-20.771484375,-9.08203125,1,0,0,2.44433093071,,,,,2015_Sep_26_1434,G,facesParametric,9,59.5929954179,
./stim/MorphF7_01_orig.jpg,55,,,,,0,55,55,55,,,,,,,,,,,,,,,,,,,-20.771484375,-9.08203125,0,0,1,3.23356199265,,,,,2015_Sep_26_1434,G,facesParametric,9,59.5929954179,
./stim/MorphF2_09_orig.jpg,56,,,,,0,56,56,56,,,,,,,,,,,,,,,,,,,-20.771484375,-9.08203125,0,0,1,0.920338153839,,,,,2015_Sep_26_1434,G,facesParametric,9,59.5929954179,
./stim/MorphM1_02_orig.jpg,57,,,,,0,57,57,57,,,,,,,,,,,,,,,,,,,-20.771484375,-9.08203125,1,0,0,1.9769589901,,,,,2015_Sep_26_1434,G,facesParametric,9,59.5929954179,
./stim/MorphM6_01_orig.jpg,58,,,,,0,58,58,58,,,,,,,,,,,,,,,,,,,-20.771484375,-9.08203125,1,0,0,1.65726113319,,,,,2015_Sep_26_1434,G,facesParametric,9,59.5929954179,
./stim/MorphF5_09_orig.jpg,59,,,,,0,59,59,59,,,,,,,,,,,,,,,,,,,-20.771484375,-9.08203125,0,0,1,1.32169294357,,,,,2015_Sep_26_1434,G,facesParametric,9,59.5929954179,
./stim/MorphF3_02_orig.jpg,60,,,,,0,60,60,60,,,,,,,,,,,,,,,,,,,-20.771484375,-9.08203125,1,0,0,1.75822401047,,,,,2015_Sep_26_1434,G,facesParametric,9,59.5929954179,
./stim/MorphF5_07_orig.jpg,61,,,,,0,61,61,61,,,,,,,,,,,,,,,,,,,-20.771484375,-9.08203125,0,0,1,4.27219390869,,,,,2015_Sep_26_1434,G,facesParametric,9,59.5929954179,
./stim/MorphM9_05_orig.jpg,62,,,,,0,62,62,62,,,,,,,,,,,,,,,,,,,-20.80078125,-9.052734375,0,0,1,6.08220696449,,,,,2015_Sep_26_1434,G,facesParametric,9,59.5929954179,
./stim/MorphF8_03_orig.jpg,63,,,,,0,63,63,63,,,,,,,,,,,,,,,,,,,-20.80078125,-9.052734375,1,0,0,1.33985090256,,,,,2015_Sep_26_1434,G,facesParametric,9,59.5929954179,
./stim/MorphM7_03_orig.jpg,64,,,,,0,64,64,64,,,,,,,,,,,,,,,,,,,-20.80078125,-9.052734375,0,0,1,2.66316199303,,,,,2015_Sep_26_1434,G,facesParametric,9,59.5929954179,
./stim/MorphF2_00_orig.jpg,65,,,,,0,65,65,65,,,,,,,,,,,,,,,,,,,-20.80078125,-9.052734375,1,0,0,3.13303017616,,,,,2015_Sep_26_1434,G,facesParametric,9,59.5929954179,
./stim/MorphM1_00_orig.jpg,66,,,,,0,66,66,66,,,,,,,,,,,,,,,,,,,-20.80078125,-9.052734375,1,0,0,2.07658004761,,,,,2015_Sep_26_1434,G,facesParametric,9,59.5929954179,
./stim/MorphF3_00_orig.jpg,67,,,,,0,67,67,67,,,,,,,,,,,,,,,,,,,-20.80078125,-9.052734375,1,0,0,1.33939003944,,,,,2015_Sep_26_1434,G,facesParametric,9,59.5929954179,
./stim/MorphM4_03_orig.jpg,68,,,,,0,68,68,68,,,,,,,,,,,,,,,,,,,-20.80078125,-9.052734375,1,0,0,1.7411210537,,,,,2015_Sep_26_1434,G,facesParametric,9,59.5929954179,
./stim/MorphF4_07_orig.jpg,69,,,,,0,69,69,69,,,,,,,,,,,,,,,,,,,-20.80078125,-9.052734375,0,0,1,3.2334291935,,,,,2015_Sep_26_1434,G,facesParametric,9,59.5929954179,
./stim/MorphM5_09_orig.jpg,70,,,,,0,70,70,70,,,,,,,,,,,,,,,,,,,-20.80078125,-9.052734375,0,0,1,1.69166612625,,,,,2015_Sep_26_1434,G,facesParametric,9,59.5929954179,
./stim/MorphF3_07_orig.jpg,71,,,,,0,71,71,71,,,,,,,,,,,,,,,,,,,-20.771484375,-9.08203125,0,0,1,3.97047615051,,,,,2015_Sep_26_1434,G,facesParametric,9,59.5929954179,
./stim/MorphF1_10_orig.jpg,72,,,,,0,72,72,72,,,,,,,,,,,,,,,,,,,-20.771484375,-9.08203125,0,0,1,2.11022686958,,,,,2015_Sep_26_1434,G,facesParametric,9,59.5929954179,
./stim/MorphM3_08_orig.jpg,73,,,,,0,73,73,73,,,,,,,,,,,,,,,,,,,-20.771484375,-9.08203125,0,0,1,1.03789401054,,,,,2015_Sep_26_1434,G,facesParametric,9,59.5929954179,
./stim/MorphM2_03_orig.jpg,74,,,,,0,74,74,74,,,,,,,,,,,,,,,,,,,-20.771484375,-9.08203125,1,0,0,2.17767810822,,,,,2015_Sep_26_1434,G,facesParametric,9,59.5929954179,
./stim/MorphF3_10_orig.jpg,75,,,,,0,75,75,75,,,,,,,,,,,,,,,,,,,-20.771484375,-9.08203125,0,0,1,1.45567893982,,,,,2015_Sep_26_1434,G,facesParametric,9,59.5929954179,
./stim/MorphF5_02_orig.jpg,76,,,,,0,76,76,76,,,,,,,,,,,,,,,,,,,-20.771484375,-9.08203125,1,0,0,4.40632414818,,,,,2015_Sep_26_1434,G,facesParametric,9,59.5929954179,
./stim/MorphF3_06_orig.jpg,77,,,,,0,77,77,77,,,,,,,,,,,,,,,,,,,-20.771484375,-9.08203125,0,0,1,1.69121909142,,,,,2015_Sep_26_1434,G,facesParametric,9,59.5929954179,
./stim/MorphM2_00_orig.jpg,78,,,,,0,78,78,78,,,,,,,,,,,,,,,,,,,-20.771484375,-9.08203125,1,0,0,1.12176084518,,,,,2015_Sep_26_1434,G,facesParametric,9,59.5929954179,
./stim/MorphM1_06_orig.jpg,79,,,,,0,79,79,79,,,,,,,,,,,,,,,,,,,-20.771484375,-9.08203125,0,0,1,1.23864197731,,,,,2015_Sep_26_1434,G,facesParametric,9,59.5929954179,
./stim/MorphM8_06_orig.jpg,80,,,,,0,80,80,80,,,,,,,,,,,,,,,,,,,-20.771484375,-9.08203125,0,0,1,1.05512905121,,,,,2015_Sep_26_1434,G,facesParametric,9,59.5929954179,
./stim/MorphF10_04_orig.jpg,81,,,,,0,81,81,81,,,,,,,,,,,,,,,,,,,-20.771484375,-9.08203125,0,0,1,1.13823199272,,,,,2015_Sep_26_1434,G,facesParametric,9,59.5929954179,
./stim/MorphM2_10_orig.jpg,82,,,,,0,82,82,82,,,,,,,,,,,,,,,,,,,-20.771484375,-9.08203125,0,0,1,0.920351028442,,,,,2015_Sep_26_1434,G,facesParametric,9,59.5929954179,
./stim/MorphF9_00_orig.jpg,83,,,,,0,83,83,83,,,,,,,,,,,,,,,,,,,-20.771484375,-9.08203125,1,0,0,3.46799993515,,,,,2015_Sep_26_1434,G,facesParametric,9,59.5929954179,
./stim/MorphM5_07_orig.jpg,84,,,,,0,84,84,84,,,,,,,,,,,,,,,,,,,-20.771484375,-9.08203125,0,0,1,0.902229070663,,,,,2015_Sep_26_1434,G,facesParametric,9,59.5929954179,
./stim/MorphF3_03_orig.jpg,85,,,,,0,85,85,85,,,,,,,,,,,,,,,,,,,-20.771484375,-9.08203125,1,0,0,4.6078619957,,,,,2015_Sep_26_1434,G,facesParametric,9,59.5929954179,
./stim/MorphF4_02_orig.jpg,86,,,,,0,86,86,86,,,,,,,,,,,,,,,,,,,-20.771484375,-9.08203125,1,0,0,1.54073691368,,,,,2015_Sep_26_1434,G,facesParametric,9,59.5929954179,
./stim/MorphF6_00_orig.jpg,87,,,,,0,87,87,87,,,,,,,,,,,,,,,,,,,-20.771484375,-9.08203125,1,0,0,2.17650699615,,,,,2015_Sep_26_1434,G,facesParametric,9,59.5929954179,
./stim/MorphF4_04_orig.jpg,88,,,,,0,88,88,88,,,,,,,,,,,,,,,,,,,-20.771484375,-9.08203125,1,0,0,1.77569103241,,,,,2015_Sep_26_1434,G,facesParametric,9,59.5929954179,
./stim/MorphM7_02_orig.jpg,89,,,,,0,89,89,89,,,,,,,,,,,,,,,,,,,-20.7421875,-9.08203125,0,0,1,3.39978599548,,,,,2015_Sep_26_1434,G,facesParametric,9,59.5929954179,
./stim/MorphM3_03_orig.jpg,90,,,,,0,90,90,90,,,,,,,,,,,,,,,,,,,-20.7421875,-9.08203125,1,0,0,3.68583202362,,,,,2015_Sep_26_1434,G,facesParametric,9,59.5929954179,
./stim/MorphF9_03_orig.jpg,91,,,,,0,91,91,91,,,,,,,,,,,,,,,,,,,-20.7421875,-9.08203125,0,0,1,1.82554197311,,,,,2015_Sep_26_1434,G,facesParametric,9,59.5929954179,
./stim/MorphM7_05_orig.jpg,92,,,,,0,92,92,92,,,,,,,,,,,,,,,,,,,-20.7421875,-9.08203125,0,0,1,1.00365018845,,,,,2015_Sep_26_1434,G,facesParametric,9,59.5929954179,
./stim/MorphM1_07_orig.jpg,93,,,,,0,93,93,93,,,,,,,,,,,,,,,,,,,-20.7421875,-9.08203125,0,0,1,1.1219329834,,,,,2015_Sep_26_1434,G,facesParametric,9,59.5929954179,
./stim/MorphM4_00_orig.jpg,94,,,,,0,94,94,94,,,,,,,,,,,,,,,,,,,-20.537109375,-9.052734375,1,0,0,1.8410449028,,,,,2015_Sep_26_1434,G,facesParametric,9,59.5929954179,
./stim/MorphM9_08_orig.jpg,95,,,,,0,95,95,95,,,,,,,,,,,,,,,,,,,-20.5078125,-9.0234375,0,0,1,2.86471915245,,,,,2015_Sep_26_1434,G,facesParametric,9,59.5929954179,
./stim/MorphF6_02_orig.jpg,96,,,,,0,96,96,96,,,,,,,,,,,,,,,,,,,-20.5078125,-9.0234375,1,0,0,2.48034310341,,,,,2015_Sep_26_1434,G,facesParametric,9,59.5929954179,
./stim/MorphF7_09_orig.jpg,97,,,,,0,97,97,97,,,,,,,,,,,,,,,,,,,-20.5078125,-9.0234375,0,0,1,1.01990914345,,,,,2015_Sep_26_1434,G,facesParametric,9,59.5929954179,
./stim/MorphM2_08_orig.jpg,98,,,,,0,98,98,98,,,,,,,,,,,,,,,,,,,-20.5078125,-9.0234375,0,0,1,1.67316794395,,,,,2015_Sep_26_1434,G,facesParametric,9,59.5929954179,
./stim/MorphM6_09_orig.jpg,99,,,,,0,99,99,99,,,,,,,,,,,,,,,,,,,-20.5078125,-9.0234375,0,0,1,1.00248503685,,,,,2015_Sep_26_1434,G,facesParametric,9,59.5929954179,
./stim/MorphF2_10_orig.jpg,100,,,,,0,100,100,100,,,,,,,,,,,,,,,,,,,-20.5078125,-9.0234375,0,0,1,1.10480093956,,,,,2015_Sep_26_1434,G,facesParametric,9,59.5929954179,
./stim/MorphF10_07_orig.jpg,101,,,,,0,101,101,101,,,,,,,,,,,,,,,,,,,-20.5078125,-9.0234375,0,0,1,2.39556789398,,,,,2015_Sep_26_1434,G,facesParametric,9,59.5929954179,
./stim/MorphM5_04_orig.jpg,102,,,,,0,102,102,102,,,,,,,,,,,,,,,,,,,-20.5078125,-9.0234375,1,0,0,4.57467579842,,,,,2015_Sep_26_1434,G,facesParametric,9,59.5929954179,
./stim/MorphF8_05_orig.jpg,103,,,,,0,103,103,103,,,,,,,,,,,,,,,,,,,-20.5078125,-9.0234375,0,0,1,1.4055480957,,,,,2015_Sep_26_1434,G,facesParametric,9,59.5929954179,
./stim/MorphF2_03_orig.jpg,104,,,,,0,104,104,104,,,,,,,,,,,,,,,,,,,-20.5078125,-9.0234375,0,0,1,2.10999798775,,,,,2015_Sep_26_1434,G,facesParametric,9,59.5929954179,
./stim/MorphM3_00_orig.jpg,105,,,,,0,105,105,105,,,,,,,,,,,,,,,,,,,-20.5078125,-9.0234375,1,0,0,1.64093399048,,,,,2015_Sep_26_1434,G,facesParametric,9,59.5929954179,
./stim/MorphM5_08_orig.jpg,106,,,,,0,106,106,106,,,,,,,,,,,,,,,,,,,-20.5078125,-9.0234375,0,0,1,1.05479192734,,,,,2015_Sep_26_1434,G,facesParametric,9,59.5929954179,
./stim/MorphM10_01_orig.jpg,107,,,,,0,107,107,107,,,,,,,,,,,,,,,,,,,-20.5078125,-9.0234375,1,0,0,1.52418684959,,,,,2015_Sep_26_1434,G,facesParametric,9,59.5929954179,
./stim/MorphF2_05_orig.jpg,108,,,,,0,108,108,108,,,,,,,,,,,,,,,,,,,-20.419921875,-9.0234375,0,0,1,0.98716711998,,,,,2015_Sep_26_1434,G,facesParametric,9,59.5929954179,
./stim/MorphF7_03_orig.jpg,109,,,,,0,109,109,109,,,,,,,,,,,,,,,,,,,-20.390625,-9.0234375,1,0,0,3.36751294136,,,,,2015_Sep_26_1434,G,facesParametric,9,59.5929954179,
./stim/MorphM4_06_orig.jpg,110,,,,,0,110,110,110,,,,,,,,,,,,,,,,,,,-20.390625,-9.0234375,0,0,1,1.94099998474,,,,,2015_Sep_26_1434,G,facesParametric,9,59.5929954179,
./stim/MorphM9_06_orig.jpg,111,,,,,0,111,111,111,,,,,,,,,,,,,,,,,,,-20.361328125,-8.994140625,0,0,1,4.78937602043,,,,,2015_Sep_26_1434,G,facesParametric,9,59.5929954179,
./stim/MorphF9_10_orig.jpg,112,,,,,0,112,112,112,,,,,,,,,,,,,,,,,,,-20.361328125,-8.994140625,0,0,1,1.00428390503,,,,,2015_Sep_26_1434,G,facesParametric,9,59.5929954179,
./stim/MorphF10_08_orig.jpg,113,,,,,0,113,113,113,,,,,,,,,,,,,,,,,,,-20.361328125,-8.994140625,0,0,1,0.920342922211,,,,,2015_Sep_26_1434,G,facesParametric,9,59.5929954179,
./stim/MorphF5_01_orig.jpg,114,,,,,0,114,114,114,,,,,,,,,,,,,,,,,,,-20.361328125,-8.994140625,1,0,0,5.39512395859,,,,,2015_Sep_26_1434,G,facesParametric,9,59.5929954179,
./stim/MorphF8_06_orig.jpg,115,,,,,0,115,115,115,,,,,,,,,,,,,,,,,,,-20.361328125,-8.994140625,0,0,1,2.01015496254,,,,,2015_Sep_26_1434,G,facesParametric,9,59.5929954179,
./stim/MorphF2_06_orig.jpg,116,,,,,0,116,116,116,,,,,,,,,,,,,,,,,,,-20.361328125,-8.994140625,0,0,1,0.987459897995,,,,,2015_Sep_26_1434,G,facesParametric,9,59.5929954179,
./stim/MorphF10_01_orig.jpg,117,,,,,0,117,117,117,,,,,,,,,,,,,,,,,,,-20.361328125,-8.994140625,1,0,0,2.06010603905,,,,,2015_Sep_26_1434,G,facesParametric,9,59.5929954179,
./stim/MorphM7_04_orig.jpg,118,,,,,0,118,118,118,,,,,,,,,,,,,,,,,,,-20.361328125,-8.994140625,1,0,0,1.49080085754,,,,,2015_Sep_26_1434,G,facesParametric,9,59.5929954179,
./stim/MorphM2_05_orig.jpg,119,,,,,0,119,119,119,,,,,,,,,,,,,,,,,,,-20.361328125,-8.994140625,1,0,0,3.41778707504,,,,,2015_Sep_26_1434,G,facesParametric,9,59.5929954179,
./stim/MorphF9_05_orig.jpg,120,,,,,0,120,120,120,,,,,,,,,,,,,,,,,,,-20.361328125,-8.994140625,1,0,0,1.95962500572,,,,,2015_Sep_26_1434,G,facesParametric,9,59.5929954179,
./stim/MorphM6_08_orig.jpg,121,,,,,0,121,121,121,,,,,,,,,,,,,,,,,,,-20.361328125,-8.994140625,0,0,1,0.853362083435,,,,,2015_Sep_26_1434,G,facesParametric,9,59.5929954179,
./stim/MorphF4_00_orig.jpg,122,,,,,0,122,122,122,,,,,,,,,,,,,,,,,,,-20.361328125,-8.994140625,1,0,0,1.70806598663,,,,,2015_Sep_26_1434,G,facesParametric,9,59.5929954179,
./stim/MorphF1_09_orig.jpg,123,,,,,0,123,123,123,,,,,,,,,,,,,,,,,,,-20.33203125,-8.994140625,0,0,1,1.17306685448,,,,,2015_Sep_26_1434,G,facesParametric,9,59.5929954179,
./stim/MorphF6_09_orig.jpg,124,,,,,0,124,124,124,,,,,,,,,,,,,,,,,,,-20.33203125,-8.994140625,0,0,1,0.766543149948,,,,,2015_Sep_26_1434,G,facesParametric,9,59.5929954179,
./stim/MorphF9_07_orig.jpg,125,,,,,0,125,125,125,,,,,,,,,,,,,,,,,,,-20.33203125,-8.994140625,0,0,1,1.00393295288,,,,,2015_Sep_26_1434,G,facesParametric,9,59.5929954179,
./stim/MorphM6_10_orig.jpg,126,,,,,0,126,126,126,,,,,,,,,,,,,,,,,,,-20.33203125,-8.994140625,0,0,1,0.818335056305,,,,,2015_Sep_26_1434,G,facesParametric,9,59.5929954179,
./stim/MorphM9_10_orig.jpg,127,,,,,0,127,127,127,,,,,,,,,,,,,,,,,,,-20.33203125,-8.994140625,0,0,1,0.9035820961,,,,,2015_Sep_26_1434,G,facesParametric,9,59.5929954179,
./stim/MorphM6_02_orig.jpg,128,,,,,0,128,128,128,,,,,,,,,,,,,,,,,,,-20.33203125,-8.994140625,1,0,0,2.17681884766,,,,,2015_Sep_26_1434,G,facesParametric,9,59.5929954179,
./stim/MorphM5_05_orig.jpg,129,,,,,0,129,129,129,,,,,,,,,,,,,,,,,,,-20.33203125,-8.994140625,0,0,1,2.56323194504,,,,,2015_Sep_26_1434,G,facesParametric,9,59.5929954179,
./stim/MorphF8_04_orig.jpg,130,,,,,0,130,130,130,,,,,,,,,,,,,,,,,,,-20.302734375,-8.994140625,1,0,0,1.64041304588,,,,,2015_Sep_26_1434,G,facesParametric,9,59.5929954179,
./stim/MorphF10_09_orig.jpg,131,,,,,0,131,131,131,,,,,,,,,,,,,,,,,,,-20.302734375,-8.994140625,0,0,1,0.852754116058,,,,,2015_Sep_26_1434,G,facesParametric,9,59.5929954179,
./stim/MorphM5_03_orig.jpg,132,,,,,0,132,132,132,,,,,,,,,,,,,,,,,,,-20.302734375,-8.994140625,0,0,1,6.08235001564,,,,,2015_Sep_26_1434,G,facesParametric,9,59.5929954179,
./stim/MorphM9_00_orig.jpg,133,,,,,0,133,133,133,,,,,,,,,,,,,,,,,,,-20.302734375,-8.994140625,1,0,0,1.9768409729,,,,,2015_Sep_26_1434,G,facesParametric,9,59.5929954179,
./stim/MorphF5_04_orig.jpg,134,,,,,0,134,134,134,,,,,,,,,,,,,,,,,,,-20.2734375,-8.994140625,1,0,0,3.01333403587,,,,,2015_Sep_26_1434,G,facesParametric,9,59.5929954179,
./stim/MorphF8_10_orig.jpg,135,,,,,0,135,135,135,,,,,,,,,,,,,,,,,,,-20.2734375,-8.994140625,0,0,1,0.886965990067,,,,,2015_Sep_26_1434,G,facesParametric,9,59.5929954179,
./stim/MorphF7_07_orig.jpg,136,,,,,0,136,136,136,,,,,,,,,,,,,,,,,,,-20.2734375,-8.994140625,0,0,1,0.953778982162,,,,,2015_Sep_26_1434,G,facesParametric,9,59.5929954179,
./stim/MorphM5_10_orig.jpg,137,,,,,0,137,137,137,,,,,,,,,,,,,,,,,,,-20.2734375,-8.994140625,0,0,1,0.784701108932,,,,,2015_Sep_26_1434,G,facesParametric,9,59.5929954179,
./stim/MorphM9_09_orig.jpg,138,,,,,0,138,138,138,,,,,,,,,,,,,,,,,,,-20.2734375,-8.994140625,0,0,1,0.851359128952,,,,,2015_Sep_26_1434,G,facesParametric,9,59.5929954179,
./stim/MorphF5_03_orig.jpg,139,,,,,0,139,139,139,,,,,,,,,,,,,,,,,,,-20.244140625,-8.994140625,0,0,1,3.55188894272,,,,,2015_Sep_26_1434,G,facesParametric,9,59.5929954179,
./stim/MorphF1_06_orig.jpg,140,,,,,0,140,140,140,,,,,,,,,,,,,,,,,,,-20.244140625,-8.994140625,0,0,1,1.40426492691,,,,,2015_Sep_26_1434,G,facesParametric,9,59.5929954179,
./stim/MorphM6_00_orig.jpg,141,,,,,0,141,141,141,,,,,,,,,,,,,,,,,,,-20.15625,-8.994140625,1,0,0,1.53936505318,,,,,2015_Sep_26_1434,G,facesParametric,9,59.5929954179,
./stim/MorphF9_08_orig.jpg,142,,,,,0,142,142,142,,,,,,,,,,,,,,,,,,,-20.09765625,-8.994140625,0,0,1,1.03792691231,,,,,2015_Sep_26_1434,G,facesParametric,9,59.5929954179,
./stim/MorphM7_00_orig.jpg,143,,,,,0,143,143,143,,,,,,,,,,,,,,,,,,,-20.068359375,-8.994140625,1,0,0,1.40676879883,,,,,2015_Sep_26_1434,G,facesParametric,9,59.5929954179,
./stim/MorphM1_05_orig.jpg,144,,,,,0,144,144,144,,,,,,,,,,,,,,,,,,,-20.068359375,-8.994140625,0,0,1,1.99333095551,,,,,2015_Sep_26_1434,G,facesParametric,9,59.5929954179,
./stim/MorphM8_01_orig.jpg,145,,,,,0,145,145,145,,,,,,,,,,,,,,,,,,,-20.068359375,-8.994140625,1,0,0,2.57944393158,,,,,2015_Sep_26_1434,G,facesParametric,9,59.5929954179,
./stim/MorphF6_07_orig.jpg,146,,,,,0,146,146,146,,,,,,,,,,,,,,,,,,,-20.068359375,-8.994140625,0,0,1,1.63860201836,,,,,2015_Sep_26_1434,G,facesParametric,9,59.5929954179,
./stim/MorphF7_05_orig.jpg,147,,,,,0,147,147,147,,,,,,,,,,,,,,,,,,,-20.068359375,-8.994140625,0,0,1,4.1384999752,,,,,2015_Sep_26_1434,G,facesParametric,9,59.5929954179,
./stim/MorphM1_01_orig.jpg,148,,,,,0,148,148,148,,,,,,,,,,,,,,,,,,,-20.009765625,-8.994140625,1,0,0,1.33921194077,,,,,2015_Sep_26_1434,G,facesParametric,9,59.5929954179,
./stim/MorphF10_06_orig.jpg,149,,,,,0,149,149,149,,,,,,,,,,,,,,,,,,,-19.951171875,-8.935546875,0,0,1,3.23349285126,,,,,2015_Sep_26_1434,G,facesParametric,9,59.5929954179,
./stim/MorphM7_09_orig.jpg,150,,,,,0,150,150,150,,,,,,,,,,,,,,,,,,,-19.951171875,-8.935546875,0,0,1,1.52377605438,,,,,2015_Sep_26_1434,G,facesParametric,9,59.5929954179,
./stim/MorphM1_03_orig.jpg,151,,,,,0,151,151,151,,,,,,,,,,,,,,,,,,,-19.951171875,-8.935546875,0,0,1,3.01495194435,,,,,2015_Sep_26_1434,G,facesParametric,9,59.5929954179,
./stim/MorphF4_08_orig.jpg,152,,,,,0,152,152,152,,,,,,,,,,,,,,,,,,,-19.951171875,-8.935546875,0,0,1,1.10393881798,,,,,2015_Sep_26_1434,G,facesParametric,9,59.5929954179,
./stim/MorphM1_08_orig.jpg,153,,,,,0,153,153,153,,,,,,,,,,,,,,,,,,,-19.951171875,-8.935546875,0,0,1,0.903662919998,,,,,2015_Sep_26_1434,G,facesParametric,9,59.5929954179,
./stim/MorphM4_10_orig.jpg,154,,,,,0,154,154,154,,,,,,,,,,,,,,,,,,,-19.951171875,-8.935546875,0,0,1,1.15483903885,,,,,2015_Sep_26_1434,G,facesParametric,9,59.5929954179,
./stim/MorphF8_08_orig.jpg,155,,,,,0,155,155,155,,,,,,,,,,,,,,,,,,,-19.951171875,-8.935546875,0,0,1,1.80946207047,,,,,2015_Sep_26_1434,G,facesParametric,9,59.5929954179,
./stim/MorphM4_05_orig.jpg,156,,,,,0,156,156,156,,,,,,,,,,,,,,,,,,,-19.951171875,-8.935546875,1,0,0,4.52349090576,,,,,2015_Sep_26_1434,G,facesParametric,9,59.5929954179,
./stim/MorphF6_08_orig.jpg,157,,,,,0,157,157,157,,,,,,,,,,,,,,,,,,,-19.951171875,-8.935546875,0,0,1,4.25567483902,,,,,2015_Sep_26_1434,G,facesParametric,9,59.5929954179,
./stim/MorphM1_10_orig.jpg,158,,,,,0,158,158,158,,,,,,,,,,,,,,,,,,,-19.951171875,-8.935546875,0,0,1,1.59102988243,,,,,2015_Sep_26_1434,G,facesParametric,9,59.5929954179,
./stim/MorphM4_04_orig.jpg,159,,,,,0,159,159,159,,,,,,,,,,,,,,,,,,,-19.892578125,-8.935546875,1,0,0,2.12672019005,,,,,2015_Sep_26_1434,G,facesParametric,9,59.5929954179,
./stim/MorphM8_04_orig.jpg,160,,,,,0,160,160,160,,,,,,,,,,,,,,,,,,,-19.892578125,-8.935546875,0,0,1,1.60622787476,,,,,2015_Sep_26_1434,G,facesParametric,9,59.5929954179,
./stim/MorphF4_05_orig.jpg,161,,,,,0,161,161,161,,,,,,,,,,,,,,,,,,,-19.892578125,-8.935546875,0,0,1,2.54634690285,,,,,2015_Sep_26_1434,G,facesParametric,9,59.5929954179,
./stim/MorphF9_02_orig.jpg,162,,,,,0,162,162,162,,,,,,,,,,,,,,,,,,,-19.892578125,-8.935546875,1,0,0,2.9295899868,,,,,2015_Sep_26_1434,G,facesParametric,9,59.5929954179,
./stim/MorphF6_10_orig.jpg,163,,,,,0,163,163,163,,,,,,,,,,,,,,,,,,,-19.892578125,-8.935546875,0,0,1,0.954061031342,,,,,2015_Sep_26_1434,G,facesParametric,9,59.5929954179,
./stim/MorphF1_02_orig.jpg,164,,,,,0,164,164,164,,,,,,,,,,,,,,,,,,,-19.892578125,-8.935546875,0,0,1,1.13646697998,,,,,2015_Sep_26_1434,G,facesParametric,9,59.5929954179,
./stim/MorphF10_03_orig.jpg,165,,,,,0,165,165,165,,,,,,,,,,,,,,,,,,,-19.892578125,-8.935546875,0,0,1,1.67259693146,,,,,2015_Sep_26_1434,G,facesParametric,9,59.5929954179,
./stim/MorphF1_08_orig.jpg,166,,,,,0,166,166,166,,,,,,,,,,,,,,,,,,,-19.892578125,-8.935546875,0,0,1,3.60083293915,,,,,2015_Sep_26_1434,G,facesParametric,9,59.5929954179,
./stim/MorphM3_10_orig.jpg,167,,,,,0,167,167,167,,,,,,,,,,,,,,,,,,,-19.892578125,-8.935546875,0,0,1,0.885982036591,,,,,2015_Sep_26_1434,G,facesParametric,9,59.5929954179,
./stim/MorphM10_07_orig.jpg,168,,,,,0,168,168,168,,,,,,,,,,,,,,,,,,,-19.892578125,-8.935546875,0,0,1,0.819441080093,,,,,2015_Sep_26_1434,G,facesParametric,9,59.5929954179,
./stim/MorphF6_04_orig.jpg,169,,,,,0,169,169,169,,,,,,,,,,,,,,,,,,,-19.892578125,-8.935546875,0,0,1,3.6525850296,,,,,2015_Sep_26_1434,G,facesParametric,9,59.5929954179,
./stim/MorphM8_00_orig.jpg,170,,,,,0,170,170,170,,,,,,,,,,,,,,,,,,,-19.892578125,-8.935546875,0,0,1,2.54630994797,,,,,2015_Sep_26_1434,G,facesParametric,9,59.5929954179,
./stim/MorphF8_02_orig.jpg,171,,,,,0,171,171,171,,,,,,,,,,,,,,,,,,,-19.892578125,-8.935546875,1,0,0,3.43440198898,,,,,2015_Sep_26_1434,G,facesParametric,9,59.5929954179,
./stim/MorphM6_06_orig.jpg,172,,,,,0,172,172,172,,,,,,,,,,,,,,,,,,,-19.892578125,-8.935546875,0,0,1,1.54053092003,,,,,2015_Sep_26_1434,G,facesParametric,9,59.5929954179,
./stim/MorphM3_02_orig.jpg,173,,,,,0,173,173,173,,,,,,,,,,,,,,,,,,,-19.892578125,-8.935546875,0,0,1,5.4774980545,,,,,2015_Sep_26_1434,G,facesParametric,9,59.5929954179,
./stim/MorphF2_07_orig.jpg,174,,,,,0,174,174,174,,,,,,,,,,,,,,,,,,,-19.892578125,-8.935546875,0,0,1,0.819067001343,,,,,2015_Sep_26_1434,G,facesParametric,9,59.5929954179,
./stim/MorphF6_05_orig.jpg,175,,,,,0,175,175,175,,,,,,,,,,,,,,,,,,,-19.892578125,-8.935546875,1,0,0,2.3782980442,,,,,2015_Sep_26_1434,G,facesParametric,9,59.5929954179,
./stim/MorphM4_09_orig.jpg,176,,,,,0,176,176,176,,,,,,,,,,,,,,,,,,,-19.892578125,-8.935546875,0,0,1,2.04382300377,,,,,2015_Sep_26_1434,G,facesParametric,9,59.5929954179,
./stim/MorphF1_07_orig.jpg,177,,,,,0,177,177,177,,,,,,,,,,,,,,,,,,,-19.892578125,-8.935546875,0,0,1,1.20518708229,,,,,2015_Sep_26_1434,G,facesParametric,9,59.5929954179,
./stim/MorphM4_07_orig.jpg,178,,,,,0,178,178,178,,,,,,,,,,,,,,,,,,,-19.892578125,-8.935546875,0,0,1,0.886691093445,,,,,2015_Sep_26_1434,G,facesParametric,9,59.5929954179,
./stim/MorphF3_09_orig.jpg,179,,,,,0,179,179,179,,,,,,,,,,,,,,,,,,,-19.892578125,-8.935546875,0,0,1,2.21127080917,,,,,2015_Sep_26_1434,G,facesParametric,9,59.5929954179,
./stim/MorphM7_01_orig.jpg,180,,,,,0,180,180,180,,,,,,,,,,,,,,,,,,,-19.892578125,-8.935546875,1,0,0,1.47324514389,,,,,2015_Sep_26_1434,G,facesParametric,9,59.5929954179,
./stim/MorphF10_10_orig.jpg,181,,,,,0,181,181,181,,,,,,,,,,,,,,,,,,,-19.892578125,-8.935546875,0,0,1,0.86896109581,,,,,2015_Sep_26_1434,G,facesParametric,9,59.5929954179,
./stim/MorphF8_07_orig.jpg,182,,,,,0,182,182,182,,,,,,,,,,,,,,,,,,,-19.892578125,-8.935546875,0,0,1,1.53925895691,,,,,2015_Sep_26_1434,G,facesParametric,9,59.5929954179,
./stim/MorphM9_02_orig.jpg,183,,,,,0,183,183,183,,,,,,,,,,,,,,,,,,,-19.892578125,-8.935546875,1,0,0,4.62465000153,,,,,2015_Sep_26_1434,G,facesParametric,9,59.5929954179,
./stim/MorphF8_01_orig.jpg,184,,,,,0,184,184,184,,,,,,,,,,,,,,,,,,,-19.892578125,-8.935546875,1,0,0,1.37287306786,,,,,2015_Sep_26_1434,G,facesParametric,9,59.5929954179,
./stim/MorphM2_09_orig.jpg,185,,,,,0,185,185,185,,,,,,,,,,,,,,,,,,,-19.892578125,-8.935546875,0,0,1,0.954088926315,,,,,2015_Sep_26_1434,G,facesParametric,9,59.5929954179,
./stim/MorphM1_04_orig.jpg,186,,,,,0,186,186,186,,,,,,,,,,,,,,,,,,,-19.892578125,-8.935546875,0,0,1,3.23331785202,,,,,2015_Sep_26_1434,G,facesParametric,9,59.5929954179,
./stim/MorphF10_05_orig.jpg,187,,,,,0,187,187,187,,,,,,,,,,,,,,,,,,,-19.892578125,-8.935546875,0,0,1,0.870261907578,,,,,2015_Sep_26_1434,G,facesParametric,9,59.5929954179,
./stim/MorphF5_10_orig.jpg,188,,,,,0,188,188,188,,,,,,,,,,,,,,,,,,,-19.892578125,-8.935546875,0,0,1,1.27240204811,,,,,2015_Sep_26_1434,G,facesParametric,9,59.5929954179,
./stim/MorphF7_00_orig.jpg,189,,,,,0,189,189,189,,,,,,,,,,,,,,,,,,,-19.6875,-8.90625,1,0,0,4.40366005898,,,,,2015_Sep_26_1434,G,facesParametric,9,59.5929954179,
./stim/MorphF3_04_orig.jpg,190,,,,,0,190,190,190,,,,,,,,,,,,,,,,,,,-19.6875,-8.90625,1,0,0,2.72996711731,,,,,2015_Sep_26_1434,G,facesParametric,9,59.5929954179,
./stim/MorphM10_03_orig.jpg,191,,,,,0,191,191,191,,,,,,,,,,,,,,,,,,,-19.6875,-8.90625,0,0,1,2.92935204506,,,,,2015_Sep_26_1434,G,facesParametric,9,59.5929954179,
./stim/MorphF5_08_orig.jpg,192,,,,,0,192,192,192,,,,,,,,,,,,,,,,,,,-19.6875,-8.90625,0,0,1,0.953855991364,,,,,2015_Sep_26_1434,G,facesParametric,9,59.5929954179,
./stim/MorphM5_06_orig.jpg,193,,,,,0,193,193,193,,,,,,,,,,,,,,,,,,,-19.6875,-8.90625,0,0,1,5.91376686096,,,,,2015_Sep_26_1434,G,facesParametric,9,59.5929954179,
./stim/MorphF1_05_orig.jpg,194,,,,,0,194,194,194,,,,,,,,,,,,,,,,,,,-19.6875,-8.90625,1,0,0,1.95929288864,,,,,2015_Sep_26_1434,G,facesParametric,9,59.5929954179,
./stim/MorphF3_08_orig.jpg,195,,,,,0,195,195,195,,,,,,,,,,,,,,,,,,,-19.6875,-8.90625,0,0,1,1.33916807175,,,,,2015_Sep_26_1434,G,facesParametric,9,59.5929954179,
./stim/MorphM2_02_orig.jpg,196,,,,,0,196,196,196,,,,,,,,,,,,,,,,,,,-19.6875,-8.90625,1,0,0,1.18900895119,,,,,2015_Sep_26_1434,G,facesParametric,9,59.5929954179,
./stim/MorphM10_09_orig.jpg,197,,,,,0,197,197,197,,,,,,,,,,,,,,,,,,,-19.6875,-8.90625,0,0,1,1.0358710289,,,,,2015_Sep_26_1434,G,facesParametric,9,59.5929954179,
./stim/MorphM6_07_orig.jpg,198,,,,,0,198,198,198,,,,,,,,,,,,,,,,,,,-19.6875,-8.90625,0,0,1,1.57396817207,,,,,2015_Sep_26_1434,G,facesParametric,9,59.5929954179,
./stim/MorphM5_01_orig.jpg,199,,,,,0,199,199,199,,,,,,,,,,,,,,,,,,,-19.6875,-8.90625,0,0,1,4.54039812088,,,,,2015_Sep_26_1434,G,facesParametric,9,59.5929954179,
./stim/MorphM10_08_orig.jpg,200,,,,,0,200,200,200,,,,,,,,,,,,,,,,,,,-19.6875,-8.90625,0,0,1,0.717219829559,,,,,2015_Sep_26_1434,G,facesParametric,9,59.5929954179,
./stim/MorphF5_00_orig.jpg,201,,,,,0,201,201,201,,,,,,,,,,,,,,,,,,,-19.6875,-8.90625,1,0,0,2.64700007439,,,,,2015_Sep_26_1434,G,facesParametric,9,59.5929954179,
./stim/MorphM8_05_orig.jpg,202,,,,,0,202,202,202,,,,,,,,,,,,,,,,,,,-19.6875,-8.90625,0,0,1,1.89223098755,,,,,2015_Sep_26_1434,G,facesParametric,9,59.5929954179,
./stim/MorphF4_06_orig.jpg,203,,,,,0,203,203,203,,,,,,,,,,,,,,,,,,,-19.6875,-8.90625,0,0,1,1.28898119926,,,,,2015_Sep_26_1434,G,facesParametric,9,59.5929954179,
./stim/MorphF1_00_orig.jpg,204,,,,,0,204,204,204,,,,,,,,,,,,,,,,,,,-19.6875,-8.90625,1,0,0,1.70818591118,,,,,2015_Sep_26_1434,G,facesParametric,9,59.5929954179,
./stim/MorphM5_02_orig.jpg,205,,,,,0,205,205,205,,,,,,,,,,,,,,,,,,,-19.6875,-8.90625,0,0,1,6.45056891441,,,,,2015_Sep_26_1434,G,facesParametric,9,59.5929954179,
./stim/MorphM3_06_orig.jpg,206,,,,,0,206,206,206,,,,,,,,,,,,,,,,,,,-19.6875,-8.90625,0,0,1,1.03771495819,,,,,2015_Sep_26_1434,G,facesParametric,9,59.5929954179,
./stim/MorphM1_09_orig.jpg,207,,,,,0,207,207,207,,,,,,,,,,,,,,,,,,,-19.6875,-8.90625,0,0,1,2.36106300354,,,,,2015_Sep_26_1434,G,facesParametric,9,59.5929954179,
./stim/MorphF4_10_orig.jpg,208,,,,,0,208,208,208,,,,,,,,,,,,,,,,,,,-19.6875,-8.90625,0,0,1,1.1719288826,,,,,2015_Sep_26_1434,G,facesParametric,9,59.5929954179,
./stim/MorphF6_03_orig.jpg,209,,,,,0,209,209,209,,,,,,,,,,,,,,,,,,,-19.6875,-8.90625,1,0,0,2.0602080822,,,,,2015_Sep_26_1434,G,facesParametric,9,59.5929954179,
./stim/MorphM4_08_orig.jpg,210,,,,,0,210,210,210,,,,,,,,,,,,,,,,,,,-19.6875,-8.90625,0,0,1,1.21988606453,,,,,2015_Sep_26_1434,G,facesParametric,9,59.5929954179,
./stim/MorphF8_00_orig.jpg,211,,,,,0,211,211,211,,,,,,,,,,,,,,,,,,,-19.6875,-8.90625,1,0,0,4.75762677193,,,,,2015_Sep_26_1434,G,facesParametric,9,59.5929954179,
./stim/MorphM10_06_orig.jpg,212,,,,,0,212,212,212,,,,,,,,,,,,,,,,,,,-19.6875,-8.90625,0,0,1,0.836251974106,,,,,2015_Sep_26_1434,G,facesParametric,9,59.5929954179,
./stim/MorphM2_06_orig.jpg,213,,,,,0,213,213,213,,,,,,,,,,,,,,,,,,,-19.6875,-8.90625,0,0,1,2.06020903587,,,,,2015_Sep_26_1434,G,facesParametric,9,59.5929954179,
./stim/MorphM6_04_orig.jpg,214,,,,,0,214,214,214,,,,,,,,,,,,,,,,,,,-19.6875,-8.90625,1,0,0,2.71306300163,,,,,2015_Sep_26_1434,G,facesParametric,9,59.5929954179,
./stim/MorphF2_02_orig.jpg,215,,,,,0,215,215,215,,,,,,,,,,,,,,,,,,,-19.6875,-8.90625,0,0,1,1.45664310455,,,,,2015_Sep_26_1434,G,facesParametric,9,59.5929954179,
./stim/MorphF10_02_orig.jpg,216,,,,,0,216,216,216,,,,,,,,,,,,,,,,,,,-19.6875,-8.90625,0,0,1,3.23093986511,,,,,2015_Sep_26_1434,G,facesParametric,9,59.5929954179,
./stim/MorphF9_09_orig.jpg,217,,,,,0,217,217,217,,,,,,,,,,,,,,,,,,,-19.6875,-8.90625,0,0,1,1.52446603775,,,,,2015_Sep_26_1434,G,facesParametric,9,59.5929954179,
./stim/MorphF2_04_orig.jpg,218,,,,,0,218,218,218,,,,,,,,,,,,,,,,,,,-19.6875,-8.90625,0,0,1,2.17500591278,,,,,2015_Sep_26_1434,G,facesParametric,9,59.5929954179,
./stim/MorphF9_01_orig.jpg,219,,,,,0,219,219,219,,,,,,,,,,,,,,,,,,,-19.6875,-8.90625,0,0,1,4.77532601357,,,,,2015_Sep_26_1434,G,facesParametric,9,59.5929954179,
,,,,,,,,,,,,,,,,,,,,,,,,,,,,,,,,,,return,50.178771019,,,2015_Sep_26_1434,G,facesParametric,9,59.5929954179,
./stim/MorphM4_05_orig.jpg,0,,,,,,,,,0,0,0,0,,,,,,,,,,,,,,,-1.025390625,-0.41015625,0,0,1,2.81809520721,,,,,2015_Sep_26_1434,G,facesParametric,9,59.5929954179,
./stim/MorphM7_09_orig.jpg,1,,,,,,,,,0,1,1,1,,,,,,,,,,,,,,,-0.8203125,-0.29296875,0,0,1,1.12139391899,,,,,2015_Sep_26_1434,G,facesParametric,9,59.5929954179,
./stim/MorphM5_07_orig.jpg,2,,,,,,,,,0,2,2,2,,,,,,,,,,,,,,,-0.673828125,-0.234375,0,0,1,2.02662086487,,,,,2015_Sep_26_1434,G,facesParametric,9,59.5929954179,
./stim/MorphF7_07_orig.jpg,3,,,,,,,,,0,3,3,3,,,,,,,,,,,,,,,-0.322265625,-0.1171875,0,0,1,1.6919131279,,,,,2015_Sep_26_1434,G,facesParametric,9,59.5929954179,
./stim/MorphM8_02_orig.jpg,4,,,,,,,,,0,4,4,4,,,,,,,,,,,,,,,-0.29296875,-0.087890625,0,0,1,2.52918386459,,,,,2015_Sep_26_1434,G,facesParametric,9,59.5929954179,
./stim/MorphM3_00_orig.jpg,5,,,,,,,,,0,5,5,5,,,,,,,,,,,,,,,-0.05859375,0.0,1,0,0,6.49947094917,,,,,2015_Sep_26_1434,G,facesParametric,9,59.5929954179,
./stim/MorphM1_08_orig.jpg,6,,,,,,,,,0,6,6,6,,,,,,,,,,,,,,,-0.05859375,0.0,0,0,1,1.20492696762,,,,,2015_Sep_26_1434,G,facesParametric,9,59.5929954179,
./stim/MorphF5_08_orig.jpg,7,,,,,,,,,0,7,7,7,,,,,,,,,,,,,,,-0.05859375,0.0,0,0,1,1.54071593285,,,,,2015_Sep_26_1434,G,facesParametric,9,59.5929954179,
./stim/MorphF8_02_orig.jpg,8,,,,,,,,,0,8,8,8,,,,,,,,,,,,,,,0.0,0.05859375,0,0,1,1.75778603554,,,,,2015_Sep_26_1434,G,facesParametric,9,59.5929954179,
./stim/MorphF3_04_orig.jpg,9,,,,,,,,,0,9,9,9,,,,,,,,,,,,,,,0.029296875,0.05859375,1,0,0,4.17209601402,,,,,2015_Sep_26_1434,G,facesParametric,9,59.5929954179,
./stim/MorphM8_06_orig.jpg,10,,,,,,,,,0,10,10,10,,,,,,,,,,,,,,,0.029296875,0.05859375,0,0,1,0.80283498764,,,,,2015_Sep_26_1434,G,facesParametric,9,59.5929954179,
./stim/MorphM1_02_orig.jpg,11,,,,,,,,,0,11,11,11,,,,,,,,,,,,,,,0.205078125,0.1171875,0,0,1,5.36218190193,,,,,2015_Sep_26_1434,G,facesParametric,9,59.5929954179,
./stim/MorphF9_03_orig.jpg,12,,,,,,,,,0,12,12,12,,,,,,,,,,,,,,,0.234375,0.1171875,0,0,1,2.27595996857,,,,,2015_Sep_26_1434,G,facesParametric,9,59.5929954179,
./stim/MorphF3_01_orig.jpg,13,,,,,,,,,0,13,13,13,,,,,,,,,,,,,,,0.439453125,0.1171875,1,0,0,1.9757270813,,,,,2015_Sep_26_1434,G,facesParametric,9,59.5929954179,
./stim/MorphF4_10_orig.jpg,14,,,,,,,,,0,14,14,14,,,,,,,,,,,,,,,0.46875,0.1171875,0,0,1,0.870620965958,,,,,2015_Sep_26_1434,G,facesParametric,9,59.5929954179,
./stim/MorphF6_07_orig.jpg,15,,,,,,,,,0,15,15,15,,,,,,,,,,,,,,,0.380859375,0.1171875,0,0,1,1.52079701424,,,,,2015_Sep_26_1434,G,facesParametric,9,59.5929954179,
./stim/MorphF7_05_orig.jpg,16,,,,,,,,,0,16,16,16,,,,,,,,,,,,,,,0.380859375,0.1171875,0,0,1,1.18859195709,,,,,2015_Sep_26_1434,G,facesParametric,9,59.5929954179,
./stim/MorphF6_00_orig.jpg,17,,,,,,,,,0,17,17,17,,,,,,,,,,,,,,,0.703125,0.234375,1,0,0,2.17561197281,,,,,2015_Sep_26_1434,G,facesParametric,9,59.5929954179,
./stim/MorphF1_02_orig.jpg,18,,,,,,,,,0,18,18,18,,,,,,,,,,,,,,,0.849609375,0.29296875,1,0,0,1.70797491074,,,,,2015_Sep_26_1434,G,facesParametric,9,59.5929954179,
./stim/MorphF4_04_orig.jpg,19,,,,,,,,,0,19,19,19,,,,,,,,,,,,,,,0.703125,0.322265625,0,0,1,1.28837108612,,,,,2015_Sep_26_1434,G,facesParametric,9,59.5929954179,
./stim/MorphM5_01_orig.jpg,20,,,,,,,,,0,20,20,20,,,,,,,,,,,,,,,0.64453125,0.29296875,0,0,1,2.36192202568,,,,,2015_Sep_26_1434,G,facesParametric,9,59.5929954179,
./stim/MorphM7_03_orig.jpg,21,,,,,,,,,0,21,21,21,,,,,,,,,,,,,,,0.64453125,0.29296875,0,0,1,1.4066259861,,,,,2015_Sep_26_1434,G,facesParametric,9,59.5929954179,
./stim/MorphM10_01_orig.jpg,22,,,,,,,,,0,22,22,22,,,,,,,,,,,,,,,0.703125,0.29296875,0,0,1,3.82010293007,,,,,2015_Sep_26_1434,G,facesParametric,9,59.5929954179,
./stim/MorphM4_07_orig.jpg,23,,,,,,,,,0,23,23,23,,,,,,,,,,,,,,,0.703125,0.29296875,0,0,1,1.2891061306,,,,,2015_Sep_26_1434,G,facesParametric,9,59.5929954179,
./stim/MorphM7_10_orig.jpg,24,,,,,,,,,0,24,24,24,,,,,,,,,,,,,,,0.703125,0.29296875,0,0,1,1.05447602272,,,,,2015_Sep_26_1434,G,facesParametric,9,59.5929954179,
./stim/MorphM4_03_orig.jpg,25,,,,,,,,,0,25,25,25,,,,,,,,,,,,,,,0.8203125,0.3515625,0,0,1,4.57405805588,,,,,2015_Sep_26_1434,G,facesParametric,9,59.5929954179,
./stim/MorphM10_10_orig.jpg,26,,,,,,,,,0,26,26,26,,,,,,,,,,,,,,,0.87890625,0.41015625,0,0,1,1.32094502449,,,,,2015_Sep_26_1434,G,facesParametric,9,59.5929954179,
./stim/MorphM7_08_orig.jpg,27,,,,,,,,,0,27,27,27,,,,,,,,,,,,,,,0.87890625,0.41015625,0,0,1,0.968313932419,,,,,2015_Sep_26_1434,G,facesParametric,9,59.5929954179,
./stim/MorphF8_00_orig.jpg,28,,,,,,,,,0,28,28,28,,,,,,,,,,,,,,,1.0546875,0.46875,0,0,1,4.08646416664,,,,,2015_Sep_26_1434,G,facesParametric,9,59.5929954179,
./stim/MorphF2_10_orig.jpg,29,,,,,,,,,0,29,29,29,,,,,,,,,,,,,,,1.083984375,0.498046875,0,0,1,1.13810396194,,,,,2015_Sep_26_1434,G,facesParametric,9,59.5929954179,
./stim/MorphM1_09_orig.jpg,30,,,,,,,,,0,30,30,30,,,,,,,,,,,,,,,1.083984375,0.498046875,0,0,1,1.27261686325,,,,,2015_Sep_26_1434,G,facesParametric,9,59.5929954179,
./stim/MorphF7_02_orig.jpg,31,,,,,,,,,0,31,31,31,,,,,,,,,,,,,,,1.083984375,0.498046875,0,0,1,1.57412314415,,,,,2015_Sep_26_1434,G,facesParametric,9,59.5929954179,
./stim/MorphM5_09_orig.jpg,32,,,,,,,,,0,32,32,32,,,,,,,,,,,,,,,1.11328125,0.498046875,0,0,1,2.09398007393,,,,,2015_Sep_26_1434,G,facesParametric,9,59.5929954179,
./stim/MorphM9_05_orig.jpg,33,,,,,,,,,0,33,33,33,,,,,,,,,,,,,,,1.611328125,0.673828125,1,0,0,3.31709599495,,,,,2015_Sep_26_1434,G,facesParametric,9,59.5929954179,
./stim/MorphF5_03_orig.jpg,34,,,,,,,,,0,34,34,34,,,,,,,,,,,,,,,1.69921875,0.703125,1,0,0,3.73567008972,,,,,2015_Sep_26_1434,G,facesParametric,9,59.5929954179,
./stim/MorphF10_07_orig.jpg,35,,,,,,,,,0,35,35,35,,,,,,,,,,,,,,,1.728515625,0.673828125,0,0,1,0.870365858078,,,,,2015_Sep_26_1434,G,facesParametric,9,59.5929954179,
./stim/MorphF1_04_orig.jpg,36,,,,,,,,,0,36,36,36,,,,,,,,,,,,,,,1.728515625,0.673828125,0,0,1,2.37821984291,,,,,2015_Sep_26_1434,G,facesParametric,9,59.5929954179,
./stim/MorphM8_09_orig.jpg,37,,,,,,,,,0,37,37,37,,,,,,,,,,,,,,,1.728515625,0.673828125,0,0,1,0.836287021637,,,,,2015_Sep_26_1434,G,facesParametric,9,59.5929954179,
./stim/MorphF3_03_orig.jpg,38,,,,,,,,,0,38,38,38,,,,,,,,,,,,,,,1.728515625,0.673828125,0,0,1,3.90379190445,,,,,2015_Sep_26_1434,G,facesParametric,9,59.5929954179,
./stim/MorphM6_06_orig.jpg,39,,,,,,,,,0,39,39,39,,,,,,,,,,,,,,,1.728515625,0.673828125,0,0,1,1.72410392761,,,,,2015_Sep_26_1434,G,facesParametric,9,59.5929954179,
./stim/MorphM9_07_orig.jpg,40,,,,,,,,,0,40,40,40,,,,,,,,,,,,,,,1.728515625,0.673828125,0,0,1,1.07096910477,,,,,2015_Sep_26_1434,G,facesParametric,9,59.5929954179,
./stim/MorphF1_01_orig.jpg,41,,,,,,,,,0,41,41,41,,,,,,,,,,,,,,,2.109375,0.732421875,1,0,0,1.90913891792,,,,,2015_Sep_26_1434,G,facesParametric,9,59.5929954179,
./stim/MorphM2_04_orig.jpg,42,,,,,,,,,0,42,42,42,,,,,,,,,,,,,,,2.28515625,0.791015625,0,0,1,3.41801285744,,,,,2015_Sep_26_1434,G,facesParametric,9,59.5929954179,
./stim/MorphF6_05_orig.jpg,43,,,,,,,,,0,43,43,43,,,,,,,,,,,,,,,2.28515625,0.791015625,0,0,1,2.1082239151,,,,,2015_Sep_26_1434,G,facesParametric,9,59.5929954179,
./stim/MorphF4_07_orig.jpg,44,,,,,,,,,0,44,44,44,,,,,,,,,,,,,,,2.578125,0.76171875,0,0,1,1.37250304222,,,,,2015_Sep_26_1434,G,facesParametric,9,59.5929954179,
./stim/MorphF7_03_orig.jpg,45,,,,,,,,,0,45,45,45,,,,,,,,,,,,,,,2.607421875,0.76171875,0,0,1,2.32837200165,,,,,2015_Sep_26_1434,G,facesParametric,9,59.5929954179,
./stim/MorphF8_01_orig.jpg,46,,,,,,,,,0,46,46,46,,,,,,,,,,,,,,,3.017578125,0.76171875,1,0,0,3.56741499901,,,,,2015_Sep_26_1434,G,facesParametric,9,59.5929954179,
./stim/MorphF4_00_orig.jpg,47,,,,,,,,,0,47,47,47,,,,,,,,,,,,,,,3.076171875,0.791015625,0,0,1,2.11010098457,,,,,2015_Sep_26_1434,G,facesParametric,9,59.5929954179,
./stim/MorphM7_01_orig.jpg,48,,,,,,,,,0,48,48,48,,,,,,,,,,,,,,,3.1640625,0.8203125,1,0,0,5.37881612778,,,,,2015_Sep_26_1434,G,facesParametric,9,59.5929954179,
./stim/MorphF6_08_orig.jpg,49,,,,,,,,,0,49,49,49,,,,,,,,,,,,,,,3.369140625,0.849609375,0,0,1,3.11604905128,,,,,2015_Sep_26_1434,G,facesParametric,9,59.5929954179,
./stim/MorphM2_06_orig.jpg,50,,,,,,,,,0,50,50,50,,,,,,,,,,,,,,,3.369140625,0.849609375,0,0,1,1.27244591713,,,,,2015_Sep_26_1434,G,facesParametric,9,59.5929954179,
./stim/MorphM9_00_orig.jpg,51,,,,,,,,,0,51,51,51,,,,,,,,,,,,,,,3.369140625,0.849609375,0,0,1,2.44426012039,,,,,2015_Sep_26_1434,G,facesParametric,9,59.5929954179,
./stim/MorphF8_05_orig.jpg,52,,,,,,,,,0,52,52,52,,,,,,,,,,,,,,,3.369140625,0.849609375,0,0,1,1.4562728405,,,,,2015_Sep_26_1434,G,facesParametric,9,59.5929954179,
./stim/MorphF9_06_orig.jpg,53,,,,,,,,,0,53,53,53,,,,,,,,,,,,,,,3.369140625,0.849609375,0,0,1,1.4064180851,,,,,2015_Sep_26_1434,G,facesParametric,9,59.5929954179,
./stim/MorphM10_03_orig.jpg,54,,,,,,,,,0,54,54,54,,,,,,,,,,,,,,,3.369140625,0.849609375,0,0,1,3.20020794868,,,,,2015_Sep_26_1434,G,facesParametric,9,59.5929954179,
./stim/MorphF5_05_orig.jpg,55,,,,,,,,,0,55,55,55,,,,,,,,,,,,,,,3.369140625,0.849609375,0,0,1,2.99852991104,,,,,2015_Sep_26_1434,G,facesParametric,9,59.5929954179,
./stim/MorphF9_01_orig.jpg,56,,,,,,,,,0,56,56,56,,,,,,,,,,,,,,,3.369140625,0.849609375,0,0,1,3.09954500198,,,,,2015_Sep_26_1434,G,facesParametric,9,59.5929954179,
./stim/MorphF4_08_orig.jpg,57,,,,,,,,,0,57,57,57,,,,,,,,,,,,,,,3.369140625,0.849609375,0,0,1,1.74192214012,,,,,2015_Sep_26_1434,G,facesParametric,9,59.5929954179,
./stim/MorphM7_02_orig.jpg,58,,,,,,,,,0,58,58,58,,,,,,,,,,,,,,,3.57421875,0.849609375,0,0,1,5.37872385979,,,,,2015_Sep_26_1434,G,facesParametric,9,59.5929954179,
./stim/MorphF6_06_orig.jpg,59,,,,,,,,,0,59,59,59,,,,,,,,,,,,,,,3.603515625,0.849609375,0,0,1,1.22208714485,,,,,2015_Sep_26_1434,G,facesParametric,9,59.5929954179,
./stim/MorphM3_03_orig.jpg,60,,,,,,,,,0,60,60,60,,,,,,,,,,,,,,,3.69140625,0.849609375,0,0,1,1.9590818882,,,,,2015_Sep_26_1434,G,facesParametric,9,59.5929954179,
./stim/MorphM1_06_orig.jpg,61,,,,,,,,,0,61,61,61,,,,,,,,,,,,,,,3.69140625,0.849609375,0,0,1,1.4233341217,,,,,2015_Sep_26_1434,G,facesParametric,9,59.5929954179,
./stim/MorphM2_01_orig.jpg,62,,,,,,,,,0,62,62,62,,,,,,,,,,,,,,,3.720703125,0.849609375,1,0,0,3.28375482559,,,,,2015_Sep_26_1434,G,facesParametric,9,59.5929954179,
./stim/MorphF10_09_orig.jpg,63,,,,,,,,,0,63,63,63,,,,,,,,,,,,,,,3.720703125,0.849609375,0,0,1,1.08854007721,,,,,2015_Sep_26_1434,G,facesParametric,9,59.5929954179,
./stim/MorphM5_06_orig.jpg,64,,,,,,,,,0,64,64,64,,,,,,,,,,,,,,,3.779296875,0.87890625,0,0,1,1.79114890099,,,,,2015_Sep_26_1434,G,facesParametric,9,59.5929954179,
./stim/MorphF10_08_orig.jpg,65,,,,,,,,,0,65,65,65,,,,,,,,,,,,,,,3.779296875,0.87890625,0,0,1,1.02093887329,,,,,2015_Sep_26_1434,G,facesParametric,9,59.5929954179,
./stim/MorphM10_09_orig.jpg,66,,,,,,,,,0,66,66,66,,,,,,,,,,,,,,,3.779296875,0.87890625,0,0,1,1.06983184814,,,,,2015_Sep_26_1434,G,facesParametric,9,59.5929954179,
./stim/MorphF9_07_orig.jpg,67,,,,,,,,,0,67,67,67,,,,,,,,,,,,,,,3.779296875,0.87890625,0,0,1,1.54057598114,,,,,2015_Sep_26_1434,G,facesParametric,9,59.5929954179,
./stim/MorphM6_07_orig.jpg,68,,,,,,,,,0,68,68,68,,,,,,,,,,,,,,,3.896484375,0.908203125,0,0,1,1.9094171524,,,,,2015_Sep_26_1434,G,facesParametric,9,59.5929954179,
./stim/MorphM9_08_orig.jpg,69,,,,,,,,,0,69,69,69,,,,,,,,,,,,,,,3.896484375,0.908203125,0,0,1,1.37296009064,,,,,2015_Sep_26_1434,G,facesParametric,9,59.5929954179,
./stim/MorphM8_10_orig.jpg,70,,,,,,,,,0,70,70,70,,,,,,,,,,,,,,,3.92578125,0.87890625,0,0,1,1.12042403221,,,,,2015_Sep_26_1434,G,facesParametric,9,59.5929954179,
./stim/MorphM4_04_orig.jpg,71,,,,,,,,,0,71,71,71,,,,,,,,,,,,,,,3.92578125,0.87890625,0,0,1,2.34523892403,,,,,2015_Sep_26_1434,G,facesParametric,9,59.5929954179,
./stim/MorphM8_07_orig.jpg,72,,,,,,,,,0,72,72,72,,,,,,,,,,,,,,,3.92578125,0.87890625,0,0,1,2.09410309792,,,,,2015_Sep_26_1434,G,facesParametric,9,59.5929954179,
./stim/MorphM2_08_orig.jpg,73,,,,,,,,,0,73,73,73,,,,,,,,,,,,,,,3.92578125,0.87890625,0,0,1,2.37775707245,,,,,2015_Sep_26_1434,G,facesParametric,9,59.5929954179,
./stim/MorphM10_00_orig.jpg,74,,,,,,,,,0,74,74,74,,,,,,,,,,,,,,,3.955078125,0.908203125,0,0,1,4.55587697029,,,,,2015_Sep_26_1434,G,facesParametric,9,59.5929954179,
./stim/MorphM6_03_orig.jpg,75,,,,,,,,,0,75,75,75,,,,,,,,,,,,,,,3.955078125,0.908203125,1,0,0,4.42356204987,,,,,2015_Sep_26_1434,G,facesParametric,9,59.5929954179,
./stim/MorphM7_04_orig.jpg,76,,,,,,,,,0,76,76,76,,,,,,,,,,,,,,,3.955078125,0.908203125,1,0,0,2.19393587112,,,,,2015_Sep_26_1434,G,facesParametric,9,59.5929954179,
./stim/MorphM4_10_orig.jpg,77,,,,,,,,,0,77,77,77,,,,,,,,,,,,,,,3.955078125,0.908203125,0,0,1,0.92112493515,,,,,2015_Sep_26_1434,G,facesParametric,9,59.5929954179,
./stim/MorphM5_08_orig.jpg,78,,,,,,,,,0,78,78,78,,,,,,,,,,,,,,,3.955078125,0.908203125,0,0,1,1.70785689354,,,,,2015_Sep_26_1434,G,facesParametric,9,59.5929954179,
./stim/MorphF10_04_orig.jpg,79,,,,,,,,,0,79,79,79,,,,,,,,,,,,,,,3.955078125,0.908203125,0,0,1,1.6743710041,,,,,2015_Sep_26_1434,G,facesParametric,9,59.5929954179,
./stim/MorphF5_10_orig.jpg,80,,,,,,,,,0,80,80,80,,,,,,,,,,,,,,,3.955078125,0.908203125,0,0,1,1.95923900604,,,,,2015_Sep_26_1434,G,facesParametric,9,59.5929954179,
./stim/MorphM10_06_orig.jpg,81,,,,,,,,,0,81,81,81,,,,,,,,,,,,,,,4.1015625,0.99609375,0,0,1,4.80936908722,,,,,2015_Sep_26_1434,G,facesParametric,9,59.5929954179,
./stim/MorphM9_09_orig.jpg,82,,,,,,,,,0,82,82,82,,,,,,,,,,,,,,,4.1015625,0.99609375,0,0,1,1.0881729126,,,,,2015_Sep_26_1434,G,facesParametric,9,59.5929954179,
./stim/MorphF2_05_orig.jpg,83,,,,,,,,,0,83,83,83,,,,,,,,,,,,,,,4.1015625,0.99609375,0,0,1,1.54032301903,,,,,2015_Sep_26_1434,G,facesParametric,9,59.5929954179,
./stim/MorphF7_00_orig.jpg,84,,,,,,,,,0,84,84,84,,,,,,,,,,,,,,,4.51171875,1.083984375,1,0,0,1.80746984482,,,,,2015_Sep_26_1434,G,facesParametric,9,59.5929954179,
./stim/MorphF4_06_orig.jpg,85,,,,,,,,,0,85,85,85,,,,,,,,,,,,,,,4.51171875,1.083984375,0,0,1,2.02663302422,,,,,2015_Sep_26_1434,G,facesParametric,9,59.5929954179,
./stim/MorphM2_05_orig.jpg,86,,,,,,,,,0,86,86,86,,,,,,,,,,,,,,,4.51171875,1.083984375,0,0,1,2.54582190514,,,,,2015_Sep_26_1434,G,facesParametric,9,59.5929954179,
./stim/MorphF9_10_orig.jpg,87,,,,,,,,,0,87,87,87,,,,,,,,,,,,,,,4.51171875,1.083984375,0,0,1,2.17812895775,,,,,2015_Sep_26_1434,G,facesParametric,9,59.5929954179,
./stim/MorphF2_00_orig.jpg,88,,,,,,,,,0,88,88,88,,,,,,,,,,,,,,,4.51171875,1.083984375,0,0,1,2.16018795967,,,,,2015_Sep_26_1434,G,facesParametric,9,59.5929954179,
./stim/MorphF3_02_orig.jpg,89,,,,,,,,,0,89,89,89,,,,,,,,,,,,,,,4.5703125,1.142578125,0,0,1,2.83121800423,,,,,2015_Sep_26_1434,G,facesParametric,9,59.5929954179,
./stim/MorphF2_02_orig.jpg,90,,,,,,,,,0,90,90,90,,,,,,,,,,,,,,,4.5703125,1.142578125,0,0,1,1.1552028656,,,,,2015_Sep_26_1434,G,facesParametric,9,59.5929954179,
./stim/MorphM2_02_orig.jpg,91,,,,,,,,,0,91,91,91,,,,,,,,,,,,,,,4.5703125,1.142578125,1,0,0,1.92577695847,,,,,2015_Sep_26_1434,G,facesParametric,9,59.5929954179,
./stim/MorphF7_08_orig.jpg,92,,,,,,,,,0,92,92,92,,,,,,,,,,,,,,,4.5703125,1.142578125,0,0,1,5.32935786247,,,,,2015_Sep_26_1434,G,facesParametric,9,59.5929954179,
./stim/MorphF5_04_orig.jpg,93,,,,,,,,,0,93,93,93,,,,,,,,,,,,,,,4.5703125,1.142578125,1,0,0,3.28293609619,,,,,2015_Sep_26_1434,G,facesParametric,9,59.5929954179,
./stim/MorphM6_05_orig.jpg,94,,,,,,,,,0,94,94,94,,,,,,,,,,,,,,,4.5703125,1.142578125,0,0,1,3.53450703621,,,,,2015_Sep_26_1434,G,facesParametric,9,59.5929954179,
./stim/MorphM1_04_orig.jpg,95,,,,,,,,,0,95,95,95,,,,,,,,,,,,,,,4.5703125,1.142578125,0,0,1,2.09381699562,,,,,2015_Sep_26_1434,G,facesParametric,9,59.5929954179,
./stim/MorphM7_05_orig.jpg,96,,,,,,,,,0,96,96,96,,,,,,,,,,,,,,,4.5703125,1.142578125,0,0,1,1.48918700218,,,,,2015_Sep_26_1434,G,facesParametric,9,59.5929954179,
./stim/MorphM10_04_orig.jpg,97,,,,,,,,,0,97,97,97,,,,,,,,,,,,,,,4.5703125,1.142578125,0,0,1,1.95912098885,,,,,2015_Sep_26_1434,G,facesParametric,9,59.5929954179,
./stim/MorphF5_01_orig.jpg,98,,,,,,,,,0,98,98,98,,,,,,,,,,,,,,,4.62890625,1.201171875,0,0,1,3.98754906654,,,,,2015_Sep_26_1434,G,facesParametric,9,59.5929954179,
./stim/MorphM5_10_orig.jpg,99,,,,,,,,,0,99,99,99,,,,,,,,,,,,,,,4.62890625,1.201171875,0,0,1,1.3558909893,,,,,2015_Sep_26_1434,G,facesParametric,9,59.5929954179,
./stim/MorphM4_01_orig.jpg,100,,,,,,,,,0,100,100,100,,,,,,,,,,,,,,,4.62890625,1.201171875,1,0,0,3.04896092415,,,,,2015_Sep_26_1434,G,facesParametric,9,59.5929954179,
./stim/MorphF4_05_orig.jpg,101,,,,,,,,,0,101,101,101,,,,,,,,,,,,,,,4.62890625,1.201171875,1,0,0,3.182710886,,,,,2015_Sep_26_1434,G,facesParametric,9,59.5929954179,
./stim/MorphM2_03_orig.jpg,102,,,,,,,,,0,102,102,102,,,,,,,,,,,,,,,4.6875,1.23046875,0,0,1,3.61924314499,,,,,2015_Sep_26_1434,G,facesParametric,9,59.5929954179,
./stim/MorphM10_05_orig.jpg,103,,,,,,,,,0,103,103,103,,,,,,,,,,,,,,,4.6875,1.23046875,0,0,1,1.03785705566,,,,,2015_Sep_26_1434,G,facesParametric,9,59.5929954179,
./stim/MorphM1_05_orig.jpg,104,,,,,,,,,0,104,104,104,,,,,,,,,,,,,,,4.6875,1.23046875,0,0,1,1.28929686546,,,,,2015_Sep_26_1434,G,facesParametric,9,59.5929954179,
./stim/MorphF3_07_orig.jpg,105,,,,,,,,,0,105,105,105,,,,,,,,,,,,,,,4.6875,1.23046875,0,0,1,1.99304199219,,,,,2015_Sep_26_1434,G,facesParametric,9,59.5929954179,
./stim/MorphM6_01_orig.jpg,106,,,,,,,,,0,106,106,106,,,,,,,,,,,,,,,4.6875,1.23046875,1,0,0,5.83130884171,,,,,2015_Sep_26_1434,G,facesParametric,9,59.5929954179,
./stim/MorphF8_06_orig.jpg,107,,,,,,,,,0,107,107,107,,,,,,,,,,,,,,,4.6875,1.23046875,0,0,1,1.72511100769,,,,,2015_Sep_26_1434,G,facesParametric,9,59.5929954179,
./stim/MorphM6_08_orig.jpg,108,,,,,,,,,0,108,108,108,,,,,,,,,,,,,,,4.6875,1.23046875,0,0,1,1.18661808968,,,,,2015_Sep_26_1434,G,facesParametric,9,59.5929954179,
./stim/MorphF10_00_orig.jpg,109,,,,,,,,,0,109,109,109,,,,,,,,,,,,,,,4.6875,1.23046875,1,0,0,2.294880867,,,,,2015_Sep_26_1434,G,facesParametric,9,59.5929954179,
./stim/MorphM2_10_orig.jpg,110,,,,,,,,,0,110,110,110,,,,,,,,,,,,,,,4.716796875,1.201171875,0,0,1,1.03791499138,,,,,2015_Sep_26_1434,G,facesParametric,9,59.5929954179,
./stim/MorphM3_09_orig.jpg,111,,,,,,,,,0,111,111,111,,,,,,,,,,,,,,,4.716796875,1.23046875,0,0,1,1.25572109222,,,,,2015_Sep_26_1434,G,facesParametric,9,59.5929954179,
./stim/MorphF8_09_orig.jpg,112,,,,,,,,,0,112,112,112,,,,,,,,,,,,,,,4.716796875,1.259765625,0,0,1,1.50679898262,,,,,2015_Sep_26_1434,G,facesParametric,9,59.5929954179,
./stim/MorphM1_07_orig.jpg,113,,,,,,,,,0,113,113,113,,,,,,,,,,,,,,,4.716796875,1.259765625,0,0,1,1.05414605141,,,,,2015_Sep_26_1434,G,facesParametric,9,59.5929954179,
./stim/MorphF1_10_orig.jpg,114,,,,,,,,,0,114,114,114,,,,,,,,,,,,,,,4.716796875,1.259765625,0,0,1,1.50690698624,,,,,2015_Sep_26_1434,G,facesParametric,9,59.5929954179,
./stim/MorphM3_08_orig.jpg,115,,,,,,,,,0,115,115,115,,,,,,,,,,,,,,,4.716796875,1.259765625,0,0,1,1.08832502365,,,,,2015_Sep_26_1434,G,facesParametric,9,59.5929954179,
./stim/MorphF6_10_orig.jpg,116,,,,,,,,,0,116,116,116,,,,,,,,,,,,,,,4.716796875,1.259765625,0,0,1,2.25916981697,,,,,2015_Sep_26_1434,G,facesParametric,9,59.5929954179,
./stim/MorphM4_09_orig.jpg,117,,,,,,,,,0,117,117,117,,,,,,,,,,,,,,,4.716796875,1.259765625,0,0,1,2.00995898247,,,,,2015_Sep_26_1434,G,facesParametric,9,59.5929954179,
./stim/MorphM8_01_orig.jpg,118,,,,,,,,,0,118,118,118,,,,,,,,,,,,,,,4.716796875,1.259765625,0,0,1,1.99293708801,,,,,2015_Sep_26_1434,G,facesParametric,9,59.5929954179,
./stim/MorphM10_08_orig.jpg,119,,,,,,,,,0,119,119,119,,,,,,,,,,,,,,,4.716796875,1.259765625,0,0,1,0.885072946548,,,,,2015_Sep_26_1434,G,facesParametric,9,59.5929954179,
./stim/MorphF8_10_orig.jpg,120,,,,,,,,,0,120,120,120,,,,,,,,,,,,,,,4.716796875,1.259765625,0,0,1,2.05828213692,,,,,2015_Sep_26_1434,G,facesParametric,9,59.5929954179,
./stim/MorphM6_04_orig.jpg,121,,,,,,,,,0,121,121,121,,,,,,,,,,,,,,,4.74609375,1.2890625,1,0,0,1.75825285912,,,,,2015_Sep_26_1434,G,facesParametric,9,59.5929954179,
./stim/MorphM5_04_orig.jpg,122,,,,,,,,,0,122,122,122,,,,,,,,,,,,,,,4.775390625,1.318359375,0,0,1,4.23870301247,,,,,2015_Sep_26_1434,G,facesParametric,9,59.5929954179,
./stim/MorphF7_06_orig.jpg,123,,,,,,,,,0,123,123,123,,,,,,,,,,,,,,,4.8046875,1.34765625,0,0,1,1.65829610825,,,,,2015_Sep_26_1434,G,facesParametric,9,59.5929954179,
./stim/MorphM4_08_orig.jpg,124,,,,,,,,,0,124,124,124,,,,,,,,,,,,,,,4.8046875,1.34765625,0,0,1,1.38964295387,,,,,2015_Sep_26_1434,G,facesParametric,9,59.5929954179,
./stim/MorphF10_02_orig.jpg,125,,,,,,,,,0,125,125,125,,,,,,,,,,,,,,,4.8046875,1.34765625,0,0,1,3.33249402046,,,,,2015_Sep_26_1434,G,facesParametric,9,59.5929954179,
./stim/MorphF1_00_orig.jpg,126,,,,,,,,,0,126,126,126,,,,,,,,,,,,,,,4.833984375,1.318359375,1,0,0,3.02982282639,,,,,2015_Sep_26_1434,G,facesParametric,9,59.5929954179,
./stim/MorphM4_02_orig.jpg,127,,,,,,,,,0,127,127,127,,,,,,,,,,,,,,,4.833984375,1.201171875,1,0,0,1.35581803322,,,,,2015_Sep_26_1434,G,facesParametric,9,59.5929954179,
./stim/MorphM5_05_orig.jpg,128,,,,,,,,,0,128,128,128,,,,,,,,,,,,,,,4.833984375,1.201171875,0,0,1,3.21704101562,,,,,2015_Sep_26_1434,G,facesParametric,9,59.5929954179,
./stim/MorphF8_04_orig.jpg,129,,,,,,,,,0,129,129,129,,,,,,,,,,,,,,,4.86328125,1.23046875,0,0,1,1.70855689049,,,,,2015_Sep_26_1434,G,facesParametric,9,59.5929954179,
./stim/MorphM9_02_orig.jpg,130,,,,,,,,,0,130,130,130,,,,,,,,,,,,,,,4.833984375,1.201171875,1,0,0,2.88097286224,,,,,2015_Sep_26_1434,G,facesParametric,9,59.5929954179,
./stim/MorphF9_08_orig.jpg,131,,,,,,,,,0,131,131,131,,,,,,,,,,,,,,,4.833984375,1.171875,0,0,1,1.27258706093,,,,,2015_Sep_26_1434,G,facesParametric,9,59.5929954179,
./stim/MorphM8_03_orig.jpg,132,,,,,,,,,0,132,132,132,,,,,,,,,,,,,,,4.8046875,1.142578125,0,0,1,2.19439888,,,,,2015_Sep_26_1434,G,facesParametric,9,59.5929954179,
./stim/MorphF2_09_orig.jpg,133,,,,,,,,,0,133,133,133,,,,,,,,,,,,,,,4.775390625,1.171875,0,0,1,0.903574943542,,,,,2015_Sep_26_1434,G,facesParametric,9,59.5929954179,
./stim/MorphF1_06_orig.jpg,134,,,,,,,,,0,134,134,134,,,,,,,,,,,,,,,4.775390625,1.171875,0,0,1,2.07729411125,,,,,2015_Sep_26_1434,G,facesParametric,9,59.5929954179,
./stim/MorphF2_06_orig.jpg,135,,,,,,,,,0,135,135,135,,,,,,,,,,,,,,,4.775390625,1.171875,0,0,1,1.13813400269,,,,,2015_Sep_26_1434,G,facesParametric,9,59.5929954179,
./stim/MorphM9_03_orig.jpg,136,,,,,,,,,0,136,136,136,,,,,,,,,,,,,,,4.775390625,1.171875,0,0,1,2.07781505585,,,,,2015_Sep_26_1434,G,facesParametric,9,59.5929954179,
./stim/MorphM6_09_orig.jpg,137,,,,,,,,,0,137,137,137,,,,,,,,,,,,,,,4.775390625,1.171875,0,0,1,0.935230016708,,,,,2015_Sep_26_1434,G,facesParametric,9,59.5929954179,
./stim/MorphF6_02_orig.jpg,138,,,,,,,,,0,138,138,138,,,,,,,,,,,,,,,4.74609375,1.201171875,1,0,0,3.71981310844,,,,,2015_Sep_26_1434,G,facesParametric,9,59.5929954179,
./stim/MorphF10_10_orig.jpg,139,,,,,,,,,0,139,139,139,,,,,,,,,,,,,,,4.74609375,1.201171875,0,0,1,1.08816504478,,,,,2015_Sep_26_1434,G,facesParametric,9,59.5929954179,
./stim/MorphM5_00_orig.jpg,140,,,,,,,,,0,140,140,140,,,,,,,,,,,,,,,4.74609375,1.201171875,0,0,1,3.19876003265,,,,,2015_Sep_26_1434,G,facesParametric,9,59.5929954179,
./stim/MorphM9_01_orig.jpg,141,,,,,,,,,0,141,141,141,,,,,,,,,,,,,,,4.775390625,1.083984375,1,0,0,4.8421318531,,,,,2015_Sep_26_1434,G,facesParametric,9,59.5929954179,
./stim/MorphF2_03_orig.jpg,142,,,,,,,,,0,142,142,142,,,,,,,,,,,,,,,4.8046875,1.0546875,0,0,1,2.17638397217,,,,,2015_Sep_26_1434,G,facesParametric,9,59.5929954179,
./stim/MorphF10_06_orig.jpg,143,,,,,,,,,0,143,143,143,,,,,,,,,,,,,,,4.8046875,1.0546875,0,0,1,0.819584131241,,,,,2015_Sep_26_1434,G,facesParametric,9,59.5929954179,
./stim/MorphM4_06_orig.jpg,144,,,,,,,,,0,144,144,144,,,,,,,,,,,,,,,4.8046875,1.0546875,0,0,1,1.13753199577,,,,,2015_Sep_26_1434,G,facesParametric,9,59.5929954179,
./stim/MorphF1_08_orig.jpg,145,,,,,,,,,0,145,145,145,,,,,,,,,,,,,,,4.8046875,1.0546875,0,0,1,1.80724406242,,,,,2015_Sep_26_1434,G,facesParametric,9,59.5929954179,
./stim/MorphF6_03_orig.jpg,146,,,,,,,,,0,146,146,146,,,,,,,,,,,,,,,4.86328125,0.99609375,1,0,0,2.06024312973,,,,,2015_Sep_26_1434,G,facesParametric,9,59.5929954179,
./stim/MorphM3_01_orig.jpg,147,,,,,,,,,0,147,147,147,,,,,,,,,,,,,,,4.951171875,1.025390625,0,0,1,2.10994195938,,,,,2015_Sep_26_1434,G,facesParametric,9,59.5929954179,
./stim/MorphM9_04_orig.jpg,148,,,,,,,,,0,148,148,148,,,,,,,,,,,,,,,5.068359375,1.11328125,1,0,0,1.94263601303,,,,,2015_Sep_26_1434,G,facesParametric,9,59.5929954179,
./stim/MorphF9_00_orig.jpg,149,,,,,,,,,0,149,149,149,,,,,,,,,,,,,,,5.185546875,1.376953125,1,0,0,4.10431098938,,,,,2015_Sep_26_1434,G,facesParametric,9,59.5929954179,
./stim/MorphF3_06_orig.jpg,150,,,,,,,,,0,150,150,150,,,,,,,,,,,,,,,5.302734375,1.2890625,0,0,1,1.54090619087,,,,,2015_Sep_26_1434,G,facesParametric,9,59.5929954179,
./stim/MorphF9_04_orig.jpg,151,,,,,,,,,0,151,151,151,,,,,,,,,,,,,,,5.2734375,1.318359375,0,0,1,1.30583500862,,,,,2015_Sep_26_1434,G,facesParametric,9,59.5929954179,
./stim/MorphF7_09_orig.jpg,152,,,,,,,,,0,152,152,152,,,,,,,,,,,,,,,5.2734375,1.318359375,0,0,1,0.920701980591,,,,,2015_Sep_26_1434,G,facesParametric,9,59.5929954179,
./stim/MorphF2_07_orig.jpg,153,,,,,,,,,0,153,153,153,,,,,,,,,,,,,,,5.244140625,1.34765625,0,0,1,0.851134061813,,,,,2015_Sep_26_1434,G,facesParametric,9,59.5929954179,
./stim/MorphF1_03_orig.jpg,154,,,,,,,,,0,154,154,154,,,,,,,,,,,,,,,5.244140625,1.259765625,1,0,0,4.35654497147,,,,,2015_Sep_26_1434,G,facesParametric,9,59.5929954179,
./stim/MorphF4_09_orig.jpg,155,,,,,,,,,0,155,155,155,,,,,,,,,,,,,,,5.244140625,1.23046875,0,0,1,1.82603192329,,,,,2015_Sep_26_1434,G,facesParametric,9,59.5929954179,
./stim/MorphM8_00_orig.jpg,156,,,,,,,,,0,156,156,156,,,,,,,,,,,,,,,5.126953125,1.376953125,0,0,1,1.7397069931,,,,,2015_Sep_26_1434,G,facesParametric,9,59.5929954179,
./stim/MorphF1_09_orig.jpg,157,,,,,,,,,0,157,157,157,,,,,,,,,,,,,,,5.126953125,1.376953125,0,0,1,1.80901694298,,,,,2015_Sep_26_1434,G,facesParametric,9,59.5929954179,
./stim/MorphF8_08_orig.jpg,158,,,,,,,,,0,158,158,158,,,,,,,,,,,,,,,5.126953125,1.376953125,0,0,1,1.32090497017,,,,,2015_Sep_26_1434,G,facesParametric,9,59.5929954179,
./stim/MorphF3_00_orig.jpg,159,,,,,,,,,0,159,159,159,,,,,,,,,,,,,,,5.126953125,1.376953125,1,0,0,4.89229798317,,,,,2015_Sep_26_1434,G,facesParametric,9,59.5929954179,
./stim/MorphM10_07_orig.jpg,160,,,,,,,,,0,160,160,160,,,,,,,,,,,,,,,5.126953125,1.376953125,0,0,1,1.02109289169,,,,,2015_Sep_26_1434,G,facesParametric,9,59.5929954179,
./stim/MorphM3_07_orig.jpg,161,,,,,,,,,0,161,161,161,,,,,,,,,,,,,,,5.09765625,1.46484375,0,0,1,0.803461074829,,,,,2015_Sep_26_1434,G,facesParametric,9,59.5929954179,
./stim/MorphF3_10_orig.jpg,162,,,,,,,,,0,162,162,162,,,,,,,,,,,,,,,5.09765625,1.46484375,0,0,1,1.28932189941,,,,,2015_Sep_26_1434,G,facesParametric,9,59.5929954179,
./stim/MorphM5_02_orig.jpg,163,,,,,,,,,0,163,163,163,,,,,,,,,,,,,,,5.09765625,1.46484375,1,0,0,2.05816197395,,,,,2015_Sep_26_1434,G,facesParametric,9,59.5929954179,
./stim/MorphF3_08_orig.jpg,164,,,,,,,,,0,164,164,164,,,,,,,,,,,,,,,5.09765625,1.40625,0,0,1,2.24498295784,,,,,2015_Sep_26_1434,G,facesParametric,9,59.5929954179,
./stim/MorphM8_04_orig.jpg,165,,,,,,,,,0,165,165,165,,,,,,,,,,,,,,,5.126953125,1.58203125,0,0,1,2.31094098091,,,,,2015_Sep_26_1434,G,facesParametric,9,59.5929954179,
./stim/MorphF2_08_orig.jpg,166,,,,,,,,,0,166,166,166,,,,,,,,,,,,,,,5.126953125,1.58203125,0,0,1,1.05259084702,,,,,2015_Sep_26_1434,G,facesParametric,9,59.5929954179,
./stim/MorphM8_05_orig.jpg,167,,,,,,,,,0,167,167,167,,,,,,,,,,,,,,,5.126953125,1.58203125,0,0,1,1.52376699448,,,,,2015_Sep_26_1434,G,facesParametric,9,59.5929954179,
./stim/MorphM9_10_orig.jpg,168,,,,,,,,,0,168,168,168,,,,,,,,,,,,,,,5.126953125,1.58203125,0,0,1,0.866864919662,,,,,2015_Sep_26_1434,G,facesParametric,9,59.5929954179,
./stim/MorphF10_03_orig.jpg,169,,,,,,,,,0,169,169,169,,,,,,,,,,,,,,,5.126953125,1.58203125,0,0,1,1.94171214104,,,,,2015_Sep_26_1434,G,facesParametric,9,59.5929954179,
./stim/MorphF8_03_orig.jpg,170,,,,,,,,,0,170,170,170,,,,,,,,,,,,,,,5.15625,1.611328125,1,0,0,2.46044111252,,,,,2015_Sep_26_1434,G,facesParametric,9,59.5929954179,
./stim/MorphF9_09_orig.jpg,171,,,,,,,,,0,171,171,171,,,,,,,,,,,,,,,5.185546875,1.58203125,0,0,1,0.86837887764,,,,,2015_Sep_26_1434,G,facesParametric,9,59.5929954179,
./stim/MorphM6_10_orig.jpg,172,,,,,,,,,0,172,172,172,,,,,,,,,,,,,,,5.185546875,1.58203125,0,0,1,0.870486021042,,,,,2015_Sep_26_1434,G,facesParametric,9,59.5929954179,
./stim/MorphF5_09_orig.jpg,173,,,,,,,,,0,173,173,173,,,,,,,,,,,,,,,5.185546875,1.58203125,0,0,1,1.1877579689,,,,,2015_Sep_26_1434,G,facesParametric,9,59.5929954179,
./stim/MorphM7_00_orig.jpg,174,,,,,,,,,0,174,174,174,,,,,,,,,,,,,,,5.185546875,1.58203125,1,0,0,2.73013710976,,,,,2015_Sep_26_1434,G,facesParametric,9,59.5929954179,
./stim/MorphF4_03_orig.jpg,175,,,,,,,,,0,175,175,175,,,,,,,,,,,,,,,5.15625,1.552734375,1,0,0,9.93725800514,,,,,2015_Sep_26_1434,G,facesParametric,9,59.5929954179,
./stim/MorphF10_01_orig.jpg,176,,,,,,,,,0,176,176,176,,,,,,,,,,,,,,,5.15625,1.552734375,0,0,1,1.97618913651,,,,,2015_Sep_26_1434,G,facesParametric,9,59.5929954179,
./stim/MorphM2_09_orig.jpg,177,,,,,,,,,0,177,177,177,,,,,,,,,,,,,,,5.15625,1.552734375,0,0,1,0.970885038376,,,,,2015_Sep_26_1434,G,facesParametric,9,59.5929954179,
./stim/MorphF2_01_orig.jpg,178,,,,,,,,,0,178,178,178,,,,,,,,,,,,,,,5.15625,1.552734375,1,0,0,3.33340883255,,,,,2015_Sep_26_1434,G,facesParametric,9,59.5929954179,
./stim/MorphF10_05_orig.jpg,179,,,,,,,,,0,179,179,179,,,,,,,,,,,,,,,5.15625,1.5234375,0,0,1,1.07128190994,,,,,2015_Sep_26_1434,G,facesParametric,9,59.5929954179,
./stim/MorphM7_07_orig.jpg,180,,,,,,,,,0,180,180,180,,,,,,,,,,,,,,,5.15625,1.5234375,0,0,1,1.02149391174,,,,,2015_Sep_26_1434,G,facesParametric,9,59.5929954179,
./stim/MorphM9_06_orig.jpg,181,,,,,,,,,0,181,181,181,,,,,,,,,,,,,,,5.15625,1.5234375,1,0,0,4.758010149,,,,,2015_Sep_26_1434,G,facesParametric,9,59.5929954179,
./stim/MorphM3_10_orig.jpg,182,,,,,,,,,0,182,182,182,,,,,,,,,,,,,,,5.15625,1.5234375,0,0,1,0.785686969757,,,,,2015_Sep_26_1434,G,facesParametric,9,59.5929954179,
./stim/MorphM2_07_orig.jpg,183,,,,,,,,,0,183,183,183,,,,,,,,,,,,,,,5.15625,1.5234375,0,0,1,1.44000482559,,,,,2015_Sep_26_1434,G,facesParametric,9,59.5929954179,
./stim/MorphM1_01_orig.jpg,184,,,,,,,,,0,184,184,184,,,,,,,,,,,,,,,5.15625,1.5234375,1,0,0,3.53413105011,,,,,2015_Sep_26_1434,G,facesParametric,9,59.5929954179,
./stim/MorphF7_04_orig.jpg,185,,,,,,,,,0,185,185,185,,,,,,,,,,,,,,,5.185546875,1.494140625,0,0,1,2.46050310135,,,,,2015_Sep_26_1434,G,facesParametric,9,59.5929954179,
./stim/MorphF1_07_orig.jpg,186,,,,,,,,,0,186,186,186,,,,,,,,,,,,,,,5.15625,1.5234375,0,0,1,4.15454602242,,,,,2015_Sep_26_1434,G,facesParametric,9,59.5929954179,
./stim/MorphF5_06_orig.jpg,187,,,,,,,,,0,187,187,187,,,,,,,,,,,,,,,5.15625,1.5234375,0,0,1,2.15929794312,,,,,2015_Sep_26_1434,G,facesParametric,9,59.5929954179,
./stim/MorphM6_00_orig.jpg,188,,,,,,,,,0,188,188,188,,,,,,,,,,,,,,,5.15625,1.5234375,1,0,0,1.28919315338,,,,,2015_Sep_26_1434,G,facesParametric,9,59.5929954179,
./stim/MorphF8_07_orig.jpg,189,,,,,,,,,0,189,189,189,,,,,,,,,,,,,,,5.15625,1.5234375,0,0,1,1.49066209793,,,,,2015_Sep_26_1434,G,facesParametric,9,59.5929954179,
./stim/MorphF6_01_orig.jpg,190,,,,,,,,,0,190,190,190,,,,,,,,,,,,,,,5.185546875,1.494140625,1,0,0,1.37122702599,,,,,2015_Sep_26_1434,G,facesParametric,9,59.5929954179,
./stim/MorphF5_00_orig.jpg,191,,,,,,,,,0,191,191,191,,,,,,,,,,,,,,,5.185546875,1.494140625,1,0,0,1.62349796295,,,,,2015_Sep_26_1434,G,facesParametric,9,59.5929954179,
./stim/MorphF3_09_orig.jpg,192,,,,,,,,,0,192,192,192,,,,,,,,,,,,,,,5.185546875,1.494140625,0,0,1,1.40501785278,,,,,2015_Sep_26_1434,G,facesParametric,9,59.5929954179,
./stim/MorphM3_05_orig.jpg,193,,,,,,,,,0,193,193,193,,,,,,,,,,,,,,,5.21484375,1.5234375,0,0,1,1.92433285713,,,,,2015_Sep_26_1434,G,facesParametric,9,59.5929954179,
./stim/MorphF5_07_orig.jpg,194,,,,,,,,,0,194,194,194,,,,,,,,,,,,,,,5.21484375,1.5234375,0,0,1,1.99238705635,,,,,2015_Sep_26_1434,G,facesParametric,9,59.5929954179,
./stim/MorphF7_10_orig.jpg,195,,,,,,,,,0,195,195,195,,,,,,,,,,,,,,,5.21484375,1.5234375,0,0,1,1.02107214928,,,,,2015_Sep_26_1434,G,facesParametric,9,59.5929954179,
./stim/MorphF9_05_orig.jpg,196,,,,,,,,,0,196,196,196,,,,,,,,,,,,,,,5.21484375,1.5234375,0,0,1,2.09167790413,,,,,2015_Sep_26_1434,G,facesParametric,9,59.5929954179,
./stim/MorphF7_01_orig.jpg,197,,,,,,,,,0,197,197,197,,,,,,,,,,,,,,,5.302734375,1.5234375,1,0,0,1.13870596886,,,,,2015_Sep_26_1434,G,facesParametric,9,59.5929954179,
./stim/MorphF4_01_orig.jpg,198,,,,,,,,,0,198,198,198,,,,,,,,,,,,,,,5.419921875,1.5234375,1,0,0,1.27240896225,,,,,2015_Sep_26_1434,G,facesParametric,9,59.5929954179,
./stim/MorphM2_00_orig.jpg,199,,,,,,,,,0,199,199,199,,,,,,,,,,,,,,,5.478515625,1.5234375,1,0,0,1.10482287407,,,,,2015_Sep_26_1434,G,facesParametric,9,59.5929954179,
./stim/MorphM10_02_orig.jpg,200,,,,,,,,,0,200,200,200,,,,,,,,,,,,,,,5.537109375,1.5234375,1,0,0,3.48499417305,,,,,2015_Sep_26_1434,G,facesParametric,9,59.5929954179,
./stim/MorphM3_02_orig.jpg,201,,,,,,,,,0,201,201,201,,,,,,,,,,,,,,,5.537109375,1.5234375,1,0,0,1.75814294815,,,,,2015_Sep_26_1434,G,facesParametric,9,59.5929954179,
./stim/MorphF1_05_orig.jpg,202,,,,,,,,,0,202,202,202,,,,,,,,,,,,,,,5.625,1.552734375,0,0,1,3.66741704941,,,,,2015_Sep_26_1434,G,facesParametric,9,59.5929954179,
./stim/MorphM1_03_orig.jpg,203,,,,,,,,,0,203,203,203,,,,,,,,,,,,,,,5.625,1.552734375,1,0,0,1.52373886108,,,,,2015_Sep_26_1434,G,facesParametric,9,59.5929954179,
./stim/MorphF3_05_orig.jpg,204,,,,,,,,,0,204,204,204,,,,,,,,,,,,,,,5.654296875,1.5234375,0,0,1,1.53892302513,,,,,2015_Sep_26_1434,G,facesParametric,9,59.5929954179,
./stim/MorphF4_02_orig.jpg,205,,,,,,,,,0,205,205,205,,,,,,,,,,,,,,,5.595703125,1.58203125,0,0,1,3.82010912895,,,,,2015_Sep_26_1434,G,facesParametric,9,59.5929954179,
./stim/MorphM3_04_orig.jpg,206,,,,,,,,,0,206,206,206,,,,,,,,,,,,,,,5.595703125,1.58203125,0,0,1,4.47329998016,,,,,2015_Sep_26_1434,G,facesParametric,9,59.5929954179,
./stim/MorphM7_06_orig.jpg,207,,,,,,,,,0,207,207,207,,,,,,,,,,,,,,,5.595703125,1.58203125,0,0,1,1.94235491753,,,,,2015_Sep_26_1434,G,facesParametric,9,59.5929954179,
./stim/MorphM3_06_orig.jpg,208,,,,,,,,,0,208,208,208,,,,,,,,,,,,,,,5.595703125,1.58203125,0,0,1,1.3233230114,,,,,2015_Sep_26_1434,G,facesParametric,9,59.5929954179,
./stim/MorphF2_04_orig.jpg,209,,,,,,,,,0,209,209,209,,,,,,,,,,,,,,,5.595703125,1.58203125,0,0,1,1.65823101997,,,,,2015_Sep_26_1434,G,facesParametric,9,59.5929954179,
./stim/MorphF9_02_orig.jpg,210,,,,,,,,,0,210,210,210,,,,,,,,,,,,,,,5.595703125,1.58203125,0,0,1,1.72456502914,,,,,2015_Sep_26_1434,G,facesParametric,9,59.5929954179,
./stim/MorphM1_10_orig.jpg,211,,,,,,,,,0,211,211,211,,,,,,,,,,,,,,,5.595703125,1.58203125,0,0,1,1.22076010704,,,,,2015_Sep_26_1434,G,facesParametric,9,59.5929954179,
./stim/MorphM8_08_orig.jpg,212,,,,,,,,,0,212,212,212,,,,,,,,,,,,,,,5.595703125,1.58203125,0,0,1,1.6243481636,,,,,2015_Sep_26_1434,G,facesParametric,9,59.5929954179,
./stim/MorphF6_09_orig.jpg,213,,,,,,,,,0,213,213,213,,,,,,,,,,,,,,,5.595703125,1.58203125,0,0,1,1.97630906105,,,,,2015_Sep_26_1434,G,facesParametric,9,59.5929954179,
./stim/MorphM1_00_orig.jpg,214,,,,,,,,,0,214,214,214,,,,,,,,,,,,,,,5.595703125,1.58203125,0,0,1,1.64116382599,,,,,2015_Sep_26_1434,G,facesParametric,9,59.5929954179,
./stim/MorphM6_02_orig.jpg,215,,,,,,,,,0,215,215,215,,,,,,,,,,,,,,,5.595703125,1.58203125,1,0,0,3.08263802528,,,,,2015_Sep_26_1434,G,facesParametric,9,59.5929954179,
./stim/MorphM4_00_orig.jpg,216,,,,,,,,,0,216,216,216,,,,,,,,,,,,,,,5.595703125,1.58203125,1,0,0,1.45661497116,,,,,2015_Sep_26_1434,G,facesParametric,9,59.5929954179,
./stim/MorphF6_04_orig.jpg,217,,,,,,,,,0,217,217,217,,,,,,,,,,,,,,,5.595703125,1.58203125,0,0,1,1.57394814491,,,,,2015_Sep_26_1434,G,facesParametric,9,59.5929954179,
./stim/MorphM5_03_orig.jpg,218,,,,,,,,,0,218,218,218,,,,,,,,,,,,,,,5.595703125,1.552734375,1,0,0,4.27269506454,,,,,2015_Sep_26_1434,G,facesParametric,9,59.5929954179,
./stim/MorphF5_02_orig.jpg,219,,,,,,,,,0,219,219,219,,,,,,,,,,,,,,,5.712890625,1.46484375,1,0,0,1.22104310989,,,,,2015_Sep_26_1434,G,facesParametric,9,59.5929954179,
,,,,,,,,,,,,,,,,,,,,,,,,,,,,,,,,,,,,return,35.1902709007,2015_Sep_26_1434,G,facesParametric,9,59.5929954179,
