img,num,basicLoop.thisRepN,basicLoop.thisTrialN,basicLoop.thisN,basicLoop.thisIndex,trials.thisRepN,trials.thisTrialN,trials.thisN,trials.thisIndex,trials2.thisRepN,trials2.thisTrialN,trials2.thisN,trials2.thisIndex,key_resp_2.keys,key_resp_2.rt,basicRating1.response,basicRating1.rt,basicRating2.response,basicRating2.rt,basicRating3.response,basicRating3.rt,basicRating4.response,basicRating4.rt,key_resp_3.keys,key_resp_3.rt,key_resp_4.keys,key_resp_4.rt,mouseResp.x,mouseResp.y,mouseResp.leftButton,mouseResp.midButton,mouseResp.rightButton,mouseResp.time,key_resp_5.keys,key_resp_5.rt,key_resp_7.keys,key_resp_7.rt,date,group,expName,participant,frameRate,
,,,,,,,,,,,,,,return,43.0374410152,,,,,,,,,,,,,,,,,,,,,,,2015_Oct_20_1558,K,facesParametric,10,59.6918846838,
./basicStim/07F_NE_C.jpg,,0,0,0,34,,,,,,,,,,,None,None,None,None,None,None,NTR,8.297,,,,,,,,,,,,,,,2015_Oct_20_1558,K,facesParametric,10,59.6918846838,
./basicStim/07F_HA_O.jpg,,0,1,1,31,,,,,,,,,,,HAP,3.524,None,None,None,None,None,None,,,,,,,,,,,,,,,2015_Oct_20_1558,K,facesParametric,10,59.6918846838,
./basicStim/34M_HA_O.jpg,,0,2,2,73,,,,,,,,,,,HAP,0.798,None,None,None,None,None,None,,,,,,,,,,,,,,,2015_Oct_20_1558,K,facesParametric,10,59.6918846838,
./basicStim/34M_NE_C.jpg,,0,3,3,76,,,,,,,,,,,None,None,None,None,None,None,NTR,6.938,,,,,,,,,,,,,,,2015_Oct_20_1558,K,facesParametric,10,59.6918846838,
./basicStim/23M_FE_O.jpg,,0,4,4,51,,,,,,,,,,,None,None,ANG,3.644,None,None,None,None,,,,,,,,,,,,,,,2015_Oct_20_1558,K,facesParametric,10,59.6918846838,
./basicStim/01F_SA_C.jpg,,0,5,5,4,,,,,,,,,,,SAD,1.479,None,None,None,None,None,None,,,,,,,,,,,,,,,2015_Oct_20_1558,K,facesParametric,10,59.6918846838,
./basicStim/21M_SP_O.jpg,,0,6,6,47,,,,,,,,,,,None,None,None,None,SUP,3.572,None,None,,,,,,,,,,,,,,,2015_Oct_20_1558,K,facesParametric,10,59.6918846838,
./basicStim/23M_AN_O.jpg,,0,7,7,49,,,,,,,,,,,None,None,ANG,4.766,None,None,None,None,,,,,,,,,,,,,,,2015_Oct_20_1558,K,facesParametric,10,59.6918846838,
./basicStim/23M_HA_O.jpg,,0,8,8,52,,,,,,,,,,,None,None,None,None,None,None,NTR,5.097,,,,,,,,,,,,,,,2015_Oct_20_1558,K,facesParametric,10,59.6918846838,
./basicStim/03F_DI_O.jpg,,0,9,9,15,,,,,,,,,,,None,None,None,None,DIS,2.2,None,None,,,,,,,,,,,,,,,2015_Oct_20_1558,K,facesParametric,10,59.6918846838,
./basicStim/28M_DI_O.jpg,,0,10,10,64,,,,,,,,,,,None,None,None,None,DIS,0.641,None,None,,,,,,,,,,,,,,,2015_Oct_20_1558,K,facesParametric,10,59.6918846838,
./basicStim/21M_NE_C.jpg,,0,11,11,48,,,,,,,,,,,None,None,None,None,None,None,NTR,7.415,,,,,,,,,,,,,,,2015_Oct_20_1558,K,facesParametric,10,59.6918846838,
./basicStim/21M_HA_O.jpg,,0,12,12,45,,,,,,,,,,,HAP,2.452,None,None,None,None,None,None,,,,,,,,,,,,,,,2015_Oct_20_1558,K,facesParametric,10,59.6918846838,
./basicStim/28M_FE_O.jpg,,0,13,13,65,,,,,,,,,,,None,None,FEA,4.943,None,None,None,None,,,,,,,,,,,,,,,2015_Oct_20_1558,K,facesParametric,10,59.6918846838,
./basicStim/07F_AN_O.jpg,,0,14,14,28,,,,,,,,,,,None,None,ANG,11.215,None,None,None,None,,,,,,,,,,,,,,,2015_Oct_20_1558,K,facesParametric,10,59.6918846838,
./basicStim/21M_AN_O.jpg,,0,15,15,42,,,,,,,,,,,None,None,ANG,0.554,None,None,None,None,,,,,,,,,,,,,,,2015_Oct_20_1558,K,facesParametric,10,59.6918846838,
./basicStim/02F_SP_O.jpg,,0,16,16,12,,,,,,,,,,,None,None,None,None,SUP,1.313,None,None,,,,,,,,,,,,,,,2015_Oct_20_1558,K,facesParametric,10,59.6918846838,
./basicStim/09F_NE_C.jpg,,0,17,17,41,,,,,,,,,,,SAD,4.133,None,None,None,None,None,None,,,,,,,,,,,,,,,2015_Oct_20_1558,K,facesParametric,10,59.6918846838,
./basicStim/06F_NE_C.jpg,,0,18,18,27,,,,,,,,,,,SAD,2.827,None,None,None,None,None,None,,,,,,,,,,,,,,,2015_Oct_20_1558,K,facesParametric,10,59.6918846838,
./basicStim/01F_NE_C.jpg,,0,19,19,6,,,,,,,,,,,None,None,None,None,None,None,NTR,5.689,,,,,,,,,,,,,,,2015_Oct_20_1558,K,facesParametric,10,59.6918846838,
./basicStim/09F_HA_O.jpg,,0,20,20,38,,,,,,,,,,,HAP,2.337,None,None,None,None,None,None,,,,,,,,,,,,,,,2015_Oct_20_1558,K,facesParametric,10,59.6918846838,
./basicStim/34M_FE_O.jpg,,0,21,21,72,,,,,,,,,,,None,None,FEA,6.002,None,None,None,None,,,,,,,,,,,,,,,2015_Oct_20_1558,K,facesParametric,10,59.6918846838,
./basicStim/23M_NE_C.jpg,,0,22,22,55,,,,,,,,,,,None,None,None,None,None,None,NTR,3.436,,,,,,,,,,,,,,,2015_Oct_20_1558,K,facesParametric,10,59.6918846838,
./basicStim/07F_SA_C.jpg,,0,23,23,32,,,,,,,,,,,SAD,2.805,None,None,None,None,None,None,,,,,,,,,,,,,,,2015_Oct_20_1558,K,facesParametric,10,59.6918846838,
./basicStim/01F_FE_O.jpg,,0,24,24,2,,,,,,,,,,,None,None,ANG,4.766,None,None,None,None,,,,,,,,,,,,,,,2015_Oct_20_1558,K,facesParametric,10,59.6918846838,
./basicStim/34M_SP_O.jpg,,0,25,25,75,,,,,,,,,,,None,None,None,None,SUP,1.775,None,None,,,,,,,,,,,,,,,2015_Oct_20_1558,K,facesParametric,10,59.6918846838,
./basicStim/36M_SP_O.jpg,,0,26,26,82,,,,,,,,,,,None,None,None,None,SUP,0.896,None,None,,,,,,,,,,,,,,,2015_Oct_20_1558,K,facesParametric,10,59.6918846838,
./basicStim/09F_DI_O.jpg,,0,27,27,36,,,,,,,,,,,None,None,None,None,DIS,2.5,None,None,,,,,,,,,,,,,,,2015_Oct_20_1558,K,facesParametric,10,59.6918846838,
./basicStim/03F_FE_O.jpg,,0,28,28,16,,,,,,,,,,,None,None,FEA,3.347,None,None,None,None,,,,,,,,,,,,,,,2015_Oct_20_1558,K,facesParametric,10,59.6918846838,
./basicStim/06F_SP_O.jpg,,0,29,29,26,,,,,,,,,,,None,None,None,None,SUP,2.069,None,None,,,,,,,,,,,,,,,2015_Oct_20_1558,K,facesParametric,10,59.6918846838,
./basicStim/24M_FE_O.jpg,,0,30,30,58,,,,,,,,,,,None,None,FEA,5.74,None,None,None,None,,,,,,,,,,,,,,,2015_Oct_20_1558,K,facesParametric,10,59.6918846838,
./basicStim/03F_SA_C.jpg,,0,31,31,18,,,,,,,,,,,SAD,1.952,None,None,None,None,None,None,,,,,,,,,,,,,,,2015_Oct_20_1558,K,facesParametric,10,59.6918846838,
./basicStim/09F_SP_O.jpg,,0,32,32,40,,,,,,,,,,,None,None,None,None,SUP,5.937,None,None,,,,,,,,,,,,,,,2015_Oct_20_1558,K,facesParametric,10,59.6918846838,
./basicStim/24M_SP_O.jpg,,0,33,33,61,,,,,,,,,,,None,None,None,None,SUP,1.646,None,None,,,,,,,,,,,,,,,2015_Oct_20_1558,K,facesParametric,10,59.6918846838,
./basicStim/36M_HA_O.jpg,,0,34,34,80,,,,,,,,,,,HAP,1.749,None,None,None,None,None,None,,,,,,,,,,,,,,,2015_Oct_20_1558,K,facesParametric,10,59.6918846838,
./basicStim/21M_SA_C.jpg,,0,35,35,46,,,,,,,,,,,None,None,None,None,DIS,5.523,None,None,,,,,,,,,,,,,,,2015_Oct_20_1558,K,facesParametric,10,59.6918846838,
./basicStim/36M_NE_C.jpg,,0,36,36,83,,,,,,,,,,,None,None,None,None,None,None,NTR,2.316,,,,,,,,,,,,,,,2015_Oct_20_1558,K,facesParametric,10,59.6918846838,
./basicStim/09F_FE_O.jpg,,0,37,37,37,,,,,,,,,,,None,None,ANG,4.661,None,None,None,None,,,,,,,,,,,,,,,2015_Oct_20_1558,K,facesParametric,10,59.6918846838,
./basicStim/03F_HA_O.jpg,,0,38,38,17,,,,,,,,,,,HAP,1.33,None,None,None,None,None,None,,,,,,,,,,,,,,,2015_Oct_20_1558,K,facesParametric,10,59.6918846838,
./basicStim/02F_NE_C.jpg,,0,39,39,13,,,,,,,,,,,SAD,2.424,None,None,None,None,None,None,,,,,,,,,,,,,,,2015_Oct_20_1558,K,facesParametric,10,59.6918846838,
./basicStim/21M_DI_O.jpg,,0,40,40,43,,,,,,,,,,,None,None,None,None,DIS,1.93,None,None,,,,,,,,,,,,,,,2015_Oct_20_1558,K,facesParametric,10,59.6918846838,
./basicStim/23M_SP_O.jpg,,0,41,41,54,,,,,,,,,,,None,None,None,None,SUP,2.265,None,None,,,,,,,,,,,,,,,2015_Oct_20_1558,K,facesParametric,10,59.6918846838,
./basicStim/36M_FE_O.jpg,,0,42,42,79,,,,,,,,,,,None,None,FEA,2.569,None,None,None,None,,,,,,,,,,,,,,,2015_Oct_20_1558,K,facesParametric,10,59.6918846838,
./basicStim/03F_AN_O.jpg,,0,43,43,14,,,,,,,,,,,None,None,ANG,1.276,None,None,None,None,,,,,,,,,,,,,,,2015_Oct_20_1558,K,facesParametric,10,59.6918846838,
./basicStim/36M_SA_C.jpg,,0,44,44,81,,,,,,,,,,,SAD,1.314,None,None,None,None,None,None,,,,,,,,,,,,,,,2015_Oct_20_1558,K,facesParametric,10,59.6918846838,
./basicStim/28M_NE_C.jpg,,0,45,45,69,,,,,,,,,,,SAD,3.155,None,None,None,None,None,None,,,,,,,,,,,,,,,2015_Oct_20_1558,K,facesParametric,10,59.6918846838,
./basicStim/36M_AN_O.jpg,,0,46,46,77,,,,,,,,,,,None,None,ANG,2.972,None,None,None,None,,,,,,,,,,,,,,,2015_Oct_20_1558,K,facesParametric,10,59.6918846838,
./basicStim/06F_SA_C.jpg,,0,47,47,25,,,,,,,,,,,None,None,ANG,0.757,None,None,None,None,,,,,,,,,,,,,,,2015_Oct_20_1558,K,facesParametric,10,59.6918846838,
./basicStim/06F_DI_O.jpg,,0,48,48,22,,,,,,,,,,,None,None,None,None,DIS,1.525,None,None,,,,,,,,,,,,,,,2015_Oct_20_1558,K,facesParametric,10,59.6918846838,
./basicStim/24M_DI_O.jpg,,0,49,49,57,,,,,,,,,,,None,None,None,None,DIS,1.994,None,None,,,,,,,,,,,,,,,2015_Oct_20_1558,K,facesParametric,10,59.6918846838,
./basicStim/01F_HA_O.jpg,,0,50,50,3,,,,,,,,,,,HAP,1.697,None,None,None,None,None,None,,,,,,,,,,,,,,,2015_Oct_20_1558,K,facesParametric,10,59.6918846838,
./basicStim/07F_DI_O.jpg,,0,51,51,29,,,,,,,,,,,None,None,None,None,DIS,1.382,None,None,,,,,,,,,,,,,,,2015_Oct_20_1558,K,facesParametric,10,59.6918846838,
./basicStim/01F_DI_O.jpg,,0,52,52,1,,,,,,,,,,,None,None,ANG,2.403,None,None,None,None,,,,,,,,,,,,,,,2015_Oct_20_1558,K,facesParametric,10,59.6918846838,
./basicStim/07F_FE_O.jpg,,0,53,53,30,,,,,,,,,,,None,None,None,None,SUP,4.326,None,None,,,,,,,,,,,,,,,2015_Oct_20_1558,K,facesParametric,10,59.6918846838,
./basicStim/24M_HA_O.jpg,,0,54,54,59,,,,,,,,,,,HAP,3.44,None,None,None,None,None,None,,,,,,,,,,,,,,,2015_Oct_20_1558,K,facesParametric,10,59.6918846838,
./basicStim/01F_SP_O.jpg,,0,55,55,5,,,,,,,,,,,None,None,None,None,SUP,1.678,None,None,,,,,,,,,,,,,,,2015_Oct_20_1558,K,facesParametric,10,59.6918846838,
./basicStim/23M_SA_C.jpg,,0,56,56,53,,,,,,,,,,,SAD,1.831,None,None,None,None,None,None,,,,,,,,,,,,,,,2015_Oct_20_1558,K,facesParametric,10,59.6918846838,
./basicStim/02F_AN_O.jpg,,0,57,57,7,,,,,,,,,,,None,None,ANG,2.112,None,None,None,None,,,,,,,,,,,,,,,2015_Oct_20_1558,K,facesParametric,10,59.6918846838,
./basicStim/09F_AN_O.jpg,,0,58,58,35,,,,,,,,,,,None,None,ANG,0.911,None,None,None,None,,,,,,,,,,,,,,,2015_Oct_20_1558,K,facesParametric,10,59.6918846838,
./basicStim/28M_SP_O.jpg,,0,59,59,68,,,,,,,,,,,None,None,None,None,SUP,3.288,None,None,,,,,,,,,,,,,,,2015_Oct_20_1558,K,facesParametric,10,59.6918846838,
./basicStim/06F_AN_O.jpg,,0,60,60,21,,,,,,,,,,,None,None,ANG,3.325,None,None,None,None,,,,,,,,,,,,,,,2015_Oct_20_1558,K,facesParametric,10,59.6918846838,
./basicStim/34M_SA_C.jpg,,0,61,61,74,,,,,,,,,,,SAD,1.833,None,None,None,None,None,None,,,,,,,,,,,,,,,2015_Oct_20_1558,K,facesParametric,10,59.6918846838,
./basicStim/09F_SA_C.jpg,,0,62,62,39,,,,,,,,,,,SAD,0.726,None,None,None,None,None,None,,,,,,,,,,,,,,,2015_Oct_20_1558,K,facesParametric,10,59.6918846838,
./basicStim/24M_SA_C.jpg,,0,63,63,60,,,,,,,,,,,SAD,2.232,None,None,None,None,None,None,,,,,,,,,,,,,,,2015_Oct_20_1558,K,facesParametric,10,59.6918846838,
./basicStim/01F_AN_O.jpg,,0,64,64,0,,,,,,,,,,,None,None,ANG,3.69,None,None,None,None,,,,,,,,,,,,,,,2015_Oct_20_1558,K,facesParametric,10,59.6918846838,
./basicStim/06F_FE_O.jpg,,0,65,65,23,,,,,,,,,,,None,None,FEA,2.772,None,None,None,None,,,,,,,,,,,,,,,2015_Oct_20_1558,K,facesParametric,10,59.6918846838,
./basicStim/06F_HA_O.jpg,,0,66,66,24,,,,,,,,,,,HAP,0.931,None,None,None,None,None,None,,,,,,,,,,,,,,,2015_Oct_20_1558,K,facesParametric,10,59.6918846838,
./basicStim/36M_DI_O.jpg,,0,67,67,78,,,,,,,,,,,None,None,None,None,DIS,1.31,None,None,,,,,,,,,,,,,,,2015_Oct_20_1558,K,facesParametric,10,59.6918846838,
./basicStim/28M_HA_O.jpg,,0,68,68,66,,,,,,,,,,,HAP,1.043,None,None,None,None,None,None,,,,,,,,,,,,,,,2015_Oct_20_1558,K,facesParametric,10,59.6918846838,
./basicStim/34M_AN_O.jpg,,0,69,69,70,,,,,,,,,,,None,None,ANG,1.95,None,None,None,None,,,,,,,,,,,,,,,2015_Oct_20_1558,K,facesParametric,10,59.6918846838,
./basicStim/03F_SP_O.jpg,,0,70,70,19,,,,,,,,,,,None,None,None,None,SUP,3.089,None,None,,,,,,,,,,,,,,,2015_Oct_20_1558,K,facesParametric,10,59.6918846838,
./basicStim/07F_SP_O.jpg,,0,71,71,33,,,,,,,,,,,None,None,None,None,SUP,1.093,None,None,,,,,,,,,,,,,,,2015_Oct_20_1558,K,facesParametric,10,59.6918846838,
./basicStim/28M_SA_C.jpg,,0,72,72,67,,,,,,,,,,,None,None,None,None,None,None,NTR,1.402,,,,,,,,,,,,,,,2015_Oct_20_1558,K,facesParametric,10,59.6918846838,
./basicStim/02F_HA_O.jpg,,0,73,73,10,,,,,,,,,,,HAP,1.681,None,None,None,None,None,None,,,,,,,,,,,,,,,2015_Oct_20_1558,K,facesParametric,10,59.6918846838,
./basicStim/24M_AN_O.jpg,,0,74,74,56,,,,,,,,,,,None,None,ANG,1.597,None,None,None,None,,,,,,,,,,,,,,,2015_Oct_20_1558,K,facesParametric,10,59.6918846838,
./basicStim/02F_DI_O.jpg,,0,75,75,8,,,,,,,,,,,None,None,ANG,0.64,None,None,None,None,,,,,,,,,,,,,,,2015_Oct_20_1558,K,facesParametric,10,59.6918846838,
./basicStim/34M_DI_O.jpg,,0,76,76,71,,,,,,,,,,,None,None,None,None,DIS,1.075,None,None,,,,,,,,,,,,,,,2015_Oct_20_1558,K,facesParametric,10,59.6918846838,
./basicStim/28M_AN_O.jpg,,0,77,77,63,,,,,,,,,,,None,None,ANG,1.277,None,None,None,None,,,,,,,,,,,,,,,2015_Oct_20_1558,K,facesParametric,10,59.6918846838,
./basicStim/03F_NE_C.jpg,,0,78,78,20,,,,,,,,,,,None,None,None,None,None,None,NTR,1.157,,,,,,,,,,,,,,,2015_Oct_20_1558,K,facesParametric,10,59.6918846838,
./basicStim/23M_DI_O.jpg,,0,79,79,50,,,,,,,,,,,None,None,None,None,DIS,2.365,None,None,,,,,,,,,,,,,,,2015_Oct_20_1558,K,facesParametric,10,59.6918846838,
./basicStim/02F_FE_O.jpg,,0,80,80,9,,,,,,,,,,,None,None,None,None,SUP,2.606,None,None,,,,,,,,,,,,,,,2015_Oct_20_1558,K,facesParametric,10,59.6918846838,
./basicStim/21M_FE_O.jpg,,0,81,81,44,,,,,,,,,,,None,None,ANG,1.648,None,None,None,None,,,,,,,,,,,,,,,2015_Oct_20_1558,K,facesParametric,10,59.6918846838,
./basicStim/24M_NE_C.jpg,,0,82,82,62,,,,,,,,,,,None,None,None,None,None,None,NTR,1.333,,,,,,,,,,,,,,,2015_Oct_20_1558,K,facesParametric,10,59.6918846838,
./basicStim/02F_SA_C.jpg,,0,83,83,11,,,,,,,,,,,SAD,1.362,None,None,None,None,None,None,,,,,,,,,,,,,,,2015_Oct_20_1558,K,facesParametric,10,59.6918846838,
,,,,,,,,,,,,,,,,,,,,,,,,return,15.051445961,,,,,,,,,,,,,2015_Oct_20_1558,K,facesParametric,10,59.6918846838,
,,,,,,,,,,,,,,return,1.29004502296,,,,,,,,,,,,,,,,,,,,,,,2015_Oct_20_1558,K,facesParametric,10,59.6918846838,
,,,,,,,,,,,,,,,,,,,,,,,,return,28.1559128761,,,,,,,,,,,,,2015_Oct_20_1558,K,facesParametric,10,59.6918846838,
,,,,,,,,,,,,,,,,,,,,,,,,,,return,1.40751600266,,,,,,,,,,,2015_Oct_20_1558,K,facesParametric,10,59.6918846838,
./stim/MorphM7_05_orig.jpg,0,,,,,0,0,0,0,,,,,,,,,,,,,,,,,,,-16.611328125,-10.986328125,1,0,0,5.301872015,,,,,2015_Oct_20_1558,K,facesParametric,10,59.6918846838,
./stim/MorphF7_10_orig.jpg,1,,,,,0,1,1,1,,,,,,,,,,,,,,,,,,,-16.611328125,-10.986328125,1,0,0,1.80546712875,,,,,2015_Oct_20_1558,K,facesParametric,10,59.6918846838,
./stim/MorphM3_03_orig.jpg,2,,,,,0,2,2,2,,,,,,,,,,,,,,,,,,,-16.611328125,-10.986328125,0,0,1,1.65806889534,,,,,2015_Oct_20_1558,K,facesParametric,10,59.6918846838,
./stim/MorphF5_09_orig.jpg,3,,,,,0,3,3,3,,,,,,,,,,,,,,,,,,,-16.611328125,-10.986328125,1,0,0,1.37267208099,,,,,2015_Oct_20_1558,K,facesParametric,10,59.6918846838,
./stim/MorphF2_04_orig.jpg,4,,,,,0,4,4,4,,,,,,,,,,,,,,,,,,,-16.611328125,-10.986328125,0,0,1,1.25405287743,,,,,2015_Oct_20_1558,K,facesParametric,10,59.6918846838,
./stim/MorphF10_05_orig.jpg,5,,,,,0,5,5,5,,,,,,,,,,,,,,,,,,,-16.611328125,-10.986328125,1,0,0,1.42315506935,,,,,2015_Oct_20_1558,K,facesParametric,10,59.6918846838,
./stim/MorphM8_00_orig.jpg,6,,,,,0,6,6,6,,,,,,,,,,,,,,,,,,,-16.611328125,-10.986328125,1,0,0,2.09404993057,,,,,2015_Oct_20_1558,K,facesParametric,10,59.6918846838,
./stim/MorphM10_06_orig.jpg,7,,,,,0,7,7,7,,,,,,,,,,,,,,,,,,,-16.611328125,-10.986328125,1,0,0,1.1551721096,,,,,2015_Oct_20_1558,K,facesParametric,10,59.6918846838,
./stim/MorphF1_03_orig.jpg,8,,,,,0,8,8,8,,,,,,,,,,,,,,,,,,,-16.611328125,-10.986328125,0,0,1,1.32281517982,,,,,2015_Oct_20_1558,K,facesParametric,10,59.6918846838,
./stim/MorphM9_03_orig.jpg,9,,,,,0,9,9,9,,,,,,,,,,,,,,,,,,,-16.611328125,-10.986328125,0,0,1,1.82540416718,,,,,2015_Oct_20_1558,K,facesParametric,10,59.6918846838,
./stim/MorphM2_10_orig.jpg,10,,,,,0,10,10,10,,,,,,,,,,,,,,,,,,,-16.611328125,-10.986328125,1,0,0,1.20385718346,,,,,2015_Oct_20_1558,K,facesParametric,10,59.6918846838,
./stim/MorphM1_09_orig.jpg,11,,,,,0,11,11,11,,,,,,,,,,,,,,,,,,,-16.81640625,-11.015625,0,0,1,3.51834321022,,,,,2015_Oct_20_1558,K,facesParametric,10,59.6918846838,
./stim/MorphM7_02_orig.jpg,12,,,,,0,12,12,12,,,,,,,,,,,,,,,,,,,-16.787109375,-10.8984375,1,0,0,2.8816511631,,,,,2015_Oct_20_1558,K,facesParametric,10,59.6918846838,
./stim/MorphM3_02_orig.jpg,13,,,,,0,13,13,13,,,,,,,,,,,,,,,,,,,-16.787109375,-10.869140625,0,0,1,1.67481899261,,,,,2015_Oct_20_1558,K,facesParametric,10,59.6918846838,
./stim/MorphM2_03_orig.jpg,14,,,,,0,14,14,14,,,,,,,,,,,,,,,,,,,-16.787109375,-10.869140625,0,0,1,3.06549191475,,,,,2015_Oct_20_1558,K,facesParametric,10,59.6918846838,
./stim/MorphM5_07_orig.jpg,15,,,,,0,15,15,15,,,,,,,,,,,,,,,,,,,-16.81640625,-10.83984375,1,0,0,2.76272797585,,,,,2015_Oct_20_1558,K,facesParametric,10,59.6918846838,
./stim/MorphF10_04_orig.jpg,16,,,,,0,16,16,16,,,,,,,,,,,,,,,,,,,-16.787109375,-10.751953125,0,0,1,2.56299781799,,,,,2015_Oct_20_1558,K,facesParametric,10,59.6918846838,
./stim/MorphF4_04_orig.jpg,17,,,,,0,17,17,17,,,,,,,,,,,,,,,,,,,-16.58203125,-10.546875,0,0,1,4.67490386963,,,,,2015_Oct_20_1558,K,facesParametric,10,59.6918846838,
./stim/MorphF7_09_orig.jpg,18,,,,,0,18,18,18,,,,,,,,,,,,,,,,,,,-16.640625,-10.458984375,1,0,0,2.29493093491,,,,,2015_Oct_20_1558,K,facesParametric,10,59.6918846838,
./stim/MorphF9_01_orig.jpg,19,,,,,0,19,19,19,,,,,,,,,,,,,,,,,,,-16.640625,-10.4296875,0,0,1,1.37289404869,,,,,2015_Oct_20_1558,K,facesParametric,10,59.6918846838,
./stim/MorphM8_06_orig.jpg,20,,,,,0,20,20,20,,,,,,,,,,,,,,,,,,,-16.640625,-10.4296875,0,0,1,2.25995278358,,,,,2015_Oct_20_1558,K,facesParametric,10,59.6918846838,
./stim/MorphF4_03_orig.jpg,21,,,,,0,21,21,21,,,,,,,,,,,,,,,,,,,-16.640625,-10.4296875,0,0,1,1.67459917068,,,,,2015_Oct_20_1558,K,facesParametric,10,59.6918846838,
./stim/MorphF5_05_orig.jpg,22,,,,,0,22,22,22,,,,,,,,,,,,,,,,,,,-16.669921875,-10.400390625,1,0,0,1.55735611916,,,,,2015_Oct_20_1558,K,facesParametric,10,59.6918846838,
./stim/MorphF3_03_orig.jpg,23,,,,,0,23,23,23,,,,,,,,,,,,,,,,,,,-16.669921875,-10.400390625,0,0,1,1.708329916,,,,,2015_Oct_20_1558,K,facesParametric,10,59.6918846838,
./stim/MorphF4_06_orig.jpg,24,,,,,0,24,24,24,,,,,,,,,,,,,,,,,,,-16.669921875,-10.400390625,0,0,1,4.5065100193,,,,,2015_Oct_20_1558,K,facesParametric,10,59.6918846838,
./stim/MorphF6_01_orig.jpg,25,,,,,0,25,25,25,,,,,,,,,,,,,,,,,,,-16.669921875,-10.400390625,0,0,1,2.01024699211,,,,,2015_Oct_20_1558,K,facesParametric,10,59.6918846838,
./stim/MorphF9_00_orig.jpg,26,,,,,0,26,26,26,,,,,,,,,,,,,,,,,,,-16.669921875,-10.400390625,0,0,1,2.19420194626,,,,,2015_Oct_20_1558,K,facesParametric,10,59.6918846838,
./stim/MorphM6_09_orig.jpg,27,,,,,0,27,27,27,,,,,,,,,,,,,,,,,,,-16.5234375,-10.1953125,1,0,0,2.44597101212,,,,,2015_Oct_20_1558,K,facesParametric,10,59.6918846838,
./stim/MorphF7_01_orig.jpg,28,,,,,0,28,28,28,,,,,,,,,,,,,,,,,,,-16.376953125,-10.01953125,0,0,1,1.32073783875,,,,,2015_Oct_20_1558,K,facesParametric,10,59.6918846838,
./stim/MorphM10_04_orig.jpg,29,,,,,0,29,29,29,,,,,,,,,,,,,,,,,,,-16.2890625,-9.931640625,1,0,0,1.21973705292,,,,,2015_Oct_20_1558,K,facesParametric,10,59.6918846838,
./stim/MorphM8_01_orig.jpg,30,,,,,0,30,30,30,,,,,,,,,,,,,,,,,,,-10.986328125,-13.154296875,1,0,0,3.63416099548,,,,,2015_Oct_20_1558,K,facesParametric,10,59.6918846838,
./stim/MorphM5_06_orig.jpg,31,,,,,0,31,31,31,,,,,,,,,,,,,,,,,,,-11.103515625,-13.125,0,0,1,2.11033201218,,,,,2015_Oct_20_1558,K,facesParametric,10,59.6918846838,
./stim/MorphF8_01_orig.jpg,32,,,,,0,32,32,32,,,,,,,,,,,,,,,,,,,-11.25,-13.154296875,0,0,1,2.04156398773,,,,,2015_Oct_20_1558,K,facesParametric,10,59.6918846838,
./stim/MorphM5_03_orig.jpg,33,,,,,0,33,33,33,,,,,,,,,,,,,,,,,,,-11.337890625,-13.154296875,0,0,1,2.61303901672,,,,,2015_Oct_20_1558,K,facesParametric,10,59.6918846838,
./stim/MorphF1_01_orig.jpg,34,,,,,0,34,34,34,,,,,,,,,,,,,,,,,,,-11.396484375,-13.125,0,0,1,2.29461407661,,,,,2015_Oct_20_1558,K,facesParametric,10,59.6918846838,
./stim/MorphM2_00_orig.jpg,35,,,,,0,35,35,35,,,,,,,,,,,,,,,,,,,-11.396484375,-13.125,0,0,1,2.34427905083,,,,,2015_Oct_20_1558,K,facesParametric,10,59.6918846838,
./stim/MorphF9_05_orig.jpg,36,,,,,0,36,36,36,,,,,,,,,,,,,,,,,,,-11.396484375,-13.125,0,0,1,3.1662569046,,,,,2015_Oct_20_1558,K,facesParametric,10,59.6918846838,
./stim/MorphF6_07_orig.jpg,37,,,,,0,37,37,37,,,,,,,,,,,,,,,,,,,-11.396484375,-13.125,1,0,0,1.89215898514,,,,,2015_Oct_20_1558,K,facesParametric,10,59.6918846838,
./stim/MorphF1_07_orig.jpg,38,,,,,0,38,38,38,,,,,,,,,,,,,,,,,,,-11.396484375,-13.125,0,0,1,4.35576319695,,,,,2015_Oct_20_1558,K,facesParametric,10,59.6918846838,
./stim/MorphM2_01_orig.jpg,39,,,,,0,39,39,39,,,,,,,,,,,,,,,,,,,-11.396484375,-13.125,0,0,1,3.80341410637,,,,,2015_Oct_20_1558,K,facesParametric,10,59.6918846838,
./stim/MorphM1_00_orig.jpg,40,,,,,0,40,40,40,,,,,,,,,,,,,,,,,,,-12.7734375,-13.154296875,1,0,0,7.49032711983,,,,,2015_Oct_20_1558,K,facesParametric,10,59.6918846838,
./stim/MorphF1_06_orig.jpg,41,,,,,0,41,41,41,,,,,,,,,,,,,,,,,,,-12.7734375,-13.154296875,0,0,1,1.80864906311,,,,,2015_Oct_20_1558,K,facesParametric,10,59.6918846838,
./stim/MorphM7_03_orig.jpg,42,,,,,0,42,42,42,,,,,,,,,,,,,,,,,,,-12.7734375,-13.154296875,1,0,0,1.60784888268,,,,,2015_Oct_20_1558,K,facesParametric,10,59.6918846838,
./stim/MorphM2_08_orig.jpg,43,,,,,0,43,43,43,,,,,,,,,,,,,,,,,,,-12.7734375,-13.154296875,1,0,0,1.20433306694,,,,,2015_Oct_20_1558,K,facesParametric,10,59.6918846838,
./stim/MorphF6_00_orig.jpg,44,,,,,0,44,44,44,,,,,,,,,,,,,,,,,,,-12.7734375,-13.154296875,0,0,1,1.50721096992,,,,,2015_Oct_20_1558,K,facesParametric,10,59.6918846838,
./stim/MorphM8_02_orig.jpg,45,,,,,0,45,45,45,,,,,,,,,,,,,,,,,,,-12.7734375,-13.154296875,0,0,1,2.3285548687,,,,,2015_Oct_20_1558,K,facesParametric,10,59.6918846838,
./stim/MorphM6_10_orig.jpg,46,,,,,0,46,46,46,,,,,,,,,,,,,,,,,,,-12.7734375,-13.154296875,0,0,1,3.3339278698,,,,,2015_Oct_20_1558,K,facesParametric,10,59.6918846838,
./stim/MorphF1_09_orig.jpg,47,,,,,0,47,47,47,,,,,,,,,,,,,,,,,,,-12.7734375,-13.154296875,1,0,0,1.95915102959,,,,,2015_Oct_20_1558,K,facesParametric,10,59.6918846838,
./stim/MorphM9_02_orig.jpg,48,,,,,0,48,48,48,,,,,,,,,,,,,,,,,,,-12.7734375,-13.154296875,0,0,1,3.434497118,,,,,2015_Oct_20_1558,K,facesParametric,10,59.6918846838,
./stim/MorphM2_02_orig.jpg,49,,,,,0,49,49,49,,,,,,,,,,,,,,,,,,,-12.7734375,-13.154296875,0,0,1,1.45650792122,,,,,2015_Oct_20_1558,K,facesParametric,10,59.6918846838,
./stim/MorphM6_07_orig.jpg,50,,,,,0,50,50,50,,,,,,,,,,,,,,,,,,,-12.7734375,-13.154296875,0,0,1,2.34549212456,,,,,2015_Oct_20_1558,K,facesParametric,10,59.6918846838,
./stim/MorphF6_06_orig.jpg,51,,,,,0,51,51,51,,,,,,,,,,,,,,,,,,,-12.7734375,-13.154296875,1,0,0,4.48998904228,,,,,2015_Oct_20_1558,K,facesParametric,10,59.6918846838,
./stim/MorphM10_02_orig.jpg,52,,,,,0,52,52,52,,,,,,,,,,,,,,,,,,,-12.7734375,-13.154296875,1,0,0,2.49577879906,,,,,2015_Oct_20_1558,K,facesParametric,10,59.6918846838,
./stim/MorphF5_07_orig.jpg,53,,,,,0,53,53,53,,,,,,,,,,,,,,,,,,,-12.7734375,-13.154296875,1,0,0,1.42335009575,,,,,2015_Oct_20_1558,K,facesParametric,10,59.6918846838,
./stim/MorphF10_02_orig.jpg,54,,,,,0,54,54,54,,,,,,,,,,,,,,,,,,,-12.7734375,-13.154296875,0,0,1,5.41214203835,,,,,2015_Oct_20_1558,K,facesParametric,10,59.6918846838,
./stim/MorphM4_03_orig.jpg,55,,,,,0,55,55,55,,,,,,,,,,,,,,,,,,,-12.7734375,-13.154296875,0,0,1,2.3947019577,,,,,2015_Oct_20_1558,K,facesParametric,10,59.6918846838,
./stim/MorphF1_10_orig.jpg,56,,,,,0,56,56,56,,,,,,,,,,,,,,,,,,,-12.7734375,-13.154296875,1,0,0,1.87407684326,,,,,2015_Oct_20_1558,K,facesParametric,10,59.6918846838,
./stim/MorphF3_10_orig.jpg,57,,,,,0,57,57,57,,,,,,,,,,,,,,,,,,,-12.7734375,-13.154296875,1,0,0,1.47349715233,,,,,2015_Oct_20_1558,K,facesParametric,10,59.6918846838,
./stim/MorphM6_02_orig.jpg,58,,,,,0,58,58,58,,,,,,,,,,,,,,,,,,,-12.7734375,-13.154296875,0,0,1,1.43829703331,,,,,2015_Oct_20_1558,K,facesParametric,10,59.6918846838,
./stim/MorphM1_07_orig.jpg,59,,,,,0,59,59,59,,,,,,,,,,,,,,,,,,,-12.7734375,-13.154296875,0,0,1,2.27824306488,,,,,2015_Oct_20_1558,K,facesParametric,10,59.6918846838,
./stim/MorphF2_08_orig.jpg,60,,,,,0,60,60,60,,,,,,,,,,,,,,,,,,,-12.7734375,-13.154296875,0,0,1,3.18319106102,,,,,2015_Oct_20_1558,K,facesParametric,10,59.6918846838,
./stim/MorphM4_04_orig.jpg,61,,,,,0,61,61,61,,,,,,,,,,,,,,,,,,,-12.7734375,-13.154296875,1,0,0,4.54061794281,,,,,2015_Oct_20_1558,K,facesParametric,10,59.6918846838,
./stim/MorphF8_10_orig.jpg,62,,,,,0,62,62,62,,,,,,,,,,,,,,,,,,,-12.7734375,-13.154296875,1,0,0,1.42318797112,,,,,2015_Oct_20_1558,K,facesParametric,10,59.6918846838,
./stim/MorphM7_07_orig.jpg,63,,,,,0,63,63,63,,,,,,,,,,,,,,,,,,,-12.7734375,-13.154296875,1,0,0,1.07110095024,,,,,2015_Oct_20_1558,K,facesParametric,10,59.6918846838,
./stim/MorphM8_05_orig.jpg,64,,,,,0,64,64,64,,,,,,,,,,,,,,,,,,,-12.7734375,-13.154296875,0,0,1,1.42120814323,,,,,2015_Oct_20_1558,K,facesParametric,10,59.6918846838,
./stim/MorphF6_02_orig.jpg,65,,,,,0,65,65,65,,,,,,,,,,,,,,,,,,,-12.7734375,-13.154296875,0,0,1,1.10471200943,,,,,2015_Oct_20_1558,K,facesParametric,10,59.6918846838,
./stim/MorphF2_10_orig.jpg,66,,,,,0,66,66,66,,,,,,,,,,,,,,,,,,,-12.7734375,-13.125,1,0,0,1.340020895,,,,,2015_Oct_20_1558,K,facesParametric,10,59.6918846838,
./stim/MorphM5_09_orig.jpg,67,,,,,0,67,67,67,,,,,,,,,,,,,,,,,,,-12.7734375,-13.125,1,0,0,1.3041369915,,,,,2015_Oct_20_1558,K,facesParametric,10,59.6918846838,
./stim/MorphF8_09_orig.jpg,68,,,,,0,68,68,68,,,,,,,,,,,,,,,,,,,-12.7734375,-13.125,1,0,0,1.50728201866,,,,,2015_Oct_20_1558,K,facesParametric,10,59.6918846838,
./stim/MorphM6_08_orig.jpg,69,,,,,0,69,69,69,,,,,,,,,,,,,,,,,,,-12.7734375,-13.125,0,0,1,1.38870811462,,,,,2015_Oct_20_1558,K,facesParametric,10,59.6918846838,
./stim/MorphF2_00_orig.jpg,70,,,,,0,70,70,70,,,,,,,,,,,,,,,,,,,-12.7734375,-13.125,0,0,1,3.28383302689,,,,,2015_Oct_20_1558,K,facesParametric,10,59.6918846838,
./stim/MorphF7_03_orig.jpg,71,,,,,0,71,71,71,,,,,,,,,,,,,,,,,,,-12.7734375,-13.125,0,0,1,1.82489895821,,,,,2015_Oct_20_1558,K,facesParametric,10,59.6918846838,
./stim/MorphM9_10_orig.jpg,72,,,,,0,72,72,72,,,,,,,,,,,,,,,,,,,-12.7734375,-13.095703125,1,0,0,1.50769996643,,,,,2015_Oct_20_1558,K,facesParametric,10,59.6918846838,
./stim/MorphF3_05_orig.jpg,73,,,,,0,73,73,73,,,,,,,,,,,,,,,,,,,-12.7734375,-13.095703125,0,0,1,1.18857288361,,,,,2015_Oct_20_1558,K,facesParametric,10,59.6918846838,
./stim/MorphM10_08_orig.jpg,74,,,,,0,74,74,74,,,,,,,,,,,,,,,,,,,-12.744140625,-13.06640625,1,0,0,1.03567695618,,,,,2015_Oct_20_1558,K,facesParametric,10,59.6918846838,
./stim/MorphF4_01_orig.jpg,75,,,,,0,75,75,75,,,,,,,,,,,,,,,,,,,-12.744140625,-13.06640625,0,0,1,2.46171712875,,,,,2015_Oct_20_1558,K,facesParametric,10,59.6918846838,
./stim/MorphM5_04_orig.jpg,76,,,,,0,76,76,76,,,,,,,,,,,,,,,,,,,-12.744140625,-13.06640625,1,0,0,2.32724499702,,,,,2015_Oct_20_1558,K,facesParametric,10,59.6918846838,
./stim/MorphM7_09_orig.jpg,77,,,,,0,77,77,77,,,,,,,,,,,,,,,,,,,-12.744140625,-13.06640625,1,0,0,2.12709999084,,,,,2015_Oct_20_1558,K,facesParametric,10,59.6918846838,
./stim/MorphM1_04_orig.jpg,78,,,,,0,78,78,78,,,,,,,,,,,,,,,,,,,-12.744140625,-13.06640625,0,0,1,5.76400899887,,,,,2015_Oct_20_1558,K,facesParametric,10,59.6918846838,
./stim/MorphF8_07_orig.jpg,79,,,,,0,79,79,79,,,,,,,,,,,,,,,,,,,-12.744140625,-13.06640625,0,0,1,10.9261569977,,,,,2015_Oct_20_1558,K,facesParametric,10,59.6918846838,
./stim/MorphM9_06_orig.jpg,80,,,,,0,80,80,80,,,,,,,,,,,,,,,,,,,-12.744140625,-13.06640625,0,0,1,2.54657196999,,,,,2015_Oct_20_1558,K,facesParametric,10,59.6918846838,
./stim/MorphF8_03_orig.jpg,81,,,,,0,81,81,81,,,,,,,,,,,,,,,,,,,-12.744140625,-13.06640625,0,0,1,4.30587387085,,,,,2015_Oct_20_1558,K,facesParametric,10,59.6918846838,
./stim/MorphM8_07_orig.jpg,82,,,,,0,82,82,82,,,,,,,,,,,,,,,,,,,-12.744140625,-13.06640625,0,0,1,8.56299901009,,,,,2015_Oct_20_1558,K,facesParametric,10,59.6918846838,
./stim/MorphF2_05_orig.jpg,83,,,,,0,83,83,83,,,,,,,,,,,,,,,,,,,-12.744140625,-13.06640625,0,0,1,9.7865281105,,,,,2015_Oct_20_1558,K,facesParametric,10,59.6918846838,
./stim/MorphM9_05_orig.jpg,84,,,,,0,84,84,84,,,,,,,,,,,,,,,,,,,-12.744140625,-13.06640625,0,0,1,2.30953383446,,,,,2015_Oct_20_1558,K,facesParametric,10,59.6918846838,
./stim/MorphM5_01_orig.jpg,85,,,,,0,85,85,85,,,,,,,,,,,,,,,,,,,-12.744140625,-13.06640625,0,0,1,2.76395177841,,,,,2015_Oct_20_1558,K,facesParametric,10,59.6918846838,
./stim/MorphF10_01_orig.jpg,86,,,,,0,86,86,86,,,,,,,,,,,,,,,,,,,-12.802734375,-13.037109375,0,0,1,10.8091549873,,,,,2015_Oct_20_1558,K,facesParametric,10,59.6918846838,
./stim/MorphM5_08_orig.jpg,87,,,,,0,87,87,87,,,,,,,,,,,,,,,,,,,-12.802734375,-13.037109375,1,0,0,2.09334492683,,,,,2015_Oct_20_1558,K,facesParametric,10,59.6918846838,
./stim/MorphF7_02_orig.jpg,88,,,,,0,88,88,88,,,,,,,,,,,,,,,,,,,-12.802734375,-13.037109375,0,0,1,2.64576911926,,,,,2015_Oct_20_1558,K,facesParametric,10,59.6918846838,
./stim/MorphF2_03_orig.jpg,89,,,,,0,89,89,89,,,,,,,,,,,,,,,,,,,-12.802734375,-13.037109375,1,0,0,2.81324195862,,,,,2015_Oct_20_1558,K,facesParametric,10,59.6918846838,
./stim/MorphF5_08_orig.jpg,90,,,,,0,90,90,90,,,,,,,,,,,,,,,,,,,-12.802734375,-13.037109375,1,0,0,4.28791308403,,,,,2015_Oct_20_1558,K,facesParametric,10,59.6918846838,
./stim/MorphM1_03_orig.jpg,91,,,,,0,91,91,91,,,,,,,,,,,,,,,,,,,-12.802734375,-13.037109375,1,0,0,3.28347015381,,,,,2015_Oct_20_1558,K,facesParametric,10,59.6918846838,
./stim/MorphF8_05_orig.jpg,92,,,,,0,92,92,92,,,,,,,,,,,,,,,,,,,-12.802734375,-13.037109375,0,0,1,2.88145303726,,,,,2015_Oct_20_1558,K,facesParametric,10,59.6918846838,
./stim/MorphM7_01_orig.jpg,93,,,,,0,93,93,93,,,,,,,,,,,,,,,,,,,-12.802734375,-13.037109375,1,0,0,3.23336315155,,,,,2015_Oct_20_1558,K,facesParametric,10,59.6918846838,
./stim/MorphF7_06_orig.jpg,94,,,,,0,94,94,94,,,,,,,,,,,,,,,,,,,-12.802734375,-13.037109375,1,0,0,8.32722020149,,,,,2015_Oct_20_1558,K,facesParametric,10,59.6918846838,
./stim/MorphF10_00_orig.jpg,95,,,,,0,95,95,95,,,,,,,,,,,,,,,,,,,-12.802734375,-13.037109375,1,0,0,7.80855417252,,,,,2015_Oct_20_1558,K,facesParametric,10,59.6918846838,
./stim/MorphM5_05_orig.jpg,96,,,,,0,96,96,96,,,,,,,,,,,,,,,,,,,-12.890625,-13.06640625,0,0,1,3.86863493919,,,,,2015_Oct_20_1558,K,facesParametric,10,59.6918846838,
./stim/MorphF2_09_orig.jpg,97,,,,,0,97,97,97,,,,,,,,,,,,,,,,,,,-12.890625,-13.06640625,1,0,0,1.90818309784,,,,,2015_Oct_20_1558,K,facesParametric,10,59.6918846838,
./stim/MorphM1_05_orig.jpg,98,,,,,0,98,98,98,,,,,,,,,,,,,,,,,,,-12.890625,-13.06640625,1,0,0,5.4631729126,,,,,2015_Oct_20_1558,K,facesParametric,10,59.6918846838,
./stim/MorphM4_05_orig.jpg,99,,,,,0,99,99,99,,,,,,,,,,,,,,,,,,,-12.890625,-13.06640625,1,0,0,4.94211792946,,,,,2015_Oct_20_1558,K,facesParametric,10,59.6918846838,
./stim/MorphF7_00_orig.jpg,100,,,,,0,100,100,100,,,,,,,,,,,,,,,,,,,-12.890625,-13.06640625,0,0,1,2.81534099579,,,,,2015_Oct_20_1558,K,facesParametric,10,59.6918846838,
./stim/MorphF6_04_orig.jpg,101,,,,,0,101,101,101,,,,,,,,,,,,,,,,,,,-12.890625,-13.06640625,0,0,1,4.48970413208,,,,,2015_Oct_20_1558,K,facesParametric,10,59.6918846838,
./stim/MorphF3_06_orig.jpg,102,,,,,0,102,102,102,,,,,,,,,,,,,,,,,,,-12.890625,-13.06640625,0,0,1,7.72477602959,,,,,2015_Oct_20_1558,K,facesParametric,10,59.6918846838,
./stim/MorphM3_09_orig.jpg,103,,,,,0,103,103,103,,,,,,,,,,,,,,,,,,,-12.919921875,-13.095703125,1,0,0,1.59086585045,,,,,2015_Oct_20_1558,K,facesParametric,10,59.6918846838,
./stim/MorphM6_05_orig.jpg,104,,,,,0,104,104,104,,,,,,,,,,,,,,,,,,,-12.919921875,-13.095703125,0,0,1,2.52870678902,,,,,2015_Oct_20_1558,K,facesParametric,10,59.6918846838,
./stim/MorphM2_04_orig.jpg,105,,,,,0,105,105,105,,,,,,,,,,,,,,,,,,,-12.919921875,-13.095703125,0,0,1,1.75818014145,,,,,2015_Oct_20_1558,K,facesParametric,10,59.6918846838,
./stim/MorphM1_02_orig.jpg,106,,,,,0,106,106,106,,,,,,,,,,,,,,,,,,,-12.919921875,-13.095703125,1,0,0,4.65925097466,,,,,2015_Oct_20_1558,K,facesParametric,10,59.6918846838,
./stim/MorphM8_09_orig.jpg,107,,,,,0,107,107,107,,,,,,,,,,,,,,,,,,,-12.919921875,-13.095703125,1,0,0,1.42247509956,,,,,2015_Oct_20_1558,K,facesParametric,10,59.6918846838,
./stim/MorphM7_00_orig.jpg,108,,,,,0,108,108,108,,,,,,,,,,,,,,,,,,,-12.861328125,-13.095703125,1,0,0,1.3388941288,,,,,2015_Oct_20_1558,K,facesParametric,10,59.6918846838,
./stim/MorphF4_10_orig.jpg,109,,,,,0,109,109,109,,,,,,,,,,,,,,,,,,,-12.861328125,-13.095703125,1,0,0,1.27274107933,,,,,2015_Oct_20_1558,K,facesParametric,10,59.6918846838,
./stim/MorphM10_00_orig.jpg,110,,,,,0,110,110,110,,,,,,,,,,,,,,,,,,,-12.861328125,-13.095703125,0,0,1,2.05796599388,,,,,2015_Oct_20_1558,K,facesParametric,10,59.6918846838,
./stim/MorphF1_00_orig.jpg,111,,,,,0,111,111,111,,,,,,,,,,,,,,,,,,,-12.83203125,-13.125,0,0,1,2.71422505379,,,,,2015_Oct_20_1558,K,facesParametric,10,59.6918846838,
./stim/MorphM6_06_orig.jpg,112,,,,,0,112,112,112,,,,,,,,,,,,,,,,,,,-12.83203125,-13.125,0,0,1,2.17545700073,,,,,2015_Oct_20_1558,K,facesParametric,10,59.6918846838,
./stim/MorphF3_02_orig.jpg,113,,,,,0,113,113,113,,,,,,,,,,,,,,,,,,,-12.83203125,-13.125,0,0,1,2.25973296165,,,,,2015_Oct_20_1558,K,facesParametric,10,59.6918846838,
./stim/MorphM8_08_orig.jpg,114,,,,,0,114,114,114,,,,,,,,,,,,,,,,,,,-12.83203125,-13.125,1,0,0,2.39555001259,,,,,2015_Oct_20_1558,K,facesParametric,10,59.6918846838,
./stim/MorphF1_04_orig.jpg,115,,,,,0,115,115,115,,,,,,,,,,,,,,,,,,,-14.6484375,-13.154296875,0,0,1,9.88738489151,,,,,2015_Oct_20_1558,K,facesParametric,10,59.6918846838,
./stim/MorphF2_06_orig.jpg,116,,,,,0,116,116,116,,,,,,,,,,,,,,,,,,,-14.6484375,-13.154296875,1,0,0,2.54588580132,,,,,2015_Oct_20_1558,K,facesParametric,10,59.6918846838,
./stim/MorphF6_10_orig.jpg,117,,,,,0,117,117,117,,,,,,,,,,,,,,,,,,,-14.6484375,-13.154296875,1,0,0,1.55695915222,,,,,2015_Oct_20_1558,K,facesParametric,10,59.6918846838,
./stim/MorphM7_06_orig.jpg,118,,,,,0,118,118,118,,,,,,,,,,,,,,,,,,,-14.6484375,-13.154296875,1,0,0,1.00451493263,,,,,2015_Oct_20_1558,K,facesParametric,10,59.6918846838,
./stim/MorphF1_08_orig.jpg,119,,,,,0,119,119,119,,,,,,,,,,,,,,,,,,,-14.6484375,-13.154296875,1,0,0,1.3396551609,,,,,2015_Oct_20_1558,K,facesParametric,10,59.6918846838,
./stim/MorphM3_05_orig.jpg,120,,,,,0,120,120,120,,,,,,,,,,,,,,,,,,,-14.6484375,-13.154296875,1,0,0,1.92627906799,,,,,2015_Oct_20_1558,K,facesParametric,10,59.6918846838,
./stim/MorphM5_00_orig.jpg,121,,,,,0,121,121,121,,,,,,,,,,,,,,,,,,,-14.6484375,-13.154296875,0,0,1,1.99289989471,,,,,2015_Oct_20_1558,K,facesParametric,10,59.6918846838,
./stim/MorphF6_08_orig.jpg,122,,,,,0,122,122,122,,,,,,,,,,,,,,,,,,,-14.6484375,-13.154296875,1,0,0,1.23896503448,,,,,2015_Oct_20_1558,K,facesParametric,10,59.6918846838,
./stim/MorphF2_07_orig.jpg,123,,,,,0,123,123,123,,,,,,,,,,,,,,,,,,,-14.6484375,-13.154296875,1,0,0,0.920654058456,,,,,2015_Oct_20_1558,K,facesParametric,10,59.6918846838,
./stim/MorphF10_07_orig.jpg,124,,,,,0,124,124,124,,,,,,,,,,,,,,,,,,,-14.6484375,-13.154296875,1,0,0,1.28893089294,,,,,2015_Oct_20_1558,K,facesParametric,10,59.6918846838,
./stim/MorphF9_04_orig.jpg,125,,,,,0,125,125,125,,,,,,,,,,,,,,,,,,,-14.6484375,-13.154296875,1,0,0,6.98745989799,,,,,2015_Oct_20_1558,K,facesParametric,10,59.6918846838,
./stim/MorphM4_02_orig.jpg,126,,,,,0,126,126,126,,,,,,,,,,,,,,,,,,,-14.6484375,-13.154296875,0,0,1,1.69144511223,,,,,2015_Oct_20_1558,K,facesParametric,10,59.6918846838,
./stim/MorphF9_08_orig.jpg,127,,,,,0,127,127,127,,,,,,,,,,,,,,,,,,,-14.6484375,-13.154296875,1,0,0,3.09898304939,,,,,2015_Oct_20_1558,K,facesParametric,10,59.6918846838,
./stim/MorphM10_01_orig.jpg,128,,,,,0,128,128,128,,,,,,,,,,,,,,,,,,,-14.6484375,-13.154296875,0,0,1,4.13795495033,,,,,2015_Oct_20_1558,K,facesParametric,10,59.6918846838,
./stim/MorphF10_06_orig.jpg,129,,,,,0,129,129,129,,,,,,,,,,,,,,,,,,,-14.6484375,-13.154296875,1,0,0,3.63534283638,,,,,2015_Oct_20_1558,K,facesParametric,10,59.6918846838,
./stim/MorphM6_01_orig.jpg,130,,,,,0,130,130,130,,,,,,,,,,,,,,,,,,,-14.6484375,-13.154296875,0,0,1,1.4386909008,,,,,2015_Oct_20_1558,K,facesParametric,10,59.6918846838,
./stim/MorphF9_09_orig.jpg,131,,,,,0,131,131,131,,,,,,,,,,,,,,,,,,,-14.6484375,-13.154296875,1,0,0,3.83616995811,,,,,2015_Oct_20_1558,K,facesParametric,10,59.6918846838,
./stim/MorphM1_10_orig.jpg,132,,,,,0,132,132,132,,,,,,,,,,,,,,,,,,,-14.6484375,-13.154296875,1,0,0,4.42319989204,,,,,2015_Oct_20_1558,K,facesParametric,10,59.6918846838,
./stim/MorphF8_08_orig.jpg,133,,,,,0,133,133,133,,,,,,,,,,,,,,,,,,,-14.6484375,-13.154296875,1,0,0,2.00869512558,,,,,2015_Oct_20_1558,K,facesParametric,10,59.6918846838,
./stim/MorphM4_01_orig.jpg,134,,,,,0,134,134,134,,,,,,,,,,,,,,,,,,,-14.6484375,-13.154296875,0,0,1,5.02592492104,,,,,2015_Oct_20_1558,K,facesParametric,10,59.6918846838,
./stim/MorphF8_06_orig.jpg,135,,,,,0,135,135,135,,,,,,,,,,,,,,,,,,,-14.6484375,-13.154296875,0,0,1,3.23328709602,,,,,2015_Oct_20_1558,K,facesParametric,10,59.6918846838,
./stim/MorphF6_05_orig.jpg,136,,,,,0,136,136,136,,,,,,,,,,,,,,,,,,,-14.6484375,-13.154296875,0,0,1,2.37815499306,,,,,2015_Oct_20_1558,K,facesParametric,10,59.6918846838,
./stim/MorphM3_00_orig.jpg,137,,,,,0,137,137,137,,,,,,,,,,,,,,,,,,,-14.58984375,-13.154296875,0,0,1,7.70816516876,,,,,2015_Oct_20_1558,K,facesParametric,10,59.6918846838,
./stim/MorphF9_10_orig.jpg,138,,,,,0,138,138,138,,,,,,,,,,,,,,,,,,,-14.560546875,-13.154296875,1,0,0,3.55212712288,,,,,2015_Oct_20_1558,K,facesParametric,10,59.6918846838,
./stim/MorphF10_08_orig.jpg,139,,,,,0,139,139,139,,,,,,,,,,,,,,,,,,,-14.560546875,-13.154296875,1,0,0,2.37729597092,,,,,2015_Oct_20_1558,K,facesParametric,10,59.6918846838,
./stim/MorphM7_10_orig.jpg,140,,,,,0,140,140,140,,,,,,,,,,,,,,,,,,,-14.560546875,-13.154296875,1,0,0,1.03593397141,,,,,2015_Oct_20_1558,K,facesParametric,10,59.6918846838,
./stim/MorphM10_10_orig.jpg,141,,,,,0,141,141,141,,,,,,,,,,,,,,,,,,,-14.560546875,-13.154296875,1,0,0,0.870074033737,,,,,2015_Oct_20_1558,K,facesParametric,10,59.6918846838,
./stim/MorphM3_01_orig.jpg,142,,,,,0,142,142,142,,,,,,,,,,,,,,,,,,,-14.560546875,-13.154296875,0,0,1,5.19457292557,,,,,2015_Oct_20_1558,K,facesParametric,10,59.6918846838,
./stim/MorphM8_04_orig.jpg,143,,,,,0,143,143,143,,,,,,,,,,,,,,,,,,,-14.58984375,-13.154296875,1,0,0,4.00427103043,,,,,2015_Oct_20_1558,K,facesParametric,10,59.6918846838,
./stim/MorphF7_08_orig.jpg,144,,,,,0,144,144,144,,,,,,,,,,,,,,,,,,,-14.58984375,-13.154296875,1,0,0,1.17065095901,,,,,2015_Oct_20_1558,K,facesParametric,10,59.6918846838,
./stim/MorphM2_09_orig.jpg,145,,,,,0,145,145,145,,,,,,,,,,,,,,,,,,,-14.677734375,-13.154296875,1,0,0,1.15556192398,,,,,2015_Oct_20_1558,K,facesParametric,10,59.6918846838,
./stim/MorphM4_06_orig.jpg,146,,,,,0,146,146,146,,,,,,,,,,,,,,,,,,,-14.677734375,-13.154296875,1,0,0,2.29448986053,,,,,2015_Oct_20_1558,K,facesParametric,10,59.6918846838,
./stim/MorphF8_02_orig.jpg,147,,,,,0,147,147,147,,,,,,,,,,,,,,,,,,,-14.677734375,-13.154296875,0,0,1,1.44043183327,,,,,2015_Oct_20_1558,K,facesParametric,10,59.6918846838,
./stim/MorphF1_02_orig.jpg,148,,,,,0,148,148,148,,,,,,,,,,,,,,,,,,,-14.677734375,-13.154296875,0,0,1,2.76382493973,,,,,2015_Oct_20_1558,K,facesParametric,10,59.6918846838,
./stim/MorphM7_04_orig.jpg,149,,,,,0,149,149,149,,,,,,,,,,,,,,,,,,,-14.677734375,-13.154296875,1,0,0,1.37101387978,,,,,2015_Oct_20_1558,K,facesParametric,10,59.6918846838,
./stim/MorphF3_04_orig.jpg,150,,,,,0,150,150,150,,,,,,,,,,,,,,,,,,,-14.677734375,-13.154296875,0,0,1,3.8033080101,,,,,2015_Oct_20_1558,K,facesParametric,10,59.6918846838,
./stim/MorphF5_02_orig.jpg,151,,,,,0,151,151,151,,,,,,,,,,,,,,,,,,,-16.611328125,-13.154296875,1,0,0,23.4288158417,,,,,2015_Oct_20_1558,K,facesParametric,10,59.6918846838,
./stim/MorphM10_03_orig.jpg,152,,,,,0,152,152,152,,,,,,,,,,,,,,,,,,,-16.611328125,-13.154296875,1,0,0,3.50137591362,,,,,2015_Oct_20_1558,K,facesParametric,10,59.6918846838,
./stim/MorphM6_00_orig.jpg,153,,,,,0,153,153,153,,,,,,,,,,,,,,,,,,,-15.99609375,-12.94921875,0,0,1,5.22607111931,,,,,2015_Oct_20_1558,K,facesParametric,10,59.6918846838,
./stim/MorphF7_04_orig.jpg,154,,,,,0,154,154,154,,,,,,,,,,,,,,,,,,,-15.99609375,-12.94921875,0,0,1,6.83729791641,,,,,2015_Oct_20_1558,K,facesParametric,10,59.6918846838,
./stim/MorphM3_10_orig.jpg,155,,,,,0,155,155,155,,,,,,,,,,,,,,,,,,,-15.99609375,-12.94921875,1,0,0,1.69117212296,,,,,2015_Oct_20_1558,K,facesParametric,10,59.6918846838,
./stim/MorphM4_08_orig.jpg,156,,,,,0,156,156,156,,,,,,,,,,,,,,,,,,,-15.966796875,-12.94921875,1,0,0,3.03207087517,,,,,2015_Oct_20_1558,K,facesParametric,10,59.6918846838,
./stim/MorphF5_03_orig.jpg,157,,,,,0,157,157,157,,,,,,,,,,,,,,,,,,,-15.966796875,-12.94921875,1,0,0,2.76398706436,,,,,2015_Oct_20_1558,K,facesParametric,10,59.6918846838,
./stim/MorphF8_00_orig.jpg,158,,,,,0,158,158,158,,,,,,,,,,,,,,,,,,,-15.966796875,-12.94921875,0,0,1,1.94286203384,,,,,2015_Oct_20_1558,K,facesParametric,10,59.6918846838,
./stim/MorphM9_04_orig.jpg,159,,,,,0,159,159,159,,,,,,,,,,,,,,,,,,,-15.9375,-12.978515625,0,0,1,1.65803909302,,,,,2015_Oct_20_1558,K,facesParametric,10,59.6918846838,
./stim/MorphM5_02_orig.jpg,160,,,,,0,160,160,160,,,,,,,,,,,,,,,,,,,-15.849609375,-12.978515625,0,0,1,6.36737585068,,,,,2015_Oct_20_1558,K,facesParametric,10,59.6918846838,
./stim/MorphF9_03_orig.jpg,161,,,,,0,161,161,161,,,,,,,,,,,,,,,,,,,-15.791015625,-12.978515625,0,0,1,3.38431596756,,,,,2015_Oct_20_1558,K,facesParametric,10,59.6918846838,
./stim/MorphF5_00_orig.jpg,162,,,,,0,162,162,162,,,,,,,,,,,,,,,,,,,-15.791015625,-12.978515625,1,0,0,1.92467093468,,,,,2015_Oct_20_1558,K,facesParametric,10,59.6918846838,
./stim/MorphM4_09_orig.jpg,163,,,,,0,163,163,163,,,,,,,,,,,,,,,,,,,-15.849609375,-12.94921875,1,0,0,1.05373382568,,,,,2015_Oct_20_1558,K,facesParametric,10,59.6918846838,
./stim/MorphF3_01_orig.jpg,164,,,,,0,164,164,164,,,,,,,,,,,,,,,,,,,-15.849609375,-12.94921875,0,0,1,2.54664301872,,,,,2015_Oct_20_1558,K,facesParametric,10,59.6918846838,
./stim/MorphF6_03_orig.jpg,165,,,,,0,165,165,165,,,,,,,,,,,,,,,,,,,-15.849609375,-12.94921875,0,0,1,1.75765585899,,,,,2015_Oct_20_1558,K,facesParametric,10,59.6918846838,
./stim/MorphF5_04_orig.jpg,166,,,,,0,166,166,166,,,,,,,,,,,,,,,,,,,-15.87890625,-12.94921875,1,0,0,1.45799303055,,,,,2015_Oct_20_1558,K,facesParametric,10,59.6918846838,
./stim/MorphM6_03_orig.jpg,167,,,,,0,167,167,167,,,,,,,,,,,,,,,,,,,-15.87890625,-12.94921875,0,0,1,1.79162883759,,,,,2015_Oct_20_1558,K,facesParametric,10,59.6918846838,
./stim/MorphF4_05_orig.jpg,168,,,,,0,168,168,168,,,,,,,,,,,,,,,,,,,-15.87890625,-12.94921875,0,0,1,2.78168797493,,,,,2015_Oct_20_1558,K,facesParametric,10,59.6918846838,
./stim/MorphM10_05_orig.jpg,169,,,,,0,169,169,169,,,,,,,,,,,,,,,,,,,-15.87890625,-12.94921875,1,0,0,1.37207698822,,,,,2015_Oct_20_1558,K,facesParametric,10,59.6918846838,
./stim/MorphF2_01_orig.jpg,170,,,,,0,170,170,170,,,,,,,,,,,,,,,,,,,-15.87890625,-12.978515625,0,0,1,2.64685606956,,,,,2015_Oct_20_1558,K,facesParametric,10,59.6918846838,
./stim/MorphM9_07_orig.jpg,171,,,,,0,171,171,171,,,,,,,,,,,,,,,,,,,-15.87890625,-12.978515625,0,0,1,3.87011408806,,,,,2015_Oct_20_1558,K,facesParametric,10,59.6918846838,
./stim/MorphM2_06_orig.jpg,172,,,,,0,172,172,172,,,,,,,,,,,,,,,,,,,-15.87890625,-12.978515625,0,0,1,2.86454105377,,,,,2015_Oct_20_1558,K,facesParametric,10,59.6918846838,
./stim/MorphF4_00_orig.jpg,173,,,,,0,173,173,173,,,,,,,,,,,,,,,,,,,-15.87890625,-12.978515625,0,0,1,2.74712705612,,,,,2015_Oct_20_1558,K,facesParametric,10,59.6918846838,
./stim/MorphM5_10_orig.jpg,174,,,,,0,174,174,174,,,,,,,,,,,,,,,,,,,-15.87890625,-12.978515625,1,0,0,3.14792299271,,,,,2015_Oct_20_1558,K,facesParametric,10,59.6918846838,
./stim/MorphM3_07_orig.jpg,175,,,,,0,175,175,175,,,,,,,,,,,,,,,,,,,-15.41015625,-13.0078125,0,0,1,5.76359009743,,,,,2015_Oct_20_1558,K,facesParametric,10,59.6918846838,
./stim/MorphM9_01_orig.jpg,176,,,,,0,176,176,176,,,,,,,,,,,,,,,,,,,-15.322265625,-13.0078125,0,0,1,2.96422410011,,,,,2015_Oct_20_1558,K,facesParametric,10,59.6918846838,
./stim/MorphF2_02_orig.jpg,177,,,,,0,177,177,177,,,,,,,,,,,,,,,,,,,-15.322265625,-13.0078125,0,0,1,2.62963604927,,,,,2015_Oct_20_1558,K,facesParametric,10,59.6918846838,
./stim/MorphF5_10_orig.jpg,178,,,,,0,178,178,178,,,,,,,,,,,,,,,,,,,-15.322265625,-13.0078125,1,0,0,1.72519016266,,,,,2015_Oct_20_1558,K,facesParametric,10,59.6918846838,
./stim/MorphF10_03_orig.jpg,179,,,,,0,179,179,179,,,,,,,,,,,,,,,,,,,-15.29296875,-13.037109375,0,0,1,2.49379205704,,,,,2015_Oct_20_1558,K,facesParametric,10,59.6918846838,
./stim/MorphM4_00_orig.jpg,180,,,,,0,180,180,180,,,,,,,,,,,,,,,,,,,-15.29296875,-13.037109375,0,0,1,1.99305701256,,,,,2015_Oct_20_1558,K,facesParametric,10,59.6918846838,
./stim/MorphM8_10_orig.jpg,181,,,,,0,181,181,181,,,,,,,,,,,,,,,,,,,-15.29296875,-13.037109375,1,0,0,2.9481921196,,,,,2015_Oct_20_1558,K,facesParametric,10,59.6918846838,
./stim/MorphF1_05_orig.jpg,182,,,,,0,182,182,182,,,,,,,,,,,,,,,,,,,-15.29296875,-13.037109375,0,0,1,2.24429702759,,,,,2015_Oct_20_1558,K,facesParametric,10,59.6918846838,
./stim/MorphM2_07_orig.jpg,183,,,,,0,183,183,183,,,,,,,,,,,,,,,,,,,-15.29296875,-13.037109375,0,0,1,3.92084813118,,,,,2015_Oct_20_1558,K,facesParametric,10,59.6918846838,
./stim/MorphM3_06_orig.jpg,184,,,,,0,184,184,184,,,,,,,,,,,,,,,,,,,-15.263671875,-13.06640625,1,0,0,1.89268016815,,,,,2015_Oct_20_1558,K,facesParametric,10,59.6918846838,
./stim/MorphM10_09_orig.jpg,185,,,,,0,185,185,185,,,,,,,,,,,,,,,,,,,-15.263671875,-13.06640625,1,0,0,1.17175602913,,,,,2015_Oct_20_1558,K,facesParametric,10,59.6918846838,
./stim/MorphF10_09_orig.jpg,186,,,,,0,186,186,186,,,,,,,,,,,,,,,,,,,-15.263671875,-13.06640625,1,0,0,1.05267810822,,,,,2015_Oct_20_1558,K,facesParametric,10,59.6918846838,
./stim/MorphF7_05_orig.jpg,187,,,,,0,187,187,187,,,,,,,,,,,,,,,,,,,-15.263671875,-13.06640625,0,0,1,1.35566496849,,,,,2015_Oct_20_1558,K,facesParametric,10,59.6918846838,
./stim/MorphF4_09_orig.jpg,188,,,,,0,188,188,188,,,,,,,,,,,,,,,,,,,-15.263671875,-13.06640625,1,0,0,1.30568909645,,,,,2015_Oct_20_1558,K,facesParametric,10,59.6918846838,
./stim/MorphM3_08_orig.jpg,189,,,,,0,189,189,189,,,,,,,,,,,,,,,,,,,-23.4375,-11.89453125,1,0,0,3.68444895744,,,,,2015_Oct_20_1558,K,facesParametric,10,59.6918846838,
./stim/MorphM4_10_orig.jpg,190,,,,,0,190,190,190,,,,,,,,,,,,,,,,,,,-23.408203125,-11.865234375,1,0,0,1.05307388306,,,,,2015_Oct_20_1558,K,facesParametric,10,59.6918846838,
./stim/MorphF5_06_orig.jpg,191,,,,,0,191,191,191,,,,,,,,,,,,,,,,,,,-23.408203125,-11.89453125,1,0,0,2.09053301811,,,,,2015_Oct_20_1558,K,facesParametric,10,59.6918846838,
./stim/MorphM1_06_orig.jpg,192,,,,,0,192,192,192,,,,,,,,,,,,,,,,,,,-23.408203125,-11.89453125,1,0,0,2.12735700607,,,,,2015_Oct_20_1558,K,facesParametric,10,59.6918846838,
./stim/MorphF4_02_orig.jpg,193,,,,,0,193,193,193,,,,,,,,,,,,,,,,,,,-23.408203125,-11.89453125,0,0,1,1.28922510147,,,,,2015_Oct_20_1558,K,facesParametric,10,59.6918846838,
./stim/MorphF8_04_orig.jpg,194,,,,,0,194,194,194,,,,,,,,,,,,,,,,,,,-23.408203125,-11.89453125,0,0,1,1.02173686028,,,,,2015_Oct_20_1558,K,facesParametric,10,59.6918846838,
./stim/MorphM9_09_orig.jpg,195,,,,,0,195,195,195,,,,,,,,,,,,,,,,,,,-23.408203125,-11.89453125,1,0,0,1.40501117706,,,,,2015_Oct_20_1558,K,facesParametric,10,59.6918846838,
./stim/MorphM1_08_orig.jpg,196,,,,,0,196,196,196,,,,,,,,,,,,,,,,,,,-23.4375,-11.865234375,1,0,0,5.35929393768,,,,,2015_Oct_20_1558,K,facesParametric,10,59.6918846838,
./stim/MorphF3_07_orig.jpg,197,,,,,0,197,197,197,,,,,,,,,,,,,,,,,,,-23.4375,-11.865234375,1,0,0,3.8529689312,,,,,2015_Oct_20_1558,K,facesParametric,10,59.6918846838,
./stim/MorphM3_04_orig.jpg,198,,,,,0,198,198,198,,,,,,,,,,,,,,,,,,,-23.349609375,-11.865234375,1,0,0,4.70816898346,,,,,2015_Oct_20_1558,K,facesParametric,10,59.6918846838,
./stim/MorphF10_10_orig.jpg,199,,,,,0,199,199,199,,,,,,,,,,,,,,,,,,,-23.3203125,-11.865234375,1,0,0,1.13851380348,,,,,2015_Oct_20_1558,K,facesParametric,10,59.6918846838,
./stim/MorphF6_09_orig.jpg,200,,,,,0,200,200,200,,,,,,,,,,,,,,,,,,,-23.291015625,-11.865234375,0,0,1,1.96003890038,,,,,2015_Oct_20_1558,K,facesParametric,10,59.6918846838,
./stim/MorphM6_04_orig.jpg,201,,,,,0,201,201,201,,,,,,,,,,,,,,,,,,,-22.265625,-5.244140625,0,0,1,5.41098499298,,,,,2015_Oct_20_1558,K,facesParametric,10,59.6918846838,
./stim/MorphM7_08_orig.jpg,202,,,,,0,202,202,202,,,,,,,,,,,,,,,,,,,-22.265625,-5.244140625,1,0,0,0.953802108765,,,,,2015_Oct_20_1558,K,facesParametric,10,59.6918846838,
./stim/MorphM1_01_orig.jpg,203,,,,,0,203,203,203,,,,,,,,,,,,,,,,,,,-22.265625,-5.244140625,0,0,1,2.71317887306,,,,,2015_Oct_20_1558,K,facesParametric,10,59.6918846838,
./stim/MorphM9_00_orig.jpg,204,,,,,0,204,204,204,,,,,,,,,,,,,,,,,,,-22.265625,-5.244140625,0,0,1,2.14112997055,,,,,2015_Oct_20_1558,K,facesParametric,10,59.6918846838,
./stim/MorphF5_01_orig.jpg,205,,,,,0,205,205,205,,,,,,,,,,,,,,,,,,,-22.265625,-5.244140625,1,0,0,1.84053397179,,,,,2015_Oct_20_1558,K,facesParametric,10,59.6918846838,
./stim/MorphF7_07_orig.jpg,206,,,,,0,206,206,206,,,,,,,,,,,,,,,,,,,-22.265625,-5.244140625,1,0,0,4.85811805725,,,,,2015_Oct_20_1558,K,facesParametric,10,59.6918846838,
./stim/MorphF3_09_orig.jpg,207,,,,,0,207,207,207,,,,,,,,,,,,,,,,,,,-22.265625,-5.244140625,1,0,0,1.28700590134,,,,,2015_Oct_20_1558,K,facesParametric,10,59.6918846838,
./stim/MorphF9_06_orig.jpg,208,,,,,0,208,208,208,,,,,,,,,,,,,,,,,,,-22.294921875,-5.244140625,0,0,1,8.41193294525,,,,,2015_Oct_20_1558,K,facesParametric,10,59.6918846838,
./stim/MorphF4_07_orig.jpg,209,,,,,0,209,209,209,,,,,,,,,,,,,,,,,,,-22.294921875,-5.244140625,1,0,0,2.76224398613,,,,,2015_Oct_20_1558,K,facesParametric,10,59.6918846838,
./stim/MorphM4_07_orig.jpg,210,,,,,0,210,210,210,,,,,,,,,,,,,,,,,,,-22.294921875,-5.244140625,1,0,0,2.4290189743,,,,,2015_Oct_20_1558,K,facesParametric,10,59.6918846838,
./stim/MorphM8_03_orig.jpg,211,,,,,0,211,211,211,,,,,,,,,,,,,,,,,,,-22.294921875,-5.244140625,0,0,1,5.51084899902,,,,,2015_Oct_20_1558,K,facesParametric,10,59.6918846838,
./stim/MorphM2_05_orig.jpg,212,,,,,0,212,212,212,,,,,,,,,,,,,,,,,,,-22.294921875,-5.244140625,0,0,1,1.72486281395,,,,,2015_Oct_20_1558,K,facesParametric,10,59.6918846838,
./stim/MorphF9_07_orig.jpg,213,,,,,0,213,213,213,,,,,,,,,,,,,,,,,,,-22.294921875,-5.244140625,0,0,1,5.86299109459,,,,,2015_Oct_20_1558,K,facesParametric,10,59.6918846838,
./stim/MorphM9_08_orig.jpg,214,,,,,0,214,214,214,,,,,,,,,,,,,,,,,,,-22.294921875,-5.244140625,0,0,1,2.21120381355,,,,,2015_Oct_20_1558,K,facesParametric,10,59.6918846838,
./stim/MorphF9_02_orig.jpg,215,,,,,0,215,215,215,,,,,,,,,,,,,,,,,,,-22.294921875,-5.244140625,0,0,1,2.66393995285,,,,,2015_Oct_20_1558,K,facesParametric,10,59.6918846838,
./stim/MorphF4_08_orig.jpg,216,,,,,0,216,216,216,,,,,,,,,,,,,,,,,,,-22.294921875,-5.244140625,0,0,1,2.00930309296,,,,,2015_Oct_20_1558,K,facesParametric,10,59.6918846838,
./stim/MorphF3_08_orig.jpg,217,,,,,0,217,217,217,,,,,,,,,,,,,,,,,,,-22.294921875,-5.244140625,1,0,0,1.69144797325,,,,,2015_Oct_20_1558,K,facesParametric,10,59.6918846838,
./stim/MorphM10_07_orig.jpg,218,,,,,0,218,218,218,,,,,,,,,,,,,,,,,,,-22.265625,-5.2734375,0,0,1,2.71372318268,,,,,2015_Oct_20_1558,K,facesParametric,10,59.6918846838,
./stim/MorphF3_00_orig.jpg,219,,,,,0,219,219,219,,,,,,,,,,,,,,,,,,,-22.32421875,-5.302734375,0,0,1,5.56289505959,,,,,2015_Oct_20_1558,K,facesParametric,10,59.6918846838,
,,,,,,,,,,,,,,,,,,,,,,,,,,,,,,,,,,return,4.3243792057,,,2015_Oct_20_1558,K,facesParametric,10,59.6918846838,
./stim/MorphM3_01_orig.jpg,0,,,,,,,,,0,0,0,0,,,,,,,,,,,,,,,-23.4375,-7.5,0,0,1,3.94329094887,,,,,2015_Oct_20_1558,K,facesParametric,10,59.6918846838,
./stim/MorphM6_06_orig.jpg,1,,,,,,,,,0,1,1,1,,,,,,,,,,,,,,,-23.4375,-7.5,0,0,1,3.49828100204,,,,,2015_Oct_20_1558,K,facesParametric,10,59.6918846838,
./stim/MorphF9_08_orig.jpg,2,,,,,,,,,0,2,2,2,,,,,,,,,,,,,,,-23.408203125,-7.529296875,1,0,0,6.98740506172,,,,,2015_Oct_20_1558,K,facesParametric,10,59.6918846838,
./stim/MorphF1_00_orig.jpg,3,,,,,,,,,0,3,3,3,,,,,,,,,,,,,,,-23.37890625,-7.529296875,0,0,1,1.59018397331,,,,,2015_Oct_20_1558,K,facesParametric,10,59.6918846838,
./stim/MorphM6_07_orig.jpg,4,,,,,,,,,0,4,4,4,,,,,,,,,,,,,,,-23.37890625,-7.529296875,0,0,1,8.26040291786,,,,,2015_Oct_20_1558,K,facesParametric,10,59.6918846838,
./stim/MorphF8_01_orig.jpg,5,,,,,,,,,0,5,5,5,,,,,,,,,,,,,,,-23.37890625,-7.529296875,0,0,1,1.17058992386,,,,,2015_Oct_20_1558,K,facesParametric,10,59.6918846838,
./stim/MorphF3_08_orig.jpg,6,,,,,,,,,0,6,6,6,,,,,,,,,,,,,,,-23.349609375,-7.5,1,0,0,1.74148416519,,,,,2015_Oct_20_1558,K,facesParametric,10,59.6918846838,
./stim/MorphF5_05_orig.jpg,7,,,,,,,,,0,7,7,7,,,,,,,,,,,,,,,-23.349609375,-7.5,1,0,0,2.59685778618,,,,,2015_Oct_20_1558,K,facesParametric,10,59.6918846838,
./stim/MorphF9_03_orig.jpg,8,,,,,,,,,0,8,8,8,,,,,,,,,,,,,,,-23.349609375,-7.5,0,0,1,2.22775793076,,,,,2015_Oct_20_1558,K,facesParametric,10,59.6918846838,
./stim/MorphM3_04_orig.jpg,9,,,,,,,,,0,9,9,9,,,,,,,,,,,,,,,-23.349609375,-7.5,1,0,0,3.26680994034,,,,,2015_Oct_20_1558,K,facesParametric,10,59.6918846838,
./stim/MorphF9_06_orig.jpg,10,,,,,,,,,0,10,10,10,,,,,,,,,,,,,,,-23.37890625,-7.529296875,1,0,0,4.10469198227,,,,,2015_Oct_20_1558,K,facesParametric,10,59.6918846838,
./stim/MorphM9_06_orig.jpg,11,,,,,,,,,0,11,11,11,,,,,,,,,,,,,,,-23.37890625,-7.529296875,1,0,0,2.15971493721,,,,,2015_Oct_20_1558,K,facesParametric,10,59.6918846838,
./stim/MorphM1_00_orig.jpg,12,,,,,,,,,0,12,12,12,,,,,,,,,,,,,,,-23.37890625,-7.529296875,1,0,0,3.61886906624,,,,,2015_Oct_20_1558,K,facesParametric,10,59.6918846838,
./stim/MorphM6_10_orig.jpg,13,,,,,,,,,0,13,13,13,,,,,,,,,,,,,,,-23.37890625,-7.529296875,1,0,0,2.74797177315,,,,,2015_Oct_20_1558,K,facesParametric,10,59.6918846838,
./stim/MorphM1_05_orig.jpg,14,,,,,,,,,0,14,14,14,,,,,,,,,,,,,,,-23.37890625,-7.529296875,1,0,0,2.78048300743,,,,,2015_Oct_20_1558,K,facesParametric,10,59.6918846838,
./stim/MorphF6_09_orig.jpg,15,,,,,,,,,0,15,15,15,,,,,,,,,,,,,,,-23.37890625,-7.529296875,1,0,0,1.54041004181,,,,,2015_Oct_20_1558,K,facesParametric,10,59.6918846838,
./stim/MorphM8_02_orig.jpg,16,,,,,,,,,0,16,16,16,,,,,,,,,,,,,,,-23.37890625,-7.529296875,1,0,0,3.63590312004,,,,,2015_Oct_20_1558,K,facesParametric,10,59.6918846838,
./stim/MorphM2_07_orig.jpg,17,,,,,,,,,0,17,17,17,,,,,,,,,,,,,,,-23.37890625,-7.529296875,0,0,1,3.81972193718,,,,,2015_Oct_20_1558,K,facesParametric,10,59.6918846838,
./stim/MorphM8_07_orig.jpg,18,,,,,,,,,0,18,18,18,,,,,,,,,,,,,,,-23.37890625,-7.529296875,1,0,0,5.61308002472,,,,,2015_Oct_20_1558,K,facesParametric,10,59.6918846838,
./stim/MorphF7_03_orig.jpg,19,,,,,,,,,0,19,19,19,,,,,,,,,,,,,,,-23.37890625,-7.529296875,0,0,1,2.53024697304,,,,,2015_Oct_20_1558,K,facesParametric,10,59.6918846838,
./stim/MorphF1_07_orig.jpg,20,,,,,,,,,0,20,20,20,,,,,,,,,,,,,,,-23.37890625,-7.529296875,0,0,1,2.41104507446,,,,,2015_Oct_20_1558,K,facesParametric,10,59.6918846838,
./stim/MorphF4_10_orig.jpg,21,,,,,,,,,0,21,21,21,,,,,,,,,,,,,,,-23.37890625,-7.529296875,1,0,0,1.18864917755,,,,,2015_Oct_20_1558,K,facesParametric,10,59.6918846838,
./stim/MorphM1_10_orig.jpg,22,,,,,,,,,0,22,22,22,,,,,,,,,,,,,,,-23.37890625,-7.529296875,1,0,0,1.82617497444,,,,,2015_Oct_20_1558,K,facesParametric,10,59.6918846838,
./stim/MorphM4_10_orig.jpg,23,,,,,,,,,0,23,23,23,,,,,,,,,,,,,,,-23.37890625,-7.529296875,1,0,0,1.8401119709,,,,,2015_Oct_20_1558,K,facesParametric,10,59.6918846838,
./stim/MorphM1_09_orig.jpg,24,,,,,,,,,0,24,24,24,,,,,,,,,,,,,,,-23.37890625,-7.529296875,1,0,0,1.28800296783,,,,,2015_Oct_20_1558,K,facesParametric,10,59.6918846838,
./stim/MorphM2_03_orig.jpg,25,,,,,,,,,0,25,25,25,,,,,,,,,,,,,,,-23.37890625,-7.529296875,0,0,1,1.57420301437,,,,,2015_Oct_20_1558,K,facesParametric,10,59.6918846838,
./stim/MorphF4_02_orig.jpg,26,,,,,,,,,0,26,26,26,,,,,,,,,,,,,,,-23.37890625,-7.529296875,0,0,1,0.987461090088,,,,,2015_Oct_20_1558,K,facesParametric,10,59.6918846838,
./stim/MorphF10_10_orig.jpg,27,,,,,,,,,0,27,27,27,,,,,,,,,,,,,,,-23.408203125,-7.5,1,0,0,0.937636137009,,,,,2015_Oct_20_1558,K,facesParametric,10,59.6918846838,
./stim/MorphF3_02_orig.jpg,28,,,,,,,,,0,28,28,28,,,,,,,,,,,,,,,-23.408203125,-7.5,0,0,1,1.35626411438,,,,,2015_Oct_20_1558,K,facesParametric,10,59.6918846838,
./stim/MorphM2_02_orig.jpg,29,,,,,,,,,0,29,29,29,,,,,,,,,,,,,,,-23.408203125,-7.5,0,0,1,1.45719003677,,,,,2015_Oct_20_1558,K,facesParametric,10,59.6918846838,
./stim/MorphF7_10_orig.jpg,30,,,,,,,,,0,30,30,30,,,,,,,,,,,,,,,-23.408203125,-7.5,1,0,0,1.30351185799,,,,,2015_Oct_20_1558,K,facesParametric,10,59.6918846838,
./stim/MorphM5_04_orig.jpg,31,,,,,,,,,0,31,31,31,,,,,,,,,,,,,,,-23.408203125,-7.5,0,0,1,4.00363779068,,,,,2015_Oct_20_1558,K,facesParametric,10,59.6918846838,
./stim/MorphF10_09_orig.jpg,32,,,,,,,,,0,32,32,32,,,,,,,,,,,,,,,-23.408203125,-7.5,1,0,0,1.08788013458,,,,,2015_Oct_20_1558,K,facesParametric,10,59.6918846838,
./stim/MorphM1_08_orig.jpg,33,,,,,,,,,0,33,33,33,,,,,,,,,,,,,,,-23.408203125,-7.5,1,0,0,2.68061709404,,,,,2015_Oct_20_1558,K,facesParametric,10,59.6918846838,
./stim/MorphM8_09_orig.jpg,34,,,,,,,,,0,34,34,34,,,,,,,,,,,,,,,-23.408203125,-7.5,1,0,0,1.72281718254,,,,,2015_Oct_20_1558,K,facesParametric,10,59.6918846838,
./stim/MorphM10_00_orig.jpg,35,,,,,,,,,0,35,35,35,,,,,,,,,,,,,,,-23.408203125,-7.5,0,0,1,2.71390295029,,,,,2015_Oct_20_1558,K,facesParametric,10,59.6918846838,
./stim/MorphM3_06_orig.jpg,36,,,,,,,,,0,36,36,36,,,,,,,,,,,,,,,-23.408203125,-7.5,1,0,0,1.40680098534,,,,,2015_Oct_20_1558,K,facesParametric,10,59.6918846838,
./stim/MorphM7_08_orig.jpg,37,,,,,,,,,0,37,37,37,,,,,,,,,,,,,,,-23.408203125,-7.5,1,0,0,1.33930897713,,,,,2015_Oct_20_1558,K,facesParametric,10,59.6918846838,
./stim/MorphM5_09_orig.jpg,38,,,,,,,,,0,38,38,38,,,,,,,,,,,,,,,-23.408203125,-7.5,1,0,0,1.75904798508,,,,,2015_Oct_20_1558,K,facesParametric,10,59.6918846838,
./stim/MorphF4_08_orig.jpg,39,,,,,,,,,0,39,39,39,,,,,,,,,,,,,,,-23.408203125,-7.5,1,0,0,1.12131404877,,,,,2015_Oct_20_1558,K,facesParametric,10,59.6918846838,
./stim/MorphF3_03_orig.jpg,40,,,,,,,,,0,40,40,40,,,,,,,,,,,,,,,-23.408203125,-7.5,0,0,1,2.21115684509,,,,,2015_Oct_20_1558,K,facesParametric,10,59.6918846838,
./stim/MorphF7_00_orig.jpg,41,,,,,,,,,0,41,41,41,,,,,,,,,,,,,,,-23.408203125,-7.5,0,0,1,2.56327080727,,,,,2015_Oct_20_1558,K,facesParametric,10,59.6918846838,
./stim/MorphM3_10_orig.jpg,42,,,,,,,,,0,42,42,42,,,,,,,,,,,,,,,-23.408203125,-7.5,1,0,0,1.17189097404,,,,,2015_Oct_20_1558,K,facesParametric,10,59.6918846838,
./stim/MorphF9_04_orig.jpg,43,,,,,,,,,0,43,43,43,,,,,,,,,,,,,,,-23.408203125,-7.5,0,0,1,1.52367591858,,,,,2015_Oct_20_1558,K,facesParametric,10,59.6918846838,
./stim/MorphF6_05_orig.jpg,44,,,,,,,,,0,44,44,44,,,,,,,,,,,,,,,-23.408203125,-7.5,0,0,1,4.82526803017,,,,,2015_Oct_20_1558,K,facesParametric,10,59.6918846838,
./stim/MorphM5_10_orig.jpg,45,,,,,,,,,0,45,45,45,,,,,,,,,,,,,,,-23.408203125,-7.5,1,0,0,1.17208909988,,,,,2015_Oct_20_1558,K,facesParametric,10,59.6918846838,
./stim/MorphF5_09_orig.jpg,46,,,,,,,,,0,46,46,46,,,,,,,,,,,,,,,-23.408203125,-7.5,1,0,0,3.14870500565,,,,,2015_Oct_20_1558,K,facesParametric,10,59.6918846838,
./stim/MorphF6_06_orig.jpg,47,,,,,,,,,0,47,47,47,,,,,,,,,,,,,,,-23.37890625,-7.529296875,1,0,0,2.68034696579,,,,,2015_Oct_20_1558,K,facesParametric,10,59.6918846838,
./stim/MorphM9_02_orig.jpg,48,,,,,,,,,0,48,48,48,,,,,,,,,,,,,,,-23.37890625,-7.529296875,0,0,1,1.85838198662,,,,,2015_Oct_20_1558,K,facesParametric,10,59.6918846838,
./stim/MorphF3_01_orig.jpg,49,,,,,,,,,0,49,49,49,,,,,,,,,,,,,,,-23.408203125,-7.55859375,0,0,1,2.42639422417,,,,,2015_Oct_20_1558,K,facesParametric,10,59.6918846838,
./stim/MorphF1_08_orig.jpg,50,,,,,,,,,0,50,50,50,,,,,,,,,,,,,,,-23.408203125,-7.55859375,0,0,1,7.00420808792,,,,,2015_Oct_20_1558,K,facesParametric,10,59.6918846838,
./stim/MorphM4_03_orig.jpg,51,,,,,,,,,0,51,51,51,,,,,,,,,,,,,,,-23.408203125,-7.55859375,0,0,1,1.79019808769,,,,,2015_Oct_20_1558,K,facesParametric,10,59.6918846838,
./stim/MorphF3_05_orig.jpg,52,,,,,,,,,0,52,52,52,,,,,,,,,,,,,,,-23.408203125,-7.55859375,0,0,1,15.2164340019,,,,,2015_Oct_20_1558,K,facesParametric,10,59.6918846838,
./stim/MorphM4_08_orig.jpg,53,,,,,,,,,0,53,53,53,,,,,,,,,,,,,,,-23.408203125,-7.55859375,1,0,0,1.25602698326,,,,,2015_Oct_20_1558,K,facesParametric,10,59.6918846838,
./stim/MorphM10_06_orig.jpg,54,,,,,,,,,0,54,54,54,,,,,,,,,,,,,,,-23.408203125,-7.55859375,1,0,0,1.13697290421,,,,,2015_Oct_20_1558,K,facesParametric,10,59.6918846838,
./stim/MorphF10_03_orig.jpg,55,,,,,,,,,0,55,55,55,,,,,,,,,,,,,,,-23.408203125,-7.55859375,1,0,0,2.99768280983,,,,,2015_Oct_20_1558,K,facesParametric,10,59.6918846838,
./stim/MorphM6_09_orig.jpg,56,,,,,,,,,0,56,56,56,,,,,,,,,,,,,,,-23.408203125,-7.55859375,1,0,0,2.77969908714,,,,,2015_Oct_20_1558,K,facesParametric,10,59.6918846838,
./stim/MorphM4_04_orig.jpg,57,,,,,,,,,0,57,57,57,,,,,,,,,,,,,,,-23.408203125,-7.55859375,0,0,1,6.83663201332,,,,,2015_Oct_20_1558,K,facesParametric,10,59.6918846838,
./stim/MorphF9_01_orig.jpg,58,,,,,,,,,0,58,58,58,,,,,,,,,,,,,,,-23.408203125,-7.55859375,0,0,1,1.52331185341,,,,,2015_Oct_20_1558,K,facesParametric,10,59.6918846838,
./stim/MorphM7_07_orig.jpg,59,,,,,,,,,0,59,59,59,,,,,,,,,,,,,,,-23.408203125,-7.55859375,1,0,0,1.18816590309,,,,,2015_Oct_20_1558,K,facesParametric,10,59.6918846838,
./stim/MorphF9_07_orig.jpg,60,,,,,,,,,0,60,60,60,,,,,,,,,,,,,,,-23.408203125,-7.55859375,0,0,1,2.36197400093,,,,,2015_Oct_20_1558,K,facesParametric,10,59.6918846838,
./stim/MorphF3_06_orig.jpg,61,,,,,,,,,0,61,61,61,,,,,,,,,,,,,,,-23.408203125,-7.55859375,0,0,1,1.13893985748,,,,,2015_Oct_20_1558,K,facesParametric,10,59.6918846838,
./stim/MorphF7_08_orig.jpg,62,,,,,,,,,0,62,62,62,,,,,,,,,,,,,,,-23.408203125,-7.55859375,0,0,1,3.48427700996,,,,,2015_Oct_20_1558,K,facesParametric,10,59.6918846838,
./stim/MorphF9_00_orig.jpg,63,,,,,,,,,0,63,63,63,,,,,,,,,,,,,,,-23.408203125,-7.55859375,0,0,1,1.47274017334,,,,,2015_Oct_20_1558,K,facesParametric,10,59.6918846838,
./stim/MorphM10_08_orig.jpg,64,,,,,,,,,0,64,64,64,,,,,,,,,,,,,,,-23.408203125,-7.55859375,1,0,0,4.89277100563,,,,,2015_Oct_20_1558,K,facesParametric,10,59.6918846838,
./stim/MorphF2_07_orig.jpg,65,,,,,,,,,0,65,65,65,,,,,,,,,,,,,,,-23.408203125,-7.55859375,1,0,0,4.21986103058,,,,,2015_Oct_20_1558,K,facesParametric,10,59.6918846838,
./stim/MorphM9_01_orig.jpg,66,,,,,,,,,0,66,66,66,,,,,,,,,,,,,,,-23.408203125,-7.55859375,0,0,1,1.64001917839,,,,,2015_Oct_20_1558,K,facesParametric,10,59.6918846838,
./stim/MorphM2_01_orig.jpg,67,,,,,,,,,0,67,67,67,,,,,,,,,,,,,,,-23.408203125,-7.55859375,0,0,1,1.39101099968,,,,,2015_Oct_20_1558,K,facesParametric,10,59.6918846838,
./stim/MorphF4_00_orig.jpg,68,,,,,,,,,0,68,68,68,,,,,,,,,,,,,,,-23.408203125,-7.55859375,0,0,1,1.37203001976,,,,,2015_Oct_20_1558,K,facesParametric,10,59.6918846838,
./stim/MorphF5_03_orig.jpg,69,,,,,,,,,0,69,69,69,,,,,,,,,,,,,,,-23.408203125,-7.55859375,1,0,0,2.37787103653,,,,,2015_Oct_20_1558,K,facesParametric,10,59.6918846838,
./stim/MorphF8_00_orig.jpg,70,,,,,,,,,0,70,70,70,,,,,,,,,,,,,,,-23.408203125,-7.55859375,0,0,1,1.84062981606,,,,,2015_Oct_20_1558,K,facesParametric,10,59.6918846838,
./stim/MorphM3_05_orig.jpg,71,,,,,,,,,0,71,71,71,,,,,,,,,,,,,,,-23.408203125,-7.55859375,1,0,0,1.30618596077,,,,,2015_Oct_20_1558,K,facesParametric,10,59.6918846838,
./stim/MorphM7_01_orig.jpg,72,,,,,,,,,0,72,72,72,,,,,,,,,,,,,,,-23.408203125,-7.55859375,1,0,0,3.98741388321,,,,,2015_Oct_20_1558,K,facesParametric,10,59.6918846838,
./stim/MorphM5_05_orig.jpg,73,,,,,,,,,0,73,73,73,,,,,,,,,,,,,,,-23.408203125,-7.55859375,1,0,0,1.62494897842,,,,,2015_Oct_20_1558,K,facesParametric,10,59.6918846838,
./stim/MorphF2_04_orig.jpg,74,,,,,,,,,0,74,74,74,,,,,,,,,,,,,,,-23.408203125,-7.55859375,0,0,1,7.28898096085,,,,,2015_Oct_20_1558,K,facesParametric,10,59.6918846838,
./stim/MorphF8_09_orig.jpg,75,,,,,,,,,0,75,75,75,,,,,,,,,,,,,,,-23.408203125,-7.55859375,1,0,0,2.76357102394,,,,,2015_Oct_20_1558,K,facesParametric,10,59.6918846838,
./stim/MorphF6_07_orig.jpg,76,,,,,,,,,0,76,76,76,,,,,,,,,,,,,,,-23.37890625,-7.529296875,0,0,1,5.44558310509,,,,,2015_Oct_20_1558,K,facesParametric,10,59.6918846838,
./stim/MorphM6_02_orig.jpg,77,,,,,,,,,0,77,77,77,,,,,,,,,,,,,,,-23.37890625,-7.529296875,0,0,1,3.76818013191,,,,,2015_Oct_20_1558,K,facesParametric,10,59.6918846838,
./stim/MorphF10_06_orig.jpg,78,,,,,,,,,0,78,78,78,,,,,,,,,,,,,,,-23.37890625,-7.529296875,1,0,0,2.79747414589,,,,,2015_Oct_20_1558,K,facesParametric,10,59.6918846838,
./stim/MorphF5_07_orig.jpg,79,,,,,,,,,0,79,79,79,,,,,,,,,,,,,,,-23.37890625,-7.529296875,1,0,0,3.2336192131,,,,,2015_Oct_20_1558,K,facesParametric,10,59.6918846838,
./stim/MorphF2_08_orig.jpg,80,,,,,,,,,0,80,80,80,,,,,,,,,,,,,,,-23.37890625,-7.529296875,0,0,1,1.48899507523,,,,,2015_Oct_20_1558,K,facesParametric,10,59.6918846838,
./stim/MorphM1_03_orig.jpg,81,,,,,,,,,0,81,81,81,,,,,,,,,,,,,,,-23.37890625,-7.529296875,1,0,0,2.49603199959,,,,,2015_Oct_20_1558,K,facesParametric,10,59.6918846838,
./stim/MorphM8_08_orig.jpg,82,,,,,,,,,0,82,82,82,,,,,,,,,,,,,,,-23.37890625,-7.529296875,1,0,0,1.00351500511,,,,,2015_Oct_20_1558,K,facesParametric,10,59.6918846838,
./stim/MorphF7_09_orig.jpg,83,,,,,,,,,0,83,83,83,,,,,,,,,,,,,,,-23.408203125,-7.470703125,0,0,1,29.0938050747,,,,,2015_Oct_20_1558,K,facesParametric,10,59.6918846838,
./stim/MorphM2_05_orig.jpg,84,,,,,,,,,0,84,84,84,,,,,,,,,,,,,,,-23.408203125,-7.470703125,0,0,1,3.23321795464,,,,,2015_Oct_20_1558,K,facesParametric,10,59.6918846838,
./stim/MorphM4_05_orig.jpg,85,,,,,,,,,0,85,85,85,,,,,,,,,,,,,,,-23.408203125,-7.470703125,0,0,1,4.69101381302,,,,,2015_Oct_20_1558,K,facesParametric,10,59.6918846838,
./stim/MorphF1_05_orig.jpg,86,,,,,,,,,0,86,86,86,,,,,,,,,,,,,,,-23.4375,-7.44140625,0,0,1,19.6393971443,,,,,2015_Oct_20_1558,K,facesParametric,10,59.6918846838,
./stim/MorphM2_04_orig.jpg,87,,,,,,,,,0,87,87,87,,,,,,,,,,,,,,,-23.4375,-7.44140625,0,0,1,3.61890983582,,,,,2015_Oct_20_1558,K,facesParametric,10,59.6918846838,
./stim/MorphM10_05_orig.jpg,88,,,,,,,,,0,88,88,88,,,,,,,,,,,,,,,-23.4375,-7.44140625,1,0,0,4.17173695564,,,,,2015_Oct_20_1558,K,facesParametric,10,59.6918846838,
./stim/MorphM9_10_orig.jpg,89,,,,,,,,,0,89,89,89,,,,,,,,,,,,,,,-23.4375,-7.44140625,1,0,0,1.52228808403,,,,,2015_Oct_20_1558,K,facesParametric,10,59.6918846838,
./stim/MorphF5_10_orig.jpg,90,,,,,,,,,0,90,90,90,,,,,,,,,,,,,,,-23.4375,-7.44140625,1,0,0,1.18859195709,,,,,2015_Oct_20_1558,K,facesParametric,10,59.6918846838,
./stim/MorphF9_02_orig.jpg,91,,,,,,,,,0,91,91,91,,,,,,,,,,,,,,,-23.4375,-7.44140625,0,0,1,5.3777050972,,,,,2015_Oct_20_1558,K,facesParametric,10,59.6918846838,
./stim/MorphM4_01_orig.jpg,92,,,,,,,,,0,92,92,92,,,,,,,,,,,,,,,-23.4375,-7.44140625,0,0,1,7.45700097084,,,,,2015_Oct_20_1558,K,facesParametric,10,59.6918846838,
./stim/MorphM10_09_orig.jpg,93,,,,,,,,,0,93,93,93,,,,,,,,,,,,,,,-20.68359375,-9.345703125,1,0,0,3.83655405045,,,,,2015_Oct_20_1558,K,facesParametric,10,59.6918846838,
./stim/MorphM7_04_orig.jpg,94,,,,,,,,,0,94,94,94,,,,,,,,,,,,,,,-22.001953125,-9.111328125,1,0,0,63.5184440613,,,,,2015_Oct_20_1558,K,facesParametric,10,59.6918846838,
./stim/MorphF10_00_orig.jpg,95,,,,,,,,,0,95,95,95,,,,,,,,,,,,,,,-21.884765625,-9.052734375,1,0,0,3.68545603752,,,,,2015_Oct_20_1558,K,facesParametric,10,59.6918846838,
./stim/MorphF3_07_orig.jpg,96,,,,,,,,,0,96,96,96,,,,,,,,,,,,,,,-21.884765625,-9.052734375,0,0,1,6.18332791328,,,,,2015_Oct_20_1558,K,facesParametric,10,59.6918846838,
./stim/MorphM5_01_orig.jpg,97,,,,,,,,,0,97,97,97,,,,,,,,,,,,,,,-21.884765625,-9.052734375,0,0,1,3.21679496765,,,,,2015_Oct_20_1558,K,facesParametric,10,59.6918846838,
./stim/MorphM9_08_orig.jpg,98,,,,,,,,,0,98,98,98,,,,,,,,,,,,,,,-21.708984375,-9.140625,1,0,0,15.7026581764,,,,,2015_Oct_20_1558,K,facesParametric,10,59.6918846838,
./stim/MorphM2_10_orig.jpg,99,,,,,,,,,0,99,99,99,,,,,,,,,,,,,,,-21.708984375,-9.140625,1,0,0,1.88952589035,,,,,2015_Oct_20_1558,K,facesParametric,10,59.6918846838,
./stim/MorphM8_05_orig.jpg,100,,,,,,,,,0,100,100,100,,,,,,,,,,,,,,,-21.708984375,-9.140625,0,0,1,16.1224770546,,,,,2015_Oct_20_1558,K,facesParametric,10,59.6918846838,
./stim/MorphM1_06_orig.jpg,101,,,,,,,,,0,101,101,101,,,,,,,,,,,,,,,-21.708984375,-9.140625,0,0,1,2.73001599312,,,,,2015_Oct_20_1558,K,facesParametric,10,59.6918846838,
./stim/MorphM7_09_orig.jpg,102,,,,,,,,,0,102,102,102,,,,,,,,,,,,,,,-21.708984375,-9.140625,1,0,0,1.3716340065,,,,,2015_Oct_20_1558,K,facesParametric,10,59.6918846838,
./stim/MorphF8_08_orig.jpg,103,,,,,,,,,0,103,103,103,,,,,,,,,,,,,,,-21.708984375,-9.140625,1,0,0,1.3732688427,,,,,2015_Oct_20_1558,K,facesParametric,10,59.6918846838,
./stim/MorphM8_00_orig.jpg,104,,,,,,,,,0,104,104,104,,,,,,,,,,,,,,,-21.708984375,-9.140625,1,0,0,1.75712418556,,,,,2015_Oct_20_1558,K,facesParametric,10,59.6918846838,
./stim/MorphF1_10_orig.jpg,105,,,,,,,,,0,105,105,105,,,,,,,,,,,,,,,-1.494140625,-0.966796875,0,0,1,19.1358139515,,,,,2015_Oct_20_1558,K,facesParametric,10,59.6918846838,
./stim/MorphM10_03_orig.jpg,106,,,,,,,,,0,106,106,106,,,,,,,,,,,,,,,-1.494140625,-0.966796875,0,0,1,2.00821995735,,,,,2015_Oct_20_1558,K,facesParametric,10,59.6918846838,
./stim/MorphM3_09_orig.jpg,107,,,,,,,,,0,107,107,107,,,,,,,,,,,,,,,-1.494140625,-0.966796875,1,0,0,1.30638313293,,,,,2015_Oct_20_1558,K,facesParametric,10,59.6918846838,
./stim/MorphM9_03_orig.jpg,108,,,,,,,,,0,108,108,108,,,,,,,,,,,,,,,-1.494140625,-0.966796875,0,0,1,1.42294692993,,,,,2015_Oct_20_1558,K,facesParametric,10,59.6918846838,
./stim/MorphF5_08_orig.jpg,109,,,,,,,,,0,109,109,109,,,,,,,,,,,,,,,-1.494140625,-0.9375,1,0,0,6.50157213211,,,,,2015_Oct_20_1558,K,facesParametric,10,59.6918846838,
./stim/MorphM10_02_orig.jpg,110,,,,,,,,,0,110,110,110,,,,,,,,,,,,,,,-1.494140625,-0.9375,1,0,0,4.4905500412,,,,,2015_Oct_20_1558,K,facesParametric,10,59.6918846838,
./stim/MorphM3_02_orig.jpg,111,,,,,,,,,0,111,111,111,,,,,,,,,,,,,,,-1.025390625,-0.615234375,0,0,1,2.66357517242,,,,,2015_Oct_20_1558,K,facesParametric,10,59.6918846838,
./stim/MorphF2_06_orig.jpg,112,,,,,,,,,0,112,112,112,,,,,,,,,,,,,,,0.615234375,0.05859375,1,0,0,6.03265786171,,,,,2015_Oct_20_1558,K,facesParametric,10,59.6918846838,
./stim/MorphM7_02_orig.jpg,113,,,,,,,,,0,113,113,113,,,,,,,,,,,,,,,-4.716796875,0.966796875,1,0,0,27.96854496,,,,,2015_Oct_20_1558,K,facesParametric,10,59.6918846838,
./stim/MorphF2_03_orig.jpg,114,,,,,,,,,0,114,114,114,,,,,,,,,,,,,,,-4.74609375,0.99609375,0,0,1,4.03657197952,,,,,2015_Oct_20_1558,K,facesParametric,10,59.6918846838,
./stim/MorphF7_07_orig.jpg,115,,,,,,,,,0,115,115,115,,,,,,,,,,,,,,,-23.26171875,-7.03125,0,0,1,14.4622960091,,,,,2015_Oct_20_1558,K,facesParametric,10,59.6918846838,
./stim/MorphF4_06_orig.jpg,116,,,,,,,,,0,116,116,116,,,,,,,,,,,,,,,-23.232421875,-7.060546875,0,0,1,25.7248630524,,,,,2015_Oct_20_1558,K,facesParametric,10,59.6918846838,
./stim/MorphF8_04_orig.jpg,117,,,,,,,,,0,117,117,117,,,,,,,,,,,,,,,-23.232421875,-7.060546875,0,0,1,1.5219669342,,,,,2015_Oct_20_1558,K,facesParametric,10,59.6918846838,
./stim/MorphF5_06_orig.jpg,118,,,,,,,,,0,118,118,118,,,,,,,,,,,,,,,-23.232421875,-7.060546875,1,0,0,2.2110350132,,,,,2015_Oct_20_1558,K,facesParametric,10,59.6918846838,
./stim/MorphF3_10_orig.jpg,119,,,,,,,,,0,119,119,119,,,,,,,,,,,,,,,-23.232421875,-7.060546875,0,0,1,1.80873298645,,,,,2015_Oct_20_1558,K,facesParametric,10,59.6918846838,
./stim/MorphM2_06_orig.jpg,120,,,,,,,,,0,120,120,120,,,,,,,,,,,,,,,-23.232421875,-7.060546875,1,0,0,4.15390086174,,,,,2015_Oct_20_1558,K,facesParametric,10,59.6918846838,
./stim/MorphF4_03_orig.jpg,121,,,,,,,,,0,121,121,121,,,,,,,,,,,,,,,-23.232421875,-7.060546875,0,0,1,1.4209561348,,,,,2015_Oct_20_1558,K,facesParametric,10,59.6918846838,
./stim/MorphM6_00_orig.jpg,122,,,,,,,,,0,122,122,122,,,,,,,,,,,,,,,-23.232421875,-7.060546875,0,0,1,1.05450391769,,,,,2015_Oct_20_1558,K,facesParametric,10,59.6918846838,
./stim/MorphF10_08_orig.jpg,123,,,,,,,,,0,123,123,123,,,,,,,,,,,,,,,-23.232421875,-7.060546875,1,0,0,1.0714738369,,,,,2015_Oct_20_1558,K,facesParametric,10,59.6918846838,
./stim/MorphM9_07_orig.jpg,124,,,,,,,,,0,124,124,124,,,,,,,,,,,,,,,-17.28515625,-0.791015625,0,0,1,8.47902011871,,,,,2015_Oct_20_1558,K,facesParametric,10,59.6918846838,
./stim/MorphM6_03_orig.jpg,125,,,,,,,,,0,125,125,125,,,,,,,,,,,,,,,-17.28515625,-0.791015625,0,0,1,3.43463802338,,,,,2015_Oct_20_1558,K,facesParametric,10,59.6918846838,
./stim/MorphF6_00_orig.jpg,126,,,,,,,,,0,126,126,126,,,,,,,,,,,,,,,-17.28515625,-0.791015625,0,0,1,1.85885715485,,,,,2015_Oct_20_1558,K,facesParametric,10,59.6918846838,
./stim/MorphF2_09_orig.jpg,127,,,,,,,,,0,127,127,127,,,,,,,,,,,,,,,-17.314453125,-0.8203125,1,0,0,2.09361410141,,,,,2015_Oct_20_1558,K,facesParametric,10,59.6918846838,
./stim/MorphF4_04_orig.jpg,128,,,,,,,,,0,128,128,128,,,,,,,,,,,,,,,-17.314453125,-0.8203125,0,0,1,17.6802711487,,,,,2015_Oct_20_1558,K,facesParametric,10,59.6918846838,
./stim/MorphF3_09_orig.jpg,129,,,,,,,,,0,129,129,129,,,,,,,,,,,,,,,-17.34375,-0.791015625,0,0,1,3.60257816315,,,,,2015_Oct_20_1558,K,facesParametric,10,59.6918846838,
./stim/MorphF7_05_orig.jpg,130,,,,,,,,,0,130,130,130,,,,,,,,,,,,,,,-14.82421875,3.369140625,0,0,1,7.15470290184,,,,,2015_Oct_20_1558,K,facesParametric,10,59.6918846838,
./stim/MorphF10_04_orig.jpg,131,,,,,,,,,0,131,131,131,,,,,,,,,,,,,,,-14.853515625,3.369140625,1,0,0,4.62467908859,,,,,2015_Oct_20_1558,K,facesParametric,10,59.6918846838,
./stim/MorphM5_07_orig.jpg,132,,,,,,,,,0,132,132,132,,,,,,,,,,,,,,,-14.8828125,3.33984375,1,0,0,15.8350269794,,,,,2015_Oct_20_1558,K,facesParametric,10,59.6918846838,
./stim/MorphF8_02_orig.jpg,133,,,,,,,,,0,133,133,133,,,,,,,,,,,,,,,-14.8828125,3.33984375,0,0,1,3.77003312111,,,,,2015_Oct_20_1558,K,facesParametric,10,59.6918846838,
./stim/MorphM5_02_orig.jpg,134,,,,,,,,,0,134,134,134,,,,,,,,,,,,,,,-14.82421875,3.45703125,0,0,1,41.8977200985,,,,,2015_Oct_20_1558,K,facesParametric,10,59.6918846838,
./stim/MorphF1_01_orig.jpg,135,,,,,,,,,0,135,135,135,,,,,,,,,,,,,,,-14.82421875,3.45703125,0,0,1,4.82419490814,,,,,2015_Oct_20_1558,K,facesParametric,10,59.6918846838,
./stim/MorphF4_05_orig.jpg,136,,,,,,,,,0,136,136,136,,,,,,,,,,,,,,,-14.82421875,3.45703125,0,0,1,5.0270280838,,,,,2015_Oct_20_1558,K,facesParametric,10,59.6918846838,
./stim/MorphF2_10_orig.jpg,137,,,,,,,,,0,137,137,137,,,,,,,,,,,,,,,-14.82421875,3.45703125,1,0,0,2.42867398262,,,,,2015_Oct_20_1558,K,facesParametric,10,59.6918846838,
./stim/MorphM3_00_orig.jpg,138,,,,,,,,,0,138,138,138,,,,,,,,,,,,,,,-14.82421875,3.45703125,0,0,1,1.82545018196,,,,,2015_Oct_20_1558,K,facesParametric,10,59.6918846838,
./stim/MorphM5_06_orig.jpg,139,,,,,,,,,0,139,139,139,,,,,,,,,,,,,,,-14.82421875,3.45703125,1,0,0,3.15010881424,,,,,2015_Oct_20_1558,K,facesParametric,10,59.6918846838,
./stim/MorphF2_01_orig.jpg,140,,,,,,,,,0,140,140,140,,,,,,,,,,,,,,,-14.82421875,3.45703125,0,0,1,2.74625205994,,,,,2015_Oct_20_1558,K,facesParametric,10,59.6918846838,
./stim/MorphM6_05_orig.jpg,141,,,,,,,,,0,141,141,141,,,,,,,,,,,,,,,-14.82421875,3.45703125,0,0,1,1.23945593834,,,,,2015_Oct_20_1558,K,facesParametric,10,59.6918846838,
./stim/MorphM8_10_orig.jpg,142,,,,,,,,,0,142,142,142,,,,,,,,,,,,,,,-14.82421875,3.45703125,1,0,0,1.32252407074,,,,,2015_Oct_20_1558,K,facesParametric,10,59.6918846838,
./stim/MorphM4_02_orig.jpg,143,,,,,,,,,0,143,143,143,,,,,,,,,,,,,,,-14.82421875,3.45703125,0,0,1,1.25483202934,,,,,2015_Oct_20_1558,K,facesParametric,10,59.6918846838,
./stim/MorphM5_03_orig.jpg,144,,,,,,,,,0,144,144,144,,,,,,,,,,,,,,,-14.82421875,3.45703125,0,0,1,3.51668000221,,,,,2015_Oct_20_1558,K,facesParametric,10,59.6918846838,
./stim/MorphM6_08_orig.jpg,145,,,,,,,,,0,145,145,145,,,,,,,,,,,,,,,-14.82421875,3.45703125,0,0,1,4.25487589836,,,,,2015_Oct_20_1558,K,facesParametric,10,59.6918846838,
./stim/MorphF6_02_orig.jpg,146,,,,,,,,,0,146,146,146,,,,,,,,,,,,,,,10.83984375,7.55859375,0,0,1,9.78618693352,,,,,2015_Oct_20_1558,K,facesParametric,10,59.6918846838,
./stim/MorphM6_04_orig.jpg,147,,,,,,,,,0,147,147,147,,,,,,,,,,,,,,,10.83984375,7.55859375,0,0,1,4.0860478878,,,,,2015_Oct_20_1558,K,facesParametric,10,59.6918846838,
./stim/MorphM9_05_orig.jpg,148,,,,,,,,,0,148,148,148,,,,,,,,,,,,,,,10.83984375,7.55859375,0,0,1,1.84269595146,,,,,2015_Oct_20_1558,K,facesParametric,10,59.6918846838,
./stim/MorphF8_06_orig.jpg,149,,,,,,,,,0,149,149,149,,,,,,,,,,,,,,,10.78125,7.55859375,0,0,1,8.34463787079,,,,,2015_Oct_20_1558,K,facesParametric,10,59.6918846838,
./stim/MorphM1_02_orig.jpg,150,,,,,,,,,0,150,150,150,,,,,,,,,,,,,,,10.810546875,7.529296875,1,0,0,3.68529891968,,,,,2015_Oct_20_1558,K,facesParametric,10,59.6918846838,
./stim/MorphF3_00_orig.jpg,151,,,,,,,,,0,151,151,151,,,,,,,,,,,,,,,10.810546875,7.529296875,1,0,0,1.33989906311,,,,,2015_Oct_20_1558,K,facesParametric,10,59.6918846838,
./stim/MorphF10_02_orig.jpg,152,,,,,,,,,0,152,152,152,,,,,,,,,,,,,,,10.810546875,7.529296875,1,0,0,2.02566599846,,,,,2015_Oct_20_1558,K,facesParametric,10,59.6918846838,
./stim/MorphF4_07_orig.jpg,153,,,,,,,,,0,153,153,153,,,,,,,,,,,,,,,10.810546875,7.529296875,1,0,0,1.27159905434,,,,,2015_Oct_20_1558,K,facesParametric,10,59.6918846838,
./stim/MorphM2_09_orig.jpg,154,,,,,,,,,0,154,154,154,,,,,,,,,,,,,,,10.810546875,7.529296875,1,0,0,0.920526027679,,,,,2015_Oct_20_1558,K,facesParametric,10,59.6918846838,
./stim/MorphF1_02_orig.jpg,155,,,,,,,,,0,155,155,155,,,,,,,,,,,,,,,10.78125,7.5,0,0,1,5.2780790329,,,,,2015_Oct_20_1558,K,facesParametric,10,59.6918846838,
./stim/MorphF7_06_orig.jpg,156,,,,,,,,,0,156,156,156,,,,,,,,,,,,,,,9.228515625,-1.201171875,0,0,1,10.2058470249,,,,,2015_Oct_20_1558,K,facesParametric,10,59.6918846838,
./stim/MorphM3_03_orig.jpg,157,,,,,,,,,0,157,157,157,,,,,,,,,,,,,,,9.19921875,-1.23046875,1,0,0,5.54635095596,,,,,2015_Oct_20_1558,K,facesParametric,10,59.6918846838,
./stim/MorphM7_03_orig.jpg,158,,,,,,,,,0,158,158,158,,,,,,,,,,,,,,,9.169921875,-1.259765625,1,0,0,3.96890902519,,,,,2015_Oct_20_1558,K,facesParametric,10,59.6918846838,
./stim/MorphM2_08_orig.jpg,159,,,,,,,,,0,159,159,159,,,,,,,,,,,,,,,9.140625,-1.23046875,1,0,0,2.84567904472,,,,,2015_Oct_20_1558,K,facesParametric,10,59.6918846838,
./stim/MorphF5_01_orig.jpg,160,,,,,,,,,0,160,160,160,,,,,,,,,,,,,,,9.140625,-1.23046875,1,0,0,0.853322029114,,,,,2015_Oct_20_1558,K,facesParametric,10,59.6918846838,
./stim/MorphF8_07_orig.jpg,161,,,,,,,,,0,161,161,161,,,,,,,,,,,,,,,9.140625,-1.23046875,1,0,0,1.30466198921,,,,,2015_Oct_20_1558,K,facesParametric,10,59.6918846838,
./stim/MorphM4_00_orig.jpg,162,,,,,,,,,0,162,162,162,,,,,,,,,,,,,,,9.140625,-1.23046875,0,0,1,1.55629897118,,,,,2015_Oct_20_1558,K,facesParametric,10,59.6918846838,
./stim/MorphM7_10_orig.jpg,163,,,,,,,,,0,163,163,163,,,,,,,,,,,,,,,9.140625,-1.201171875,1,0,0,1.15531587601,,,,,2015_Oct_20_1558,K,facesParametric,10,59.6918846838,
./stim/MorphM1_01_orig.jpg,164,,,,,,,,,0,164,164,164,,,,,,,,,,,,,,,9.111328125,-1.171875,1,0,0,6.28338694572,,,,,2015_Oct_20_1558,K,facesParametric,10,59.6918846838,
./stim/MorphM8_01_orig.jpg,165,,,,,,,,,0,165,165,165,,,,,,,,,,,,,,,9.111328125,-1.171875,0,0,1,1.67429614067,,,,,2015_Oct_20_1558,K,facesParametric,10,59.6918846838,
./stim/MorphM10_04_orig.jpg,166,,,,,,,,,0,166,166,166,,,,,,,,,,,,,,,9.140625,-1.171875,1,0,0,0.937782049179,,,,,2015_Oct_20_1558,K,facesParametric,10,59.6918846838,
./stim/MorphF10_07_orig.jpg,167,,,,,,,,,0,167,167,167,,,,,,,,,,,,,,,9.140625,-1.171875,1,0,0,4.1211669445,,,,,2015_Oct_20_1558,K,facesParametric,10,59.6918846838,
./stim/MorphM5_00_orig.jpg,168,,,,,,,,,0,168,168,168,,,,,,,,,,,,,,,9.140625,-1.171875,1,0,0,6.87025594711,,,,,2015_Oct_20_1558,K,facesParametric,10,59.6918846838,
./stim/MorphF1_06_orig.jpg,169,,,,,,,,,0,169,169,169,,,,,,,,,,,,,,,9.169921875,-1.171875,0,0,1,4.55519604683,,,,,2015_Oct_20_1558,K,facesParametric,10,59.6918846838,
./stim/MorphF8_05_orig.jpg,170,,,,,,,,,0,170,170,170,,,,,,,,,,,,,,,9.19921875,-1.201171875,1,0,0,6.63598585129,,,,,2015_Oct_20_1558,K,facesParametric,10,59.6918846838,
./stim/MorphM9_00_orig.jpg,171,,,,,,,,,0,171,171,171,,,,,,,,,,,,,,,9.19921875,-1.201171875,0,0,1,1.57275295258,,,,,2015_Oct_20_1558,K,facesParametric,10,59.6918846838,
./stim/MorphF5_04_orig.jpg,172,,,,,,,,,0,172,172,172,,,,,,,,,,,,,,,9.19921875,-1.201171875,1,0,0,2.54454708099,,,,,2015_Oct_20_1558,K,facesParametric,10,59.6918846838,
./stim/MorphM7_05_orig.jpg,173,,,,,,,,,0,173,173,173,,,,,,,,,,,,,,,9.19921875,-1.201171875,1,0,0,1.32033801079,,,,,2015_Oct_20_1558,K,facesParametric,10,59.6918846838,
./stim/MorphM8_04_orig.jpg,174,,,,,,,,,0,174,174,174,,,,,,,,,,,,,,,9.19921875,-1.201171875,0,0,1,1.35641622543,,,,,2015_Oct_20_1558,K,facesParametric,10,59.6918846838,
./stim/MorphF10_01_orig.jpg,175,,,,,,,,,0,175,175,175,,,,,,,,,,,,,,,9.19921875,-1.201171875,0,0,1,1.84074401855,,,,,2015_Oct_20_1558,K,facesParametric,10,59.6918846838,
./stim/MorphF2_05_orig.jpg,176,,,,,,,,,0,176,176,176,,,,,,,,,,,,,,,9.19921875,-1.201171875,1,0,0,1.69040608406,,,,,2015_Oct_20_1558,K,facesParametric,10,59.6918846838,
./stim/MorphM5_08_orig.jpg,177,,,,,,,,,0,177,177,177,,,,,,,,,,,,,,,9.19921875,-1.201171875,1,0,0,1.45675206184,,,,,2015_Oct_20_1558,K,facesParametric,10,59.6918846838,
./stim/MorphF5_02_orig.jpg,178,,,,,,,,,0,178,178,178,,,,,,,,,,,,,,,9.19921875,-1.201171875,1,0,0,5.79743909836,,,,,2015_Oct_20_1558,K,facesParametric,10,59.6918846838,
./stim/MorphF7_01_orig.jpg,179,,,,,,,,,0,179,179,179,,,,,,,,,,,,,,,9.19921875,-1.201171875,0,0,1,2.47952985764,,,,,2015_Oct_20_1558,K,facesParametric,10,59.6918846838,
./stim/MorphF6_01_orig.jpg,180,,,,,,,,,0,180,180,180,,,,,,,,,,,,,,,9.19921875,-1.201171875,0,0,1,0.953814029694,,,,,2015_Oct_20_1558,K,facesParametric,10,59.6918846838,
./stim/MorphF8_10_orig.jpg,181,,,,,,,,,0,181,181,181,,,,,,,,,,,,,,,9.19921875,-1.201171875,1,0,0,1.55718898773,,,,,2015_Oct_20_1558,K,facesParametric,10,59.6918846838,
./stim/MorphF6_03_orig.jpg,182,,,,,,,,,0,182,182,182,,,,,,,,,,,,,,,9.19921875,-1.201171875,0,0,1,2.36098504066,,,,,2015_Oct_20_1558,K,facesParametric,10,59.6918846838,
./stim/MorphF1_09_orig.jpg,183,,,,,,,,,0,183,183,183,,,,,,,,,,,,,,,9.228515625,-1.23046875,1,0,0,1.65761208534,,,,,2015_Oct_20_1558,K,facesParametric,10,59.6918846838,
./stim/MorphM10_01_orig.jpg,184,,,,,,,,,0,184,184,184,,,,,,,,,,,,,,,9.228515625,-1.23046875,0,0,1,1.33980607986,,,,,2015_Oct_20_1558,K,facesParametric,10,59.6918846838,
./stim/MorphM1_04_orig.jpg,185,,,,,,,,,0,185,185,185,,,,,,,,,,,,,,,9.2578125,-1.23046875,1,0,0,4.15501904488,,,,,2015_Oct_20_1558,K,facesParametric,10,59.6918846838,
./stim/MorphF8_03_orig.jpg,186,,,,,,,,,0,186,186,186,,,,,,,,,,,,,,,9.2578125,-1.23046875,0,0,1,1.02105402946,,,,,2015_Oct_20_1558,K,facesParametric,10,59.6918846838,
./stim/MorphF7_02_orig.jpg,187,,,,,,,,,0,187,187,187,,,,,,,,,,,,,,,9.2578125,-1.23046875,0,0,1,1.12287402153,,,,,2015_Oct_20_1558,K,facesParametric,10,59.6918846838,
./stim/MorphM6_01_orig.jpg,188,,,,,,,,,0,188,188,188,,,,,,,,,,,,,,,9.2578125,-1.23046875,0,0,1,0.98637509346,,,,,2015_Oct_20_1558,K,facesParametric,10,59.6918846838,
./stim/MorphM7_00_orig.jpg,189,,,,,,,,,0,189,189,189,,,,,,,,,,,,,,,9.140625,-1.259765625,0,0,1,9.19965100288,,,,,2015_Oct_20_1558,K,facesParametric,10,59.6918846838,
./stim/MorphF6_08_orig.jpg,190,,,,,,,,,0,190,190,190,,,,,,,,,,,,,,,9.140625,-1.259765625,1,0,0,1.28999304771,,,,,2015_Oct_20_1558,K,facesParametric,10,59.6918846838,
./stim/MorphM9_09_orig.jpg,191,,,,,,,,,0,191,191,191,,,,,,,,,,,,,,,9.140625,-1.259765625,1,0,0,1.02032804489,,,,,2015_Oct_20_1558,K,facesParametric,10,59.6918846838,
./stim/MorphF5_00_orig.jpg,192,,,,,,,,,0,192,192,192,,,,,,,,,,,,,,,9.140625,-1.259765625,0,0,1,1.45626115799,,,,,2015_Oct_20_1558,K,facesParametric,10,59.6918846838,
./stim/MorphM9_04_orig.jpg,193,,,,,,,,,0,193,193,193,,,,,,,,,,,,,,,9.140625,-1.259765625,0,0,1,2.07701396942,,,,,2015_Oct_20_1558,K,facesParametric,10,59.6918846838,
./stim/MorphM4_09_orig.jpg,194,,,,,,,,,0,194,194,194,,,,,,,,,,,,,,,9.140625,-1.259765625,1,0,0,1.52192306519,,,,,2015_Oct_20_1558,K,facesParametric,10,59.6918846838,
./stim/MorphF2_02_orig.jpg,195,,,,,,,,,0,195,195,195,,,,,,,,,,,,,,,9.169921875,-1.259765625,0,0,1,2.86449599266,,,,,2015_Oct_20_1558,K,facesParametric,10,59.6918846838,
./stim/MorphF9_09_orig.jpg,196,,,,,,,,,0,196,196,196,,,,,,,,,,,,,,,9.2578125,-1.318359375,1,0,0,1.77550911903,,,,,2015_Oct_20_1558,K,facesParametric,10,59.6918846838,
./stim/MorphF3_04_orig.jpg,197,,,,,,,,,0,197,197,197,,,,,,,,,,,,,,,9.2578125,-1.318359375,0,0,1,1.42210507393,,,,,2015_Oct_20_1558,K,facesParametric,10,59.6918846838,
./stim/MorphM3_08_orig.jpg,198,,,,,,,,,0,198,198,198,,,,,,,,,,,,,,,9.2578125,-1.318359375,1,0,0,1.08644604683,,,,,2015_Oct_20_1558,K,facesParametric,10,59.6918846838,
./stim/MorphF7_04_orig.jpg,199,,,,,,,,,0,199,199,199,,,,,,,,,,,,,,,9.2578125,-1.318359375,0,0,1,2.61344695091,,,,,2015_Oct_20_1558,K,facesParametric,10,59.6918846838,
./stim/MorphM8_06_orig.jpg,200,,,,,,,,,0,200,200,200,,,,,,,,,,,,,,,9.2578125,-1.318359375,0,0,1,2.47764801979,,,,,2015_Oct_20_1558,K,facesParametric,10,59.6918846838,
./stim/MorphF9_05_orig.jpg,201,,,,,,,,,0,201,201,201,,,,,,,,,,,,,,,9.2578125,-1.318359375,0,0,1,1.25342702866,,,,,2015_Oct_20_1558,K,facesParametric,10,59.6918846838,
./stim/MorphM2_00_orig.jpg,202,,,,,,,,,0,202,202,202,,,,,,,,,,,,,,,9.2578125,-1.318359375,0,0,1,0.903887033463,,,,,2015_Oct_20_1558,K,facesParametric,10,59.6918846838,
./stim/MorphF1_03_orig.jpg,203,,,,,,,,,0,203,203,203,,,,,,,,,,,,,,,9.2578125,-1.318359375,0,0,1,1.92640805244,,,,,2015_Oct_20_1558,K,facesParametric,10,59.6918846838,
./stim/MorphM8_03_orig.jpg,204,,,,,,,,,0,204,204,204,,,,,,,,,,,,,,,9.2578125,-1.318359375,0,0,1,2.27766489983,,,,,2015_Oct_20_1558,K,facesParametric,10,59.6918846838,
./stim/MorphF2_00_orig.jpg,205,,,,,,,,,0,205,205,205,,,,,,,,,,,,,,,9.2578125,-1.318359375,0,0,1,1.12196803093,,,,,2015_Oct_20_1558,K,facesParametric,10,59.6918846838,
./stim/MorphF10_05_orig.jpg,206,,,,,,,,,0,206,206,206,,,,,,,,,,,,,,,9.287109375,-1.34765625,0,0,1,6.03107619286,,,,,2015_Oct_20_1558,K,facesParametric,10,59.6918846838,
./stim/MorphM7_06_orig.jpg,207,,,,,,,,,0,207,207,207,,,,,,,,,,,,,,,9.287109375,-1.34765625,1,0,0,1.03750300407,,,,,2015_Oct_20_1558,K,facesParametric,10,59.6918846838,
./stim/MorphF1_04_orig.jpg,208,,,,,,,,,0,208,208,208,,,,,,,,,,,,,,,9.287109375,-1.2890625,0,0,1,7.23718595505,,,,,2015_Oct_20_1558,K,facesParametric,10,59.6918846838,
./stim/MorphF6_10_orig.jpg,209,,,,,,,,,0,209,209,209,,,,,,,,,,,,,,,9.287109375,-1.2890625,1,0,0,1.35441994667,,,,,2015_Oct_20_1558,K,facesParametric,10,59.6918846838,
./stim/MorphF9_10_orig.jpg,210,,,,,,,,,0,210,210,210,,,,,,,,,,,,,,,9.2578125,-1.318359375,1,0,0,1.08825397491,,,,,2015_Oct_20_1558,K,facesParametric,10,59.6918846838,
./stim/MorphM10_07_orig.jpg,211,,,,,,,,,0,211,211,211,,,,,,,,,,,,,,,9.2578125,-1.318359375,1,0,0,1.372205019,,,,,2015_Oct_20_1558,K,facesParametric,10,59.6918846838,
./stim/MorphM4_06_orig.jpg,212,,,,,,,,,0,212,212,212,,,,,,,,,,,,,,,9.2578125,-1.318359375,1,0,0,1.52376508713,,,,,2015_Oct_20_1558,K,facesParametric,10,59.6918846838,
./stim/MorphF4_09_orig.jpg,213,,,,,,,,,0,213,213,213,,,,,,,,,,,,,,,9.2578125,-1.318359375,1,0,0,0.702673912048,,,,,2015_Oct_20_1558,K,facesParametric,10,59.6918846838,
./stim/MorphM3_07_orig.jpg,214,,,,,,,,,0,214,214,214,,,,,,,,,,,,,,,9.2578125,-1.318359375,1,0,0,0.937184095383,,,,,2015_Oct_20_1558,K,facesParametric,10,59.6918846838,
./stim/MorphM10_10_orig.jpg,215,,,,,,,,,0,215,215,215,,,,,,,,,,,,,,,9.2578125,-1.318359375,1,0,0,0.669229030609,,,,,2015_Oct_20_1558,K,facesParametric,10,59.6918846838,
./stim/MorphF6_04_orig.jpg,216,,,,,,,,,0,216,216,216,,,,,,,,,,,,,,,9.2578125,-1.318359375,0,0,1,1.55636501312,,,,,2015_Oct_20_1558,K,facesParametric,10,59.6918846838,
./stim/MorphM1_07_orig.jpg,217,,,,,,,,,0,217,217,217,,,,,,,,,,,,,,,9.2578125,-1.318359375,1,0,0,1.12222194672,,,,,2015_Oct_20_1558,K,facesParametric,10,59.6918846838,
./stim/MorphM4_07_orig.jpg,218,,,,,,,,,0,218,218,218,,,,,,,,,,,,,,,9.2578125,-1.318359375,1,0,0,1.1546049118,,,,,2015_Oct_20_1558,K,facesParametric,10,59.6918846838,
./stim/MorphF4_01_orig.jpg,219,,,,,,,,,0,219,219,219,,,,,,,,,,,,,,,9.2578125,-1.318359375,0,0,1,1.0040409565,,,,,2015_Oct_20_1558,K,facesParametric,10,59.6918846838,
,,,,,,,,,,,,,,,,,,,,,,,,,,,,,,,,,,,,return,1.66717195511,2015_Oct_20_1558,K,facesParametric,10,59.6918846838,
