img,num,basicLoop.thisRepN,basicLoop.thisTrialN,basicLoop.thisN,basicLoop.thisIndex,trials.thisRepN,trials.thisTrialN,trials.thisN,trials.thisIndex,trials2.thisRepN,trials2.thisTrialN,trials2.thisN,trials2.thisIndex,key_resp_2.keys,key_resp_2.rt,basicRating1.response,basicRating1.rt,basicRating2.response,basicRating2.rt,basicRating3.response,basicRating3.rt,basicRating4.response,basicRating4.rt,key_resp_3.keys,key_resp_3.rt,key_resp_4.keys,key_resp_4.rt,mouseResp.x,mouseResp.y,mouseResp.leftButton,mouseResp.midButton,mouseResp.rightButton,mouseResp.time,key_resp_5.keys,key_resp_5.rt,key_resp_7.keys,key_resp_7.rt,date,group,expName,participant,frameRate,
,,,,,,,,,,,,,,return,44.5984480381,,,,,,,,,,,,,,,,,,,,,,,2015_Oct_20_1759,K,facesParametric,11,59.6676833432,
./basicStim/23M_SP_O.jpg,,0,0,0,54,,,,,,,,,,,None,None,None,None,SUP,4.413,None,None,,,,,,,,,,,,,,,2015_Oct_20_1759,K,facesParametric,11,59.6676833432,
./basicStim/03F_FE_O.jpg,,0,1,1,16,,,,,,,,,,,None,None,None,None,SUP,28.111,None,None,,,,,,,,,,,,,,,2015_Oct_20_1759,K,facesParametric,11,59.6676833432,
./basicStim/09F_SA_C.jpg,,0,2,2,39,,,,,,,,,,,SAD,2.219,None,None,None,None,None,None,,,,,,,,,,,,,,,2015_Oct_20_1759,K,facesParametric,11,59.6676833432,
./basicStim/02F_AN_O.jpg,,0,3,3,7,,,,,,,,,,,None,None,ANG,2.08,None,None,None,None,,,,,,,,,,,,,,,2015_Oct_20_1759,K,facesParametric,11,59.6676833432,
./basicStim/23M_AN_O.jpg,,0,4,4,49,,,,,,,,,,,None,None,ANG,1.495,None,None,None,None,,,,,,,,,,,,,,,2015_Oct_20_1759,K,facesParametric,11,59.6676833432,
./basicStim/21M_FE_O.jpg,,0,5,5,44,,,,,,,,,,,None,None,None,None,SUP,24.002,None,None,,,,,,,,,,,,,,,2015_Oct_20_1759,K,facesParametric,11,59.6676833432,
./basicStim/02F_DI_O.jpg,,0,6,6,8,,,,,,,,,,,None,None,None,None,DIS,1.912,None,None,,,,,,,,,,,,,,,2015_Oct_20_1759,K,facesParametric,11,59.6676833432,
./basicStim/06F_SP_O.jpg,,0,7,7,26,,,,,,,,,,,None,None,None,None,SUP,16.038,None,None,,,,,,,,,,,,,,,2015_Oct_20_1759,K,facesParametric,11,59.6676833432,
./basicStim/03F_SP_O.jpg,,0,8,8,19,,,,,,,,,,,SAD,4.629,None,None,None,None,None,None,,,,,,,,,,,,,,,2015_Oct_20_1759,K,facesParametric,11,59.6676833432,
./basicStim/23M_NE_C.jpg,,0,9,9,55,,,,,,,,,,,None,None,None,None,None,None,NTR,1.985,,,,,,,,,,,,,,,2015_Oct_20_1759,K,facesParametric,11,59.6676833432,
./basicStim/01F_DI_O.jpg,,0,10,10,1,,,,,,,,,,,None,None,None,None,DIS,0.959,None,None,,,,,,,,,,,,,,,2015_Oct_20_1759,K,facesParametric,11,59.6676833432,
./basicStim/24M_HA_O.jpg,,0,11,11,59,,,,,,,,,,,HAP,6.07,None,None,None,None,None,None,,,,,,,,,,,,,,,2015_Oct_20_1759,K,facesParametric,11,59.6676833432,
./basicStim/06F_SA_C.jpg,,0,12,12,25,,,,,,,,,,,SAD,4.346,None,None,None,None,None,None,,,,,,,,,,,,,,,2015_Oct_20_1759,K,facesParametric,11,59.6676833432,
./basicStim/03F_DI_O.jpg,,0,13,13,15,,,,,,,,,,,None,None,None,None,DIS,1.577,None,None,,,,,,,,,,,,,,,2015_Oct_20_1759,K,facesParametric,11,59.6676833432,
./basicStim/01F_SA_C.jpg,,0,14,14,4,,,,,,,,,,,SAD,1.812,None,None,None,None,None,None,,,,,,,,,,,,,,,2015_Oct_20_1759,K,facesParametric,11,59.6676833432,
./basicStim/21M_NE_C.jpg,,0,15,15,48,,,,,,,,,,,None,None,None,None,None,None,NTR,5.127,,,,,,,,,,,,,,,2015_Oct_20_1759,K,facesParametric,11,59.6676833432,
./basicStim/02F_FE_O.jpg,,0,16,16,9,,,,,,,,,,,None,None,None,None,DIS,8.636,None,None,,,,,,,,,,,,,,,2015_Oct_20_1759,K,facesParametric,11,59.6676833432,
./basicStim/28M_SP_O.jpg,,0,17,17,68,,,,,,,,,,,None,None,None,None,SUP,0.875,None,None,,,,,,,,,,,,,,,2015_Oct_20_1759,K,facesParametric,11,59.6676833432,
./basicStim/36M_HA_O.jpg,,0,18,18,80,,,,,,,,,,,HAP,1.468,None,None,None,None,None,None,,,,,,,,,,,,,,,2015_Oct_20_1759,K,facesParametric,11,59.6676833432,
./basicStim/23M_HA_O.jpg,,0,19,19,52,,,,,,,,,,,HAP,0.679,None,None,None,None,None,None,,,,,,,,,,,,,,,2015_Oct_20_1759,K,facesParametric,11,59.6676833432,
./basicStim/28M_DI_O.jpg,,0,20,20,64,,,,,,,,,,,None,None,None,None,DIS,1.714,None,None,,,,,,,,,,,,,,,2015_Oct_20_1759,K,facesParametric,11,59.6676833432,
./basicStim/28M_NE_C.jpg,,0,21,21,69,,,,,,,,,,,None,None,None,None,None,None,NTR,1.178,,,,,,,,,,,,,,,2015_Oct_20_1759,K,facesParametric,11,59.6676833432,
./basicStim/24M_SP_O.jpg,,0,22,22,61,,,,,,,,,,,None,None,None,None,SUP,16.082,None,None,,,,,,,,,,,,,,,2015_Oct_20_1759,K,facesParametric,11,59.6676833432,
./basicStim/34M_HA_O.jpg,,0,23,23,73,,,,,,,,,,,HAP,1.447,None,None,None,None,None,None,,,,,,,,,,,,,,,2015_Oct_20_1759,K,facesParametric,11,59.6676833432,
./basicStim/36M_SA_C.jpg,,0,24,24,81,,,,,,,,,,,SAD,1.196,None,None,None,None,None,None,,,,,,,,,,,,,,,2015_Oct_20_1759,K,facesParametric,11,59.6676833432,
./basicStim/07F_SA_C.jpg,,0,25,25,32,,,,,,,,,,,SAD,0.412,None,None,None,None,None,None,,,,,,,,,,,,,,,2015_Oct_20_1759,K,facesParametric,11,59.6676833432,
./basicStim/34M_SA_C.jpg,,0,26,26,74,,,,,,,,,,,SAD,4.379,None,None,None,None,None,None,,,,,,,,,,,,,,,2015_Oct_20_1759,K,facesParametric,11,59.6676833432,
./basicStim/09F_AN_O.jpg,,0,27,27,35,,,,,,,,,,,None,None,ANG,2.151,None,None,None,None,,,,,,,,,,,,,,,2015_Oct_20_1759,K,facesParametric,11,59.6676833432,
./basicStim/07F_NE_C.jpg,,0,28,28,34,,,,,,,,,,,None,None,None,None,None,None,NTR,1.728,,,,,,,,,,,,,,,2015_Oct_20_1759,K,facesParametric,11,59.6676833432,
./basicStim/09F_DI_O.jpg,,0,29,29,36,,,,,,,,,,,None,None,None,None,DIS,2.218,None,None,,,,,,,,,,,,,,,2015_Oct_20_1759,K,facesParametric,11,59.6676833432,
./basicStim/09F_SP_O.jpg,,0,30,30,40,,,,,,,,,,,None,None,FEA,6.496,None,None,None,None,,,,,,,,,,,,,,,2015_Oct_20_1759,K,facesParametric,11,59.6676833432,
./basicStim/03F_AN_O.jpg,,0,31,31,14,,,,,,,,,,,None,None,ANG,0.855,None,None,None,None,,,,,,,,,,,,,,,2015_Oct_20_1759,K,facesParametric,11,59.6676833432,
./basicStim/24M_FE_O.jpg,,0,32,32,58,,,,,,,,,,,None,None,None,None,DIS,3.87,None,None,,,,,,,,,,,,,,,2015_Oct_20_1759,K,facesParametric,11,59.6676833432,
./basicStim/02F_SP_O.jpg,,0,33,33,12,,,,,,,,,,,None,None,None,None,SUP,1.123,None,None,,,,,,,,,,,,,,,2015_Oct_20_1759,K,facesParametric,11,59.6676833432,
./basicStim/02F_HA_O.jpg,,0,34,34,10,,,,,,,,,,,HAP,1.247,None,None,None,None,None,None,,,,,,,,,,,,,,,2015_Oct_20_1759,K,facesParametric,11,59.6676833432,
./basicStim/28M_HA_O.jpg,,0,35,35,66,,,,,,,,,,,HAP,0.479,None,None,None,None,None,None,,,,,,,,,,,,,,,2015_Oct_20_1759,K,facesParametric,11,59.6676833432,
./basicStim/34M_NE_C.jpg,,0,36,36,76,,,,,,,,,,,None,None,None,None,None,None,NTR,5.313,,,,,,,,,,,,,,,2015_Oct_20_1759,K,facesParametric,11,59.6676833432,
./basicStim/02F_NE_C.jpg,,0,37,37,13,,,,,,,,,,,None,None,None,None,None,None,NTR,5.867,,,,,,,,,,,,,,,2015_Oct_20_1759,K,facesParametric,11,59.6676833432,
./basicStim/21M_AN_O.jpg,,0,38,38,42,,,,,,,,,,,None,None,ANG,4.462,None,None,None,None,,,,,,,,,,,,,,,2015_Oct_20_1759,K,facesParametric,11,59.6676833432,
./basicStim/24M_AN_O.jpg,,0,39,39,56,,,,,,,,,,,None,None,ANG,4.298,None,None,None,None,,,,,,,,,,,,,,,2015_Oct_20_1759,K,facesParametric,11,59.6676833432,
./basicStim/01F_AN_O.jpg,,0,40,40,0,,,,,,,,,,,None,None,ANG,2.202,None,None,None,None,,,,,,,,,,,,,,,2015_Oct_20_1759,K,facesParametric,11,59.6676833432,
./basicStim/06F_FE_O.jpg,,0,41,41,23,,,,,,,,,,,None,None,FEA,4.295,None,None,None,None,,,,,,,,,,,,,,,2015_Oct_20_1759,K,facesParametric,11,59.6676833432,
./basicStim/01F_NE_C.jpg,,0,42,42,6,,,,,,,,,,,SAD,6.461,None,None,None,None,None,None,,,,,,,,,,,,,,,2015_Oct_20_1759,K,facesParametric,11,59.6676833432,
./basicStim/07F_FE_O.jpg,,0,43,43,30,,,,,,,,,,,None,None,None,None,SUP,2.198,None,None,,,,,,,,,,,,,,,2015_Oct_20_1759,K,facesParametric,11,59.6676833432,
./basicStim/36M_SP_O.jpg,,0,44,44,82,,,,,,,,,,,None,None,None,None,SUP,2.166,None,None,,,,,,,,,,,,,,,2015_Oct_20_1759,K,facesParametric,11,59.6676833432,
./basicStim/09F_NE_C.jpg,,0,45,45,41,,,,,,,,,,,None,None,None,None,None,None,NTR,17.014,,,,,,,,,,,,,,,2015_Oct_20_1759,K,facesParametric,11,59.6676833432,
./basicStim/07F_DI_O.jpg,,0,46,46,29,,,,,,,,,,,None,None,None,None,DIS,1.212,None,None,,,,,,,,,,,,,,,2015_Oct_20_1759,K,facesParametric,11,59.6676833432,
./basicStim/23M_SA_C.jpg,,0,47,47,53,,,,,,,,,,,None,None,None,None,DIS,4.946,None,None,,,,,,,,,,,,,,,2015_Oct_20_1759,K,facesParametric,11,59.6676833432,
./basicStim/36M_FE_O.jpg,,0,48,48,79,,,,,,,,,,,None,None,FEA,15.66,None,None,None,None,,,,,,,,,,,,,,,2015_Oct_20_1759,K,facesParametric,11,59.6676833432,
./basicStim/07F_HA_O.jpg,,0,49,49,31,,,,,,,,,,,HAP,1.143,None,None,None,None,None,None,,,,,,,,,,,,,,,2015_Oct_20_1759,K,facesParametric,11,59.6676833432,
./basicStim/03F_HA_O.jpg,,0,50,50,17,,,,,,,,,,,HAP,0.404,None,None,None,None,None,None,,,,,,,,,,,,,,,2015_Oct_20_1759,K,facesParametric,11,59.6676833432,
./basicStim/09F_HA_O.jpg,,0,51,51,38,,,,,,,,,,,HAP,0.408,None,None,None,None,None,None,,,,,,,,,,,,,,,2015_Oct_20_1759,K,facesParametric,11,59.6676833432,
./basicStim/01F_SP_O.jpg,,0,52,52,5,,,,,,,,,,,None,None,None,None,SUP,1.256,None,None,,,,,,,,,,,,,,,2015_Oct_20_1759,K,facesParametric,11,59.6676833432,
./basicStim/34M_SP_O.jpg,,0,53,53,75,,,,,,,,,,,None,None,None,None,SUP,6.09,None,None,,,,,,,,,,,,,,,2015_Oct_20_1759,K,facesParametric,11,59.6676833432,
./basicStim/28M_FE_O.jpg,,0,54,54,65,,,,,,,,,,,None,None,None,None,DIS,4.393,None,None,,,,,,,,,,,,,,,2015_Oct_20_1759,K,facesParametric,11,59.6676833432,
./basicStim/36M_NE_C.jpg,,0,55,55,83,,,,,,,,,,,None,None,None,None,None,None,NTR,2.166,,,,,,,,,,,,,,,2015_Oct_20_1759,K,facesParametric,11,59.6676833432,
./basicStim/06F_NE_C.jpg,,0,56,56,27,,,,,,,,,,,None,None,None,None,None,None,NTR,1.324,,,,,,,,,,,,,,,2015_Oct_20_1759,K,facesParametric,11,59.6676833432,
./basicStim/07F_SP_O.jpg,,0,57,57,33,,,,,,,,,,,None,None,None,None,SUP,2.298,None,None,,,,,,,,,,,,,,,2015_Oct_20_1759,K,facesParametric,11,59.6676833432,
./basicStim/01F_HA_O.jpg,,0,58,58,3,,,,,,,,,,,HAP,0.911,None,None,None,None,None,None,,,,,,,,,,,,,,,2015_Oct_20_1759,K,facesParametric,11,59.6676833432,
./basicStim/34M_FE_O.jpg,,0,59,59,72,,,,,,,,,,,None,None,FEA,3.326,None,None,None,None,,,,,,,,,,,,,,,2015_Oct_20_1759,K,facesParametric,11,59.6676833432,
./basicStim/24M_NE_C.jpg,,0,60,60,62,,,,,,,,,,,None,None,None,None,None,None,NTR,3.624,,,,,,,,,,,,,,,2015_Oct_20_1759,K,facesParametric,11,59.6676833432,
./basicStim/28M_SA_C.jpg,,0,61,61,67,,,,,,,,,,,SAD,4.598,None,None,None,None,None,None,,,,,,,,,,,,,,,2015_Oct_20_1759,K,facesParametric,11,59.6676833432,
./basicStim/34M_AN_O.jpg,,0,62,62,70,,,,,,,,,,,None,None,ANG,0.832,None,None,None,None,,,,,,,,,,,,,,,2015_Oct_20_1759,K,facesParametric,11,59.6676833432,
./basicStim/21M_DI_O.jpg,,0,63,63,43,,,,,,,,,,,None,None,None,None,DIS,1.108,None,None,,,,,,,,,,,,,,,2015_Oct_20_1759,K,facesParametric,11,59.6676833432,
./basicStim/07F_AN_O.jpg,,0,64,64,28,,,,,,,,,,,None,None,ANG,3.071,None,None,None,None,,,,,,,,,,,,,,,2015_Oct_20_1759,K,facesParametric,11,59.6676833432,
./basicStim/36M_AN_O.jpg,,0,65,65,77,,,,,,,,,,,None,None,None,None,DIS,11.295,None,None,,,,,,,,,,,,,,,2015_Oct_20_1759,K,facesParametric,11,59.6676833432,
./basicStim/03F_SA_C.jpg,,0,66,66,18,,,,,,,,,,,SAD,0.825,None,None,None,None,None,None,,,,,,,,,,,,,,,2015_Oct_20_1759,K,facesParametric,11,59.6676833432,
./basicStim/36M_DI_O.jpg,,0,67,67,78,,,,,,,,,,,None,None,None,None,DIS,1.005,None,None,,,,,,,,,,,,,,,2015_Oct_20_1759,K,facesParametric,11,59.6676833432,
./basicStim/06F_HA_O.jpg,,0,68,68,24,,,,,,,,,,,HAP,0.959,None,None,None,None,None,None,,,,,,,,,,,,,,,2015_Oct_20_1759,K,facesParametric,11,59.6676833432,
./basicStim/24M_DI_O.jpg,,0,69,69,57,,,,,,,,,,,None,None,None,None,DIS,5.669,None,None,,,,,,,,,,,,,,,2015_Oct_20_1759,K,facesParametric,11,59.6676833432,
./basicStim/23M_FE_O.jpg,,0,70,70,51,,,,,,,,,,,None,None,FEA,11.139,None,None,None,None,,,,,,,,,,,,,,,2015_Oct_20_1759,K,facesParametric,11,59.6676833432,
./basicStim/03F_NE_C.jpg,,0,71,71,20,,,,,,,,,,,None,None,None,None,None,None,NTR,1.058,,,,,,,,,,,,,,,2015_Oct_20_1759,K,facesParametric,11,59.6676833432,
./basicStim/06F_DI_O.jpg,,0,72,72,22,,,,,,,,,,,None,None,None,None,DIS,3.271,None,None,,,,,,,,,,,,,,,2015_Oct_20_1759,K,facesParametric,11,59.6676833432,
./basicStim/02F_SA_C.jpg,,0,73,73,11,,,,,,,,,,,SAD,1.716,None,None,None,None,None,None,,,,,,,,,,,,,,,2015_Oct_20_1759,K,facesParametric,11,59.6676833432,
./basicStim/09F_FE_O.jpg,,0,74,74,37,,,,,,,,,,,None,None,None,None,SUP,8.448,None,None,,,,,,,,,,,,,,,2015_Oct_20_1759,K,facesParametric,11,59.6676833432,
./basicStim/24M_SA_C.jpg,,0,75,75,60,,,,,,,,,,,SAD,1.28,None,None,None,None,None,None,,,,,,,,,,,,,,,2015_Oct_20_1759,K,facesParametric,11,59.6676833432,
./basicStim/21M_SP_O.jpg,,0,76,76,47,,,,,,,,,,,None,None,None,None,SUP,1.145,None,None,,,,,,,,,,,,,,,2015_Oct_20_1759,K,facesParametric,11,59.6676833432,
./basicStim/06F_AN_O.jpg,,0,77,77,21,,,,,,,,,,,None,None,None,None,DIS,7.297,None,None,,,,,,,,,,,,,,,2015_Oct_20_1759,K,facesParametric,11,59.6676833432,
./basicStim/21M_SA_C.jpg,,0,78,78,46,,,,,,,,,,,None,None,None,None,DIS,19.799,None,None,,,,,,,,,,,,,,,2015_Oct_20_1759,K,facesParametric,11,59.6676833432,
./basicStim/28M_AN_O.jpg,,0,79,79,63,,,,,,,,,,,None,None,FEA,8.515,None,None,None,None,,,,,,,,,,,,,,,2015_Oct_20_1759,K,facesParametric,11,59.6676833432,
./basicStim/23M_DI_O.jpg,,0,80,80,50,,,,,,,,,,,SAD,3.61,None,None,None,None,None,None,,,,,,,,,,,,,,,2015_Oct_20_1759,K,facesParametric,11,59.6676833432,
./basicStim/34M_DI_O.jpg,,0,81,81,71,,,,,,,,,,,None,None,None,None,DIS,11.669,None,None,,,,,,,,,,,,,,,2015_Oct_20_1759,K,facesParametric,11,59.6676833432,
./basicStim/21M_HA_O.jpg,,0,82,82,45,,,,,,,,,,,HAP,0.947,None,None,None,None,None,None,,,,,,,,,,,,,,,2015_Oct_20_1759,K,facesParametric,11,59.6676833432,
./basicStim/01F_FE_O.jpg,,0,83,83,2,,,,,,,,,,,None,None,None,None,DIS,9.034,None,None,,,,,,,,,,,,,,,2015_Oct_20_1759,K,facesParametric,11,59.6676833432,
,,,,,,,,,,,,,,,,,,,,,,,,return,6.83883810043,,,,,,,,,,,,,2015_Oct_20_1759,K,facesParametric,11,59.6676833432,
,,,,,,,,,,,,,,return,13.8263509274,,,,,,,,,,,,,,,,,,,,,,,2015_Oct_20_1759,K,facesParametric,11,59.6676833432,
,,,,,,,,,,,,,,,,,,,,,,,,return,14.2121319771,,,,,,,,,,,,,2015_Oct_20_1759,K,facesParametric,11,59.6676833432,
,,,,,,,,,,,,,,,,,,,,,,,,,,return,4.22311306,,,,,,,,,,,2015_Oct_20_1759,K,facesParametric,11,59.6676833432,
./stim/MorphM10_09_orig.jpg,0,,,,,0,0,0,0,,,,,,,,,,,,,,,,,,,-2.431640625,12.421875,0,0,1,3.00362586975,,,,,2015_Oct_20_1759,K,facesParametric,11,59.6676833432,
./stim/MorphF7_07_orig.jpg,1,,,,,0,1,1,1,,,,,,,,,,,,,,,,,,,-2.40234375,12.392578125,1,0,0,2.04060792923,,,,,2015_Oct_20_1759,K,facesParametric,11,59.6676833432,
./stim/MorphF9_01_orig.jpg,2,,,,,0,2,2,2,,,,,,,,,,,,,,,,,,,-2.40234375,12.392578125,1,0,0,1.25364518166,,,,,2015_Oct_20_1759,K,facesParametric,11,59.6676833432,
./stim/MorphM6_06_orig.jpg,3,,,,,0,3,3,3,,,,,,,,,,,,,,,,,,,-2.40234375,12.392578125,1,0,0,1.3729839325,,,,,2015_Oct_20_1759,K,facesParametric,11,59.6676833432,
./stim/MorphM4_01_orig.jpg,4,,,,,0,4,4,4,,,,,,,,,,,,,,,,,,,-2.40234375,12.392578125,1,0,0,2.29339909554,,,,,2015_Oct_20_1759,K,facesParametric,11,59.6676833432,
./stim/MorphM5_07_orig.jpg,5,,,,,0,5,5,5,,,,,,,,,,,,,,,,,,,-2.40234375,12.392578125,0,0,1,4.17056822777,,,,,2015_Oct_20_1759,K,facesParametric,11,59.6676833432,
./stim/MorphF1_01_orig.jpg,6,,,,,0,6,6,6,,,,,,,,,,,,,,,,,,,-2.431640625,12.36328125,1,0,0,4.99283409119,,,,,2015_Oct_20_1759,K,facesParametric,11,59.6676833432,
./stim/MorphM9_01_orig.jpg,7,,,,,0,7,7,7,,,,,,,,,,,,,,,,,,,-2.431640625,12.36328125,1,0,0,0.769521951675,,,,,2015_Oct_20_1759,K,facesParametric,11,59.6676833432,
./stim/MorphM7_05_orig.jpg,8,,,,,0,8,8,8,,,,,,,,,,,,,,,,,,,-2.431640625,12.36328125,0,0,1,1.05425691605,,,,,2015_Oct_20_1759,K,facesParametric,11,59.6676833432,
./stim/MorphM6_00_orig.jpg,9,,,,,0,9,9,9,,,,,,,,,,,,,,,,,,,-2.40234375,12.333984375,1,0,0,1.05478906631,,,,,2015_Oct_20_1759,K,facesParametric,11,59.6676833432,
./stim/MorphM7_10_orig.jpg,10,,,,,0,10,10,10,,,,,,,,,,,,,,,,,,,-2.40234375,12.333984375,0,0,1,0.852948904037,,,,,2015_Oct_20_1759,K,facesParametric,11,59.6676833432,
./stim/MorphM10_06_orig.jpg,11,,,,,0,11,11,11,,,,,,,,,,,,,,,,,,,-2.40234375,12.333984375,0,0,1,0.954383134842,,,,,2015_Oct_20_1759,K,facesParametric,11,59.6676833432,
./stim/MorphM2_04_orig.jpg,12,,,,,0,12,12,12,,,,,,,,,,,,,,,,,,,-2.431640625,12.36328125,1,0,0,0.9185359478,,,,,2015_Oct_20_1759,K,facesParametric,11,59.6676833432,
./stim/MorphF1_07_orig.jpg,13,,,,,0,13,13,13,,,,,,,,,,,,,,,,,,,-2.4609375,12.392578125,1,0,0,1.39001512527,,,,,2015_Oct_20_1759,K,facesParametric,11,59.6676833432,
./stim/MorphF7_04_orig.jpg,14,,,,,0,14,14,14,,,,,,,,,,,,,,,,,,,-2.40234375,12.48046875,1,0,0,1.8922829628,,,,,2015_Oct_20_1759,K,facesParametric,11,59.6676833432,
./stim/MorphM3_09_orig.jpg,15,,,,,0,15,15,15,,,,,,,,,,,,,,,,,,,-2.373046875,12.509765625,1,0,0,3.03281903267,,,,,2015_Oct_20_1759,K,facesParametric,11,59.6676833432,
./stim/MorphF1_05_orig.jpg,16,,,,,0,16,16,16,,,,,,,,,,,,,,,,,,,-2.373046875,12.509765625,1,0,0,0.76689696312,,,,,2015_Oct_20_1759,K,facesParametric,11,59.6676833432,
./stim/MorphF5_08_orig.jpg,17,,,,,0,17,17,17,,,,,,,,,,,,,,,,,,,-2.314453125,12.568359375,0,0,1,2.61342191696,,,,,2015_Oct_20_1759,K,facesParametric,11,59.6676833432,
./stim/MorphM9_06_orig.jpg,18,,,,,0,18,18,18,,,,,,,,,,,,,,,,,,,-2.28515625,12.71484375,0,0,1,12.0991489887,,,,,2015_Oct_20_1759,K,facesParametric,11,59.6676833432,
./stim/MorphF10_06_orig.jpg,19,,,,,0,19,19,19,,,,,,,,,,,,,,,,,,,-1.904296875,13.18359375,1,0,0,41.4119188786,,,,,2015_Oct_20_1759,K,facesParametric,11,59.6676833432,
./stim/MorphM10_08_orig.jpg,20,,,,,0,20,20,20,,,,,,,,,,,,,,,,,,,-1.904296875,13.18359375,0,0,1,14.8297801018,,,,,2015_Oct_20_1759,K,facesParametric,11,59.6676833432,
./stim/MorphF3_08_orig.jpg,21,,,,,0,21,21,21,,,,,,,,,,,,,,,,,,,-1.904296875,13.18359375,0,0,1,8.02645206451,,,,,2015_Oct_20_1759,K,facesParametric,11,59.6676833432,
./stim/MorphM9_00_orig.jpg,22,,,,,0,22,22,22,,,,,,,,,,,,,,,,,,,-1.875,13.18359375,1,0,0,4.01985692978,,,,,2015_Oct_20_1759,K,facesParametric,11,59.6676833432,
./stim/MorphM1_10_orig.jpg,23,,,,,0,23,23,23,,,,,,,,,,,,,,,,,,,-1.875,13.18359375,1,0,0,3.5680949688,,,,,2015_Oct_20_1759,K,facesParametric,11,59.6676833432,
./stim/MorphM2_10_orig.jpg,24,,,,,0,24,24,24,,,,,,,,,,,,,,,,,,,6.240234375,8.73046875,0,0,1,39.1825351715,,,,,2015_Oct_20_1759,K,facesParametric,11,59.6676833432,
./stim/MorphF1_04_orig.jpg,25,,,,,0,25,25,25,,,,,,,,,,,,,,,,,,,6.181640625,8.642578125,1,0,0,3.31437206268,,,,,2015_Oct_20_1759,K,facesParametric,11,59.6676833432,
./stim/MorphM8_01_orig.jpg,26,,,,,0,26,26,26,,,,,,,,,,,,,,,,,,,6.181640625,8.642578125,1,0,0,7.25548911095,,,,,2015_Oct_20_1759,K,facesParametric,11,59.6676833432,
./stim/MorphF4_00_orig.jpg,27,,,,,0,27,27,27,,,,,,,,,,,,,,,,,,,6.181640625,8.642578125,1,0,0,0.836499929428,,,,,2015_Oct_20_1759,K,facesParametric,11,59.6676833432,
./stim/MorphF2_07_orig.jpg,28,,,,,0,28,28,28,,,,,,,,,,,,,,,,,,,5.947265625,8.96484375,0,0,1,5.27783298492,,,,,2015_Oct_20_1759,K,facesParametric,11,59.6676833432,
./stim/MorphF6_06_orig.jpg,29,,,,,0,29,29,29,,,,,,,,,,,,,,,,,,,5.830078125,8.96484375,0,0,1,4.17178297043,,,,,2015_Oct_20_1759,K,facesParametric,11,59.6676833432,
./stim/MorphF4_06_orig.jpg,30,,,,,0,30,30,30,,,,,,,,,,,,,,,,,,,5.654296875,9.228515625,1,0,0,1.90937519073,,,,,2015_Oct_20_1759,K,facesParametric,11,59.6676833432,
./stim/MorphF8_10_orig.jpg,31,,,,,0,31,31,31,,,,,,,,,,,,,,,,,,,6.123046875,10.6640625,1,0,0,25.9417009354,,,,,2015_Oct_20_1759,K,facesParametric,11,59.6676833432,
./stim/MorphF7_03_orig.jpg,32,,,,,0,32,32,32,,,,,,,,,,,,,,,,,,,6.123046875,10.6640625,1,0,0,1.22233200073,,,,,2015_Oct_20_1759,K,facesParametric,11,59.6676833432,
./stim/MorphM4_09_orig.jpg,33,,,,,0,33,33,33,,,,,,,,,,,,,,,,,,,6.123046875,10.6640625,0,0,1,1.00290107727,,,,,2015_Oct_20_1759,K,facesParametric,11,59.6676833432,
./stim/MorphM1_09_orig.jpg,34,,,,,0,34,34,34,,,,,,,,,,,,,,,,,,,6.005859375,10.751953125,0,0,1,11.6973350048,,,,,2015_Oct_20_1759,K,facesParametric,11,59.6676833432,
./stim/MorphM8_02_orig.jpg,35,,,,,0,35,35,35,,,,,,,,,,,,,,,,,,,6.005859375,10.751953125,1,0,0,0.95187997818,,,,,2015_Oct_20_1759,K,facesParametric,11,59.6676833432,
./stim/MorphF6_05_orig.jpg,36,,,,,0,36,36,36,,,,,,,,,,,,,,,,,,,6.005859375,10.78125,1,0,0,2.68022799492,,,,,2015_Oct_20_1759,K,facesParametric,11,59.6676833432,
./stim/MorphM6_01_orig.jpg,37,,,,,0,37,37,37,,,,,,,,,,,,,,,,,,,6.005859375,10.78125,1,0,0,1.40668106079,,,,,2015_Oct_20_1759,K,facesParametric,11,59.6676833432,
./stim/MorphF9_02_orig.jpg,38,,,,,0,38,38,38,,,,,,,,,,,,,,,,,,,9.9609375,10.37109375,1,0,0,8.64660477638,,,,,2015_Oct_20_1759,K,facesParametric,11,59.6676833432,
./stim/MorphF6_09_orig.jpg,39,,,,,0,39,39,39,,,,,,,,,,,,,,,,,,,9.7265625,10.283203125,0,0,1,7.22195506096,,,,,2015_Oct_20_1759,K,facesParametric,11,59.6676833432,
./stim/MorphM6_09_orig.jpg,40,,,,,0,40,40,40,,,,,,,,,,,,,,,,,,,9.638671875,10.25390625,1,0,0,2.24324297905,,,,,2015_Oct_20_1759,K,facesParametric,11,59.6676833432,
./stim/MorphF7_08_orig.jpg,41,,,,,0,41,41,41,,,,,,,,,,,,,,,,,,,9.521484375,10.25390625,0,0,1,15.2841620445,,,,,2015_Oct_20_1759,K,facesParametric,11,59.6676833432,
./stim/MorphM9_05_orig.jpg,42,,,,,0,42,42,42,,,,,,,,,,,,,,,,,,,9.345703125,10.1953125,1,0,0,5.04087400436,,,,,2015_Oct_20_1759,K,facesParametric,11,59.6676833432,
./stim/MorphF3_09_orig.jpg,43,,,,,0,43,43,43,,,,,,,,,,,,,,,,,,,9.31640625,10.224609375,0,0,1,3.06585001945,,,,,2015_Oct_20_1759,K,facesParametric,11,59.6676833432,
./stim/MorphF8_07_orig.jpg,44,,,,,0,44,44,44,,,,,,,,,,,,,,,,,,,9.228515625,10.224609375,1,0,0,3.04891109467,,,,,2015_Oct_20_1759,K,facesParametric,11,59.6676833432,
./stim/MorphM2_03_orig.jpg,45,,,,,0,45,45,45,,,,,,,,,,,,,,,,,,,9.228515625,10.224609375,1,0,0,0.851917982101,,,,,2015_Oct_20_1759,K,facesParametric,11,59.6676833432,
./stim/MorphF2_00_orig.jpg,46,,,,,0,46,46,46,,,,,,,,,,,,,,,,,,,9.228515625,10.283203125,1,0,0,3.48306798935,,,,,2015_Oct_20_1759,K,facesParametric,11,59.6676833432,
./stim/MorphM1_01_orig.jpg,47,,,,,0,47,47,47,,,,,,,,,,,,,,,,,,,9.169921875,10.341796875,1,0,0,2.86481595039,,,,,2015_Oct_20_1759,K,facesParametric,11,59.6676833432,
./stim/MorphM10_02_orig.jpg,48,,,,,0,48,48,48,,,,,,,,,,,,,,,,,,,9.169921875,10.341796875,1,0,0,0.970955848694,,,,,2015_Oct_20_1759,K,facesParametric,11,59.6676833432,
./stim/MorphF10_02_orig.jpg,49,,,,,0,49,49,49,,,,,,,,,,,,,,,,,,,9.111328125,10.341796875,1,0,0,1.84167289734,,,,,2015_Oct_20_1759,K,facesParametric,11,59.6676833432,
./stim/MorphM1_03_orig.jpg,50,,,,,0,50,50,50,,,,,,,,,,,,,,,,,,,9.0234375,10.341796875,1,0,0,10.3562839031,,,,,2015_Oct_20_1759,K,facesParametric,11,59.6676833432,
./stim/MorphF1_03_orig.jpg,51,,,,,0,51,51,51,,,,,,,,,,,,,,,,,,,8.876953125,10.95703125,1,0,0,16.2540700436,,,,,2015_Oct_20_1759,K,facesParametric,11,59.6676833432,
./stim/MorphM8_03_orig.jpg,52,,,,,0,52,52,52,,,,,,,,,,,,,,,,,,,8.876953125,10.95703125,1,0,0,3.13272094727,,,,,2015_Oct_20_1759,K,facesParametric,11,59.6676833432,
./stim/MorphF2_01_orig.jpg,53,,,,,0,53,53,53,,,,,,,,,,,,,,,,,,,11.19140625,13.18359375,1,0,0,6.18219685555,,,,,2015_Oct_20_1759,K,facesParametric,11,59.6676833432,
./stim/MorphF9_06_orig.jpg,54,,,,,0,54,54,54,,,,,,,,,,,,,,,,,,,10.48828125,13.06640625,0,0,1,3.9700551033,,,,,2015_Oct_20_1759,K,facesParametric,11,59.6676833432,
./stim/MorphF10_09_orig.jpg,55,,,,,0,55,55,55,,,,,,,,,,,,,,,,,,,9.755859375,13.0078125,0,0,1,0.818647146225,,,,,2015_Oct_20_1759,K,facesParametric,11,59.6676833432,
./stim/MorphM1_07_orig.jpg,56,,,,,0,56,56,56,,,,,,,,,,,,,,,,,,,9.66796875,13.095703125,0,0,1,4.13798093796,,,,,2015_Oct_20_1759,K,facesParametric,11,59.6676833432,
./stim/MorphM8_04_orig.jpg,57,,,,,0,57,57,57,,,,,,,,,,,,,,,,,,,9.66796875,13.095703125,1,0,0,2.15919685364,,,,,2015_Oct_20_1759,K,facesParametric,11,59.6676833432,
./stim/MorphM7_07_orig.jpg,58,,,,,0,58,58,58,,,,,,,,,,,,,,,,,,,9.66796875,13.095703125,0,0,1,0.819944858551,,,,,2015_Oct_20_1759,K,facesParametric,11,59.6676833432,
./stim/MorphM1_06_orig.jpg,59,,,,,0,59,59,59,,,,,,,,,,,,,,,,,,,9.66796875,13.095703125,0,0,1,3.73537397385,,,,,2015_Oct_20_1759,K,facesParametric,11,59.6676833432,
./stim/MorphF9_10_orig.jpg,60,,,,,0,60,60,60,,,,,,,,,,,,,,,,,,,9.66796875,13.095703125,0,0,1,1.02142000198,,,,,2015_Oct_20_1759,K,facesParametric,11,59.6676833432,
./stim/MorphF3_03_orig.jpg,61,,,,,0,61,61,61,,,,,,,,,,,,,,,,,,,9.638671875,13.06640625,1,0,0,1.79074406624,,,,,2015_Oct_20_1759,K,facesParametric,11,59.6676833432,
./stim/MorphM9_04_orig.jpg,62,,,,,0,62,62,62,,,,,,,,,,,,,,,,,,,9.55078125,13.06640625,1,0,0,12.4848439693,,,,,2015_Oct_20_1759,K,facesParametric,11,59.6676833432,
./stim/MorphF8_09_orig.jpg,63,,,,,0,63,63,63,,,,,,,,,,,,,,,,,,,9.521484375,13.06640625,0,0,1,1.00447392464,,,,,2015_Oct_20_1759,K,facesParametric,11,59.6676833432,
./stim/MorphM3_06_orig.jpg,64,,,,,0,64,64,64,,,,,,,,,,,,,,,,,,,9.0234375,12.861328125,1,0,0,24.4001078606,,,,,2015_Oct_20_1759,K,facesParametric,11,59.6676833432,
./stim/MorphM5_01_orig.jpg,65,,,,,0,65,65,65,,,,,,,,,,,,,,,,,,,9.0234375,12.861328125,1,0,0,3.09956002235,,,,,2015_Oct_20_1759,K,facesParametric,11,59.6676833432,
./stim/MorphM4_08_orig.jpg,66,,,,,0,66,66,66,,,,,,,,,,,,,,,,,,,9.0234375,12.861328125,0,0,1,0.936800003052,,,,,2015_Oct_20_1759,K,facesParametric,11,59.6676833432,
./stim/MorphF8_01_orig.jpg,67,,,,,0,67,67,67,,,,,,,,,,,,,,,,,,,8.935546875,12.83203125,1,0,0,1.60768508911,,,,,2015_Oct_20_1759,K,facesParametric,11,59.6676833432,
./stim/MorphM4_03_orig.jpg,68,,,,,0,68,68,68,,,,,,,,,,,,,,,,,,,8.935546875,12.83203125,1,0,0,1.05453300476,,,,,2015_Oct_20_1759,K,facesParametric,11,59.6676833432,
./stim/MorphM7_06_orig.jpg,69,,,,,0,69,69,69,,,,,,,,,,,,,,,,,,,8.935546875,12.83203125,0,0,1,0.80321598053,,,,,2015_Oct_20_1759,K,facesParametric,11,59.6676833432,
./stim/MorphF10_03_orig.jpg,70,,,,,0,70,70,70,,,,,,,,,,,,,,,,,,,9.0234375,12.861328125,1,0,0,12.4679419994,,,,,2015_Oct_20_1759,K,facesParametric,11,59.6676833432,
./stim/MorphM3_07_orig.jpg,71,,,,,0,71,71,71,,,,,,,,,,,,,,,,,,,8.876953125,12.94921875,0,0,1,21.9187688828,,,,,2015_Oct_20_1759,K,facesParametric,11,59.6676833432,
./stim/MorphF5_10_orig.jpg,72,,,,,0,72,72,72,,,,,,,,,,,,,,,,,,,8.818359375,12.94921875,0,0,1,1.97649383545,,,,,2015_Oct_20_1759,K,facesParametric,11,59.6676833432,
./stim/MorphF9_07_orig.jpg,73,,,,,0,73,73,73,,,,,,,,,,,,,,,,,,,8.73046875,13.037109375,0,0,1,3.83634996414,,,,,2015_Oct_20_1759,K,facesParametric,11,59.6676833432,
./stim/MorphM7_03_orig.jpg,74,,,,,0,74,74,74,,,,,,,,,,,,,,,,,,,8.73046875,13.037109375,0,0,1,0.972053050995,,,,,2015_Oct_20_1759,K,facesParametric,11,59.6676833432,
./stim/MorphF8_06_orig.jpg,75,,,,,0,75,75,75,,,,,,,,,,,,,,,,,,,8.701171875,13.06640625,1,0,0,1.35487389565,,,,,2015_Oct_20_1759,K,facesParametric,11,59.6676833432,
./stim/MorphF10_01_orig.jpg,76,,,,,0,76,76,76,,,,,,,,,,,,,,,,,,,8.701171875,13.06640625,1,0,0,1.70841884613,,,,,2015_Oct_20_1759,K,facesParametric,11,59.6676833432,
./stim/MorphF8_08_orig.jpg,77,,,,,0,77,77,77,,,,,,,,,,,,,,,,,,,8.701171875,13.06640625,1,0,0,1.5070848465,,,,,2015_Oct_20_1759,K,facesParametric,11,59.6676833432,
./stim/MorphM10_05_orig.jpg,78,,,,,0,78,78,78,,,,,,,,,,,,,,,,,,,8.701171875,13.06640625,0,0,1,1.05480289459,,,,,2015_Oct_20_1759,K,facesParametric,11,59.6676833432,
./stim/MorphM9_07_orig.jpg,79,,,,,0,79,79,79,,,,,,,,,,,,,,,,,,,8.701171875,13.06640625,0,0,1,1.92624211311,,,,,2015_Oct_20_1759,K,facesParametric,11,59.6676833432,
./stim/MorphM5_10_orig.jpg,80,,,,,0,80,80,80,,,,,,,,,,,,,,,,,,,8.701171875,13.06640625,0,0,1,0.868704080582,,,,,2015_Oct_20_1759,K,facesParametric,11,59.6676833432,
./stim/MorphM3_10_orig.jpg,81,,,,,0,81,81,81,,,,,,,,,,,,,,,,,,,8.642578125,13.037109375,0,0,1,12.6847939491,,,,,2015_Oct_20_1759,K,facesParametric,11,59.6676833432,
./stim/MorphF5_01_orig.jpg,82,,,,,0,82,82,82,,,,,,,,,,,,,,,,,,,8.642578125,13.037109375,1,0,0,0.970705986023,,,,,2015_Oct_20_1759,K,facesParametric,11,59.6676833432,
./stim/MorphM2_05_orig.jpg,83,,,,,0,83,83,83,,,,,,,,,,,,,,,,,,,8.642578125,13.037109375,1,0,0,5.16110110283,,,,,2015_Oct_20_1759,K,facesParametric,11,59.6676833432,
./stim/MorphM4_04_orig.jpg,84,,,,,0,84,84,84,,,,,,,,,,,,,,,,,,,8.642578125,13.0078125,1,0,0,6.35031509399,,,,,2015_Oct_20_1759,K,facesParametric,11,59.6676833432,
./stim/MorphM10_04_orig.jpg,85,,,,,0,85,85,85,,,,,,,,,,,,,,,,,,,8.642578125,13.0078125,0,0,1,2.11060500145,,,,,2015_Oct_20_1759,K,facesParametric,11,59.6676833432,
./stim/MorphF7_02_orig.jpg,86,,,,,0,86,86,86,,,,,,,,,,,,,,,,,,,8.642578125,13.0078125,1,0,0,1.50447392464,,,,,2015_Oct_20_1759,K,facesParametric,11,59.6676833432,
./stim/MorphM4_05_orig.jpg,87,,,,,0,87,87,87,,,,,,,,,,,,,,,,,,,8.642578125,13.0078125,0,0,1,1.67491602898,,,,,2015_Oct_20_1759,K,facesParametric,11,59.6676833432,
./stim/MorphM2_09_orig.jpg,88,,,,,0,88,88,88,,,,,,,,,,,,,,,,,,,8.37890625,13.06640625,0,0,1,16.4064080715,,,,,2015_Oct_20_1759,K,facesParametric,11,59.6676833432,
./stim/MorphF5_02_orig.jpg,89,,,,,0,89,89,89,,,,,,,,,,,,,,,,,,,7.763671875,13.18359375,1,0,0,22.6073429585,,,,,2015_Oct_20_1759,K,facesParametric,11,59.6676833432,
./stim/MorphM10_01_orig.jpg,90,,,,,0,90,90,90,,,,,,,,,,,,,,,,,,,7.236328125,13.154296875,1,0,0,18.434992075,,,,,2015_Oct_20_1759,K,facesParametric,11,59.6676833432,
./stim/MorphF4_03_orig.jpg,91,,,,,0,91,91,91,,,,,,,,,,,,,,,,,,,7.20703125,13.125,1,0,0,1.12117385864,,,,,2015_Oct_20_1759,K,facesParametric,11,59.6676833432,
./stim/MorphF3_00_orig.jpg,92,,,,,0,92,92,92,,,,,,,,,,,,,,,,,,,7.8515625,12.59765625,1,0,0,13.8582620621,,,,,2015_Oct_20_1759,K,facesParametric,11,59.6676833432,
./stim/MorphF6_03_orig.jpg,93,,,,,0,93,93,93,,,,,,,,,,,,,,,,,,,7.705078125,12.59765625,0,0,1,1.63907814026,,,,,2015_Oct_20_1759,K,facesParametric,11,59.6676833432,
./stim/MorphF7_05_orig.jpg,94,,,,,0,94,94,94,,,,,,,,,,,,,,,,,,,7.705078125,12.59765625,0,0,1,3.50219392776,,,,,2015_Oct_20_1759,K,facesParametric,11,59.6676833432,
./stim/MorphF9_04_orig.jpg,95,,,,,0,95,95,95,,,,,,,,,,,,,,,,,,,-1.11328125,11.748046875,1,0,0,67.8581321239,,,,,2015_Oct_20_1759,K,facesParametric,11,59.6676833432,
./stim/MorphM7_02_orig.jpg,96,,,,,0,96,96,96,,,,,,,,,,,,,,,,,,,-1.2890625,11.8359375,1,0,0,20.3953649998,,,,,2015_Oct_20_1759,K,facesParametric,11,59.6676833432,
./stim/MorphF5_09_orig.jpg,97,,,,,0,97,97,97,,,,,,,,,,,,,,,,,,,-1.2890625,11.8359375,0,0,1,0.971111059189,,,,,2015_Oct_20_1759,K,facesParametric,11,59.6676833432,
./stim/MorphF1_10_orig.jpg,98,,,,,0,98,98,98,,,,,,,,,,,,,,,,,,,-1.259765625,11.806640625,0,0,1,2.61330795288,,,,,2015_Oct_20_1759,K,facesParametric,11,59.6676833432,
./stim/MorphM5_05_orig.jpg,99,,,,,0,99,99,99,,,,,,,,,,,,,,,,,,,-1.23046875,11.806640625,0,0,1,3.40082502365,,,,,2015_Oct_20_1759,K,facesParametric,11,59.6676833432,
./stim/MorphF7_01_orig.jpg,100,,,,,0,100,100,100,,,,,,,,,,,,,,,,,,,-1.23046875,11.806640625,1,0,0,1.23873901367,,,,,2015_Oct_20_1759,K,facesParametric,11,59.6676833432,
./stim/MorphF2_09_orig.jpg,101,,,,,0,101,101,101,,,,,,,,,,,,,,,,,,,-1.23046875,11.806640625,0,0,1,1.00512695312,,,,,2015_Oct_20_1759,K,facesParametric,11,59.6676833432,
./stim/MorphM3_05_orig.jpg,102,,,,,0,102,102,102,,,,,,,,,,,,,,,,,,,-1.728515625,4.86328125,1,0,0,12.9849681854,,,,,2015_Oct_20_1759,K,facesParametric,11,59.6676833432,
./stim/MorphM5_00_orig.jpg,103,,,,,0,103,103,103,,,,,,,,,,,,,,,,,,,-1.7578125,4.86328125,1,0,0,3.76994299889,,,,,2015_Oct_20_1759,K,facesParametric,11,59.6676833432,
./stim/MorphF3_06_orig.jpg,104,,,,,0,104,104,104,,,,,,,,,,,,,,,,,,,-1.7578125,4.86328125,0,0,1,2.29296517372,,,,,2015_Oct_20_1759,K,facesParametric,11,59.6676833432,
./stim/MorphF2_03_orig.jpg,105,,,,,0,105,105,105,,,,,,,,,,,,,,,,,,,-4.921875,4.189453125,0,0,1,15.3656270504,,,,,2015_Oct_20_1759,K,facesParametric,11,59.6676833432,
./stim/MorphF6_02_orig.jpg,106,,,,,0,106,106,106,,,,,,,,,,,,,,,,,,,-5.09765625,4.1015625,1,0,0,2.71369600296,,,,,2015_Oct_20_1759,K,facesParametric,11,59.6676833432,
./stim/MorphF1_09_orig.jpg,107,,,,,0,107,107,107,,,,,,,,,,,,,,,,,,,-5.09765625,4.1015625,0,0,1,1.42268395424,,,,,2015_Oct_20_1759,K,facesParametric,11,59.6676833432,
./stim/MorphM9_10_orig.jpg,108,,,,,0,108,108,108,,,,,,,,,,,,,,,,,,,-5.09765625,4.1015625,0,0,1,0.819176912308,,,,,2015_Oct_20_1759,K,facesParametric,11,59.6676833432,
./stim/MorphF4_01_orig.jpg,109,,,,,0,109,109,109,,,,,,,,,,,,,,,,,,,-5.09765625,4.1015625,1,0,0,1.13796591759,,,,,2015_Oct_20_1759,K,facesParametric,11,59.6676833432,
./stim/MorphF3_07_orig.jpg,110,,,,,0,110,110,110,,,,,,,,,,,,,,,,,,,-5.09765625,4.1015625,0,0,1,1.02254509926,,,,,2015_Oct_20_1759,K,facesParametric,11,59.6676833432,
./stim/MorphM8_10_orig.jpg,111,,,,,0,111,111,111,,,,,,,,,,,,,,,,,,,-5.09765625,4.1015625,0,0,1,1.00341081619,,,,,2015_Oct_20_1759,K,facesParametric,11,59.6676833432,
./stim/MorphM5_06_orig.jpg,112,,,,,0,112,112,112,,,,,,,,,,,,,,,,,,,-5.09765625,4.1015625,0,0,1,3.80310797691,,,,,2015_Oct_20_1759,K,facesParametric,11,59.6676833432,
./stim/MorphF3_04_orig.jpg,113,,,,,0,113,113,113,,,,,,,,,,,,,,,,,,,-5.185546875,4.130859375,1,0,0,13.1045360565,,,,,2015_Oct_20_1759,K,facesParametric,11,59.6676833432,
./stim/MorphM5_02_orig.jpg,114,,,,,0,114,114,114,,,,,,,,,,,,,,,,,,,-5.185546875,4.130859375,1,0,0,2.64651608467,,,,,2015_Oct_20_1759,K,facesParametric,11,59.6676833432,
./stim/MorphF7_00_orig.jpg,115,,,,,0,115,115,115,,,,,,,,,,,,,,,,,,,-5.185546875,4.130859375,1,0,0,4.10256099701,,,,,2015_Oct_20_1759,K,facesParametric,11,59.6676833432,
./stim/MorphM5_08_orig.jpg,116,,,,,0,116,116,116,,,,,,,,,,,,,,,,,,,-5.185546875,4.130859375,0,0,1,0.870626926422,,,,,2015_Oct_20_1759,K,facesParametric,11,59.6676833432,
./stim/MorphF3_05_orig.jpg,117,,,,,0,117,117,117,,,,,,,,,,,,,,,,,,,-5.2734375,4.130859375,1,0,0,11.2108259201,,,,,2015_Oct_20_1759,K,facesParametric,11,59.6676833432,
./stim/MorphM10_07_orig.jpg,118,,,,,0,118,118,118,,,,,,,,,,,,,,,,,,,-5.595703125,4.04296875,0,0,1,0.736308097839,,,,,2015_Oct_20_1759,K,facesParametric,11,59.6676833432,
./stim/MorphF2_05_orig.jpg,119,,,,,0,119,119,119,,,,,,,,,,,,,,,,,,,21.03515625,6.03515625,0,0,1,29.6456661224,,,,,2015_Oct_20_1759,K,facesParametric,11,59.6676833432,
./stim/MorphF8_05_orig.jpg,120,,,,,0,120,120,120,,,,,,,,,,,,,,,,,,,21.005859375,6.005859375,1,0,0,0.986934900284,,,,,2015_Oct_20_1759,K,facesParametric,11,59.6676833432,
./stim/MorphF5_07_orig.jpg,121,,,,,0,121,121,121,,,,,,,,,,,,,,,,,,,21.03515625,6.03515625,0,0,1,1.02014183998,,,,,2015_Oct_20_1759,K,facesParametric,11,59.6676833432,
./stim/MorphM5_04_orig.jpg,122,,,,,0,122,122,122,,,,,,,,,,,,,,,,,,,20.771484375,5.91796875,0,0,1,2.31178998947,,,,,2015_Oct_20_1759,K,facesParametric,11,59.6676833432,
./stim/MorphM2_08_orig.jpg,123,,,,,0,123,123,123,,,,,,,,,,,,,,,,,,,20.478515625,5.888671875,0,0,1,2.07638406754,,,,,2015_Oct_20_1759,K,facesParametric,11,59.6676833432,
./stim/MorphM7_01_orig.jpg,124,,,,,0,124,124,124,,,,,,,,,,,,,,,,,,,20.15625,5.712890625,1,0,0,7.33913993835,,,,,2015_Oct_20_1759,K,facesParametric,11,59.6676833432,
./stim/MorphF5_04_orig.jpg,125,,,,,0,125,125,125,,,,,,,,,,,,,,,,,,,20.126953125,5.712890625,1,0,0,3.78635597229,,,,,2015_Oct_20_1759,K,facesParametric,11,59.6676833432,
./stim/MorphF6_08_orig.jpg,126,,,,,0,126,126,126,,,,,,,,,,,,,,,,,,,20.126953125,5.712890625,0,0,1,1.23950791359,,,,,2015_Oct_20_1759,K,facesParametric,11,59.6676833432,
./stim/MorphM10_00_orig.jpg,127,,,,,0,127,127,127,,,,,,,,,,,,,,,,,,,20.068359375,5.654296875,1,0,0,1.47337913513,,,,,2015_Oct_20_1759,K,facesParametric,11,59.6676833432,
./stim/MorphF5_06_orig.jpg,128,,,,,0,128,128,128,,,,,,,,,,,,,,,,,,,20.068359375,5.654296875,0,0,1,3.66919803619,,,,,2015_Oct_20_1759,K,facesParametric,11,59.6676833432,
./stim/MorphM4_02_orig.jpg,129,,,,,0,129,129,129,,,,,,,,,,,,,,,,,,,20.068359375,5.654296875,1,0,0,4.53992605209,,,,,2015_Oct_20_1759,K,facesParametric,11,59.6676833432,
./stim/MorphF1_08_orig.jpg,130,,,,,0,130,130,130,,,,,,,,,,,,,,,,,,,20.068359375,5.654296875,0,0,1,2.27795696259,,,,,2015_Oct_20_1759,K,facesParametric,11,59.6676833432,
./stim/MorphF9_09_orig.jpg,131,,,,,0,131,131,131,,,,,,,,,,,,,,,,,,,20.068359375,5.654296875,0,0,1,0.834745883942,,,,,2015_Oct_20_1759,K,facesParametric,11,59.6676833432,
./stim/MorphF2_04_orig.jpg,132,,,,,0,132,132,132,,,,,,,,,,,,,,,,,,,19.98046875,5.712890625,0,0,1,11.0436778069,,,,,2015_Oct_20_1759,K,facesParametric,11,59.6676833432,
./stim/MorphF10_04_orig.jpg,133,,,,,0,133,133,133,,,,,,,,,,,,,,,,,,,19.951171875,5.712890625,1,0,0,2.09359383583,,,,,2015_Oct_20_1759,K,facesParametric,11,59.6676833432,
./stim/MorphM8_06_orig.jpg,134,,,,,0,134,134,134,,,,,,,,,,,,,,,,,,,19.951171875,5.712890625,1,0,0,2.14372491837,,,,,2015_Oct_20_1759,K,facesParametric,11,59.6676833432,
./stim/MorphF8_02_orig.jpg,135,,,,,0,135,135,135,,,,,,,,,,,,,,,,,,,19.951171875,5.712890625,1,0,0,0.936558961868,,,,,2015_Oct_20_1759,K,facesParametric,11,59.6676833432,
./stim/MorphM1_00_orig.jpg,136,,,,,0,136,136,136,,,,,,,,,,,,,,,,,,,19.951171875,5.712890625,1,0,0,1.49022388458,,,,,2015_Oct_20_1759,K,facesParametric,11,59.6676833432,
./stim/MorphM7_00_orig.jpg,137,,,,,0,137,137,137,,,,,,,,,,,,,,,,,,,19.892578125,5.654296875,0,0,1,4.84233999252,,,,,2015_Oct_20_1759,K,facesParametric,11,59.6676833432,
./stim/MorphF10_10_orig.jpg,138,,,,,0,138,138,138,,,,,,,,,,,,,,,,,,,19.892578125,5.654296875,0,0,1,0.802711009979,,,,,2015_Oct_20_1759,K,facesParametric,11,59.6676833432,
./stim/MorphF4_08_orig.jpg,139,,,,,0,139,139,139,,,,,,,,,,,,,,,,,,,19.892578125,5.654296875,0,0,1,1.59072709084,,,,,2015_Oct_20_1759,K,facesParametric,11,59.6676833432,
./stim/MorphM2_06_orig.jpg,140,,,,,0,140,140,140,,,,,,,,,,,,,,,,,,,19.892578125,5.654296875,1,0,0,4.42366290092,,,,,2015_Oct_20_1759,K,facesParametric,11,59.6676833432,
./stim/MorphF1_06_orig.jpg,141,,,,,0,141,141,141,,,,,,,,,,,,,,,,,,,19.892578125,5.654296875,1,0,0,4.85897088051,,,,,2015_Oct_20_1759,K,facesParametric,11,59.6676833432,
./stim/MorphM9_02_orig.jpg,142,,,,,0,142,142,142,,,,,,,,,,,,,,,,,,,19.86328125,5.654296875,1,0,0,3.50149798393,,,,,2015_Oct_20_1759,K,facesParametric,11,59.6676833432,
./stim/MorphF8_00_orig.jpg,143,,,,,0,143,143,143,,,,,,,,,,,,,,,,,,,19.86328125,5.654296875,1,0,0,0.719279050827,,,,,2015_Oct_20_1759,K,facesParametric,11,59.6676833432,
./stim/MorphF1_02_orig.jpg,144,,,,,0,144,144,144,,,,,,,,,,,,,,,,,,,19.306640625,5.15625,1,0,0,7.05429196358,,,,,2015_Oct_20_1759,K,facesParametric,11,59.6676833432,
./stim/MorphM6_03_orig.jpg,145,,,,,0,145,145,145,,,,,,,,,,,,,,,,,,,19.21875,5.09765625,1,0,0,2.84835600853,,,,,2015_Oct_20_1759,K,facesParametric,11,59.6676833432,
./stim/MorphM7_08_orig.jpg,146,,,,,0,146,146,146,,,,,,,,,,,,,,,,,,,19.21875,5.09765625,0,0,1,0.903454065323,,,,,2015_Oct_20_1759,K,facesParametric,11,59.6676833432,
./stim/MorphM6_05_orig.jpg,147,,,,,0,147,147,147,,,,,,,,,,,,,,,,,,,20.5078125,5.771484375,1,0,0,22.2208471298,,,,,2015_Oct_20_1759,K,facesParametric,11,59.6676833432,
./stim/MorphF7_10_orig.jpg,148,,,,,0,148,148,148,,,,,,,,,,,,,,,,,,,20.595703125,5.830078125,0,0,1,0.735380887985,,,,,2015_Oct_20_1759,K,facesParametric,11,59.6676833432,
./stim/MorphM9_09_orig.jpg,149,,,,,0,149,149,149,,,,,,,,,,,,,,,,,,,20.625,5.830078125,0,0,1,1.10495615005,,,,,2015_Oct_20_1759,K,facesParametric,11,59.6676833432,
./stim/MorphF9_00_orig.jpg,150,,,,,0,150,150,150,,,,,,,,,,,,,,,,,,,20.654296875,5.80078125,1,0,0,1.03757882118,,,,,2015_Oct_20_1759,K,facesParametric,11,59.6676833432,
./stim/MorphM7_09_orig.jpg,151,,,,,0,151,151,151,,,,,,,,,,,,,,,,,,,20.654296875,5.80078125,0,0,1,0.786651134491,,,,,2015_Oct_20_1759,K,facesParametric,11,59.6676833432,
./stim/MorphM3_02_orig.jpg,152,,,,,0,152,152,152,,,,,,,,,,,,,,,,,,,20.625,5.830078125,1,0,0,1.80838894844,,,,,2015_Oct_20_1759,K,facesParametric,11,59.6676833432,
./stim/MorphM5_03_orig.jpg,153,,,,,0,153,153,153,,,,,,,,,,,,,,,,,,,20.625,5.830078125,0,0,1,1.38857007027,,,,,2015_Oct_20_1759,K,facesParametric,11,59.6676833432,
./stim/MorphM3_03_orig.jpg,154,,,,,0,154,154,154,,,,,,,,,,,,,,,,,,,20.625,5.830078125,1,0,0,1.65790915489,,,,,2015_Oct_20_1759,K,facesParametric,11,59.6676833432,
./stim/MorphF4_04_orig.jpg,155,,,,,0,155,155,155,,,,,,,,,,,,,,,,,,,20.654296875,5.859375,1,0,0,1.57430696487,,,,,2015_Oct_20_1759,K,facesParametric,11,59.6676833432,
./stim/MorphF2_08_orig.jpg,156,,,,,0,156,156,156,,,,,,,,,,,,,,,,,,,20.654296875,5.859375,0,0,1,0.85271191597,,,,,2015_Oct_20_1759,K,facesParametric,11,59.6676833432,
./stim/MorphM4_10_orig.jpg,157,,,,,0,157,157,157,,,,,,,,,,,,,,,,,,,20.654296875,5.888671875,0,0,1,3.06531095505,,,,,2015_Oct_20_1759,K,facesParametric,11,59.6676833432,
./stim/MorphF9_05_orig.jpg,158,,,,,0,158,158,158,,,,,,,,,,,,,,,,,,,20.595703125,5.859375,1,0,0,3.09674406052,,,,,2015_Oct_20_1759,K,facesParametric,11,59.6676833432,
./stim/MorphF10_00_orig.jpg,159,,,,,0,159,159,159,,,,,,,,,,,,,,,,,,,20.595703125,5.859375,1,0,0,0.735845088959,,,,,2015_Oct_20_1759,K,facesParametric,11,59.6676833432,
./stim/MorphF6_00_orig.jpg,160,,,,,0,160,160,160,,,,,,,,,,,,,,,,,,,20.595703125,5.859375,1,0,0,0.753420114517,,,,,2015_Oct_20_1759,K,facesParametric,11,59.6676833432,
./stim/MorphM4_06_orig.jpg,161,,,,,0,161,161,161,,,,,,,,,,,,,,,,,,,20.595703125,5.859375,0,0,1,1.12009906769,,,,,2015_Oct_20_1759,K,facesParametric,11,59.6676833432,
./stim/MorphF10_08_orig.jpg,162,,,,,0,162,162,162,,,,,,,,,,,,,,,,,,,20.595703125,5.859375,0,0,1,0.652370929718,,,,,2015_Oct_20_1759,K,facesParametric,11,59.6676833432,
./stim/MorphF6_01_orig.jpg,163,,,,,0,163,163,163,,,,,,,,,,,,,,,,,,,20.595703125,5.859375,1,0,0,1.72336292267,,,,,2015_Oct_20_1759,K,facesParametric,11,59.6676833432,
./stim/MorphM2_02_orig.jpg,164,,,,,0,164,164,164,,,,,,,,,,,,,,,,,,,20.595703125,5.859375,1,0,0,1.05470204353,,,,,2015_Oct_20_1759,K,facesParametric,11,59.6676833432,
./stim/MorphF9_03_orig.jpg,165,,,,,0,165,165,165,,,,,,,,,,,,,,,,,,,20.595703125,5.859375,1,0,0,1.6081058979,,,,,2015_Oct_20_1759,K,facesParametric,11,59.6676833432,
./stim/MorphM1_04_orig.jpg,166,,,,,0,166,166,166,,,,,,,,,,,,,,,,,,,20.68359375,6.298828125,1,0,0,17.7450509071,,,,,2015_Oct_20_1759,K,facesParametric,11,59.6676833432,
./stim/MorphF6_04_orig.jpg,167,,,,,0,167,167,167,,,,,,,,,,,,,,,,,,,20.654296875,6.533203125,0,0,1,8.56199097633,,,,,2015_Oct_20_1759,K,facesParametric,11,59.6676833432,
./stim/MorphF1_00_orig.jpg,168,,,,,0,168,168,168,,,,,,,,,,,,,,,,,,,19.921875,6.416015625,1,0,0,2.32739591599,,,,,2015_Oct_20_1759,K,facesParametric,11,59.6676833432,
./stim/MorphM10_03_orig.jpg,169,,,,,0,169,169,169,,,,,,,,,,,,,,,,,,,19.365234375,6.26953125,1,0,0,8.84753394127,,,,,2015_Oct_20_1759,K,facesParametric,11,59.6676833432,
./stim/MorphM8_05_orig.jpg,170,,,,,0,170,170,170,,,,,,,,,,,,,,,,,,,18.955078125,6.03515625,0,0,1,8.46249318123,,,,,2015_Oct_20_1759,K,facesParametric,11,59.6676833432,
./stim/MorphF4_09_orig.jpg,171,,,,,0,171,171,171,,,,,,,,,,,,,,,,,,,18.92578125,6.005859375,0,0,1,1.44035482407,,,,,2015_Oct_20_1759,K,facesParametric,11,59.6676833432,
./stim/MorphF2_06_orig.jpg,172,,,,,0,172,172,172,,,,,,,,,,,,,,,,,,,22.060546875,12.744140625,0,0,1,23.7128989697,,,,,2015_Oct_20_1759,K,facesParametric,11,59.6676833432,
./stim/MorphM10_10_orig.jpg,173,,,,,0,173,173,173,,,,,,,,,,,,,,,,,,,22.060546875,12.744140625,0,0,1,0.786115884781,,,,,2015_Oct_20_1759,K,facesParametric,11,59.6676833432,
./stim/MorphM1_02_orig.jpg,174,,,,,0,174,174,174,,,,,,,,,,,,,,,,,,,21.884765625,12.65625,1,0,0,8.36155796051,,,,,2015_Oct_20_1759,K,facesParametric,11,59.6676833432,
./stim/MorphM9_08_orig.jpg,175,,,,,0,175,175,175,,,,,,,,,,,,,,,,,,,21.884765625,12.65625,0,0,1,1.15485501289,,,,,2015_Oct_20_1759,K,facesParametric,11,59.6676833432,
./stim/MorphF7_06_orig.jpg,176,,,,,0,176,176,176,,,,,,,,,,,,,,,,,,,21.884765625,12.65625,1,0,0,1.69253587723,,,,,2015_Oct_20_1759,K,facesParametric,11,59.6676833432,
./stim/MorphM6_02_orig.jpg,177,,,,,0,177,177,177,,,,,,,,,,,,,,,,,,,21.884765625,12.65625,1,0,0,0.86948800087,,,,,2015_Oct_20_1759,K,facesParametric,11,59.6676833432,
./stim/MorphF2_02_orig.jpg,178,,,,,0,178,178,178,,,,,,,,,,,,,,,,,,,21.767578125,12.626953125,1,0,0,4.32296586037,,,,,2015_Oct_20_1759,K,facesParametric,11,59.6676833432,
./stim/MorphF7_09_orig.jpg,179,,,,,0,179,179,179,,,,,,,,,,,,,,,,,,,21.767578125,12.626953125,0,0,1,0.9705119133,,,,,2015_Oct_20_1759,K,facesParametric,11,59.6676833432,
./stim/MorphF6_10_orig.jpg,180,,,,,0,180,180,180,,,,,,,,,,,,,,,,,,,21.767578125,12.626953125,0,0,1,0.970957994461,,,,,2015_Oct_20_1759,K,facesParametric,11,59.6676833432,
./stim/MorphM1_05_orig.jpg,181,,,,,0,181,181,181,,,,,,,,,,,,,,,,,,,21.767578125,12.626953125,1,0,0,3.56842684746,,,,,2015_Oct_20_1759,K,facesParametric,11,59.6676833432,
./stim/MorphF5_00_orig.jpg,182,,,,,0,182,182,182,,,,,,,,,,,,,,,,,,,21.767578125,12.626953125,1,0,0,3.73483800888,,,,,2015_Oct_20_1759,K,facesParametric,11,59.6676833432,
./stim/MorphM5_09_orig.jpg,183,,,,,0,183,183,183,,,,,,,,,,,,,,,,,,,21.796875,12.685546875,0,0,1,1.40655994415,,,,,2015_Oct_20_1759,K,facesParametric,11,59.6676833432,
./stim/MorphM2_01_orig.jpg,184,,,,,0,184,184,184,,,,,,,,,,,,,,,,,,,21.796875,12.685546875,1,0,0,1.13822603226,,,,,2015_Oct_20_1759,K,facesParametric,11,59.6676833432,
./stim/MorphM6_04_orig.jpg,185,,,,,0,185,185,185,,,,,,,,,,,,,,,,,,,21.50390625,12.626953125,1,0,0,15.3170001507,,,,,2015_Oct_20_1759,K,facesParametric,11,59.6676833432,
./stim/MorphM1_08_orig.jpg,186,,,,,0,186,186,186,,,,,,,,,,,,,,,,,,,21.474609375,12.59765625,0,0,1,2.89831900597,,,,,2015_Oct_20_1759,K,facesParametric,11,59.6676833432,
./stim/MorphM3_04_orig.jpg,187,,,,,0,187,187,187,,,,,,,,,,,,,,,,,,,21.123046875,13.18359375,1,0,0,20.7811279297,,,,,2015_Oct_20_1759,K,facesParametric,11,59.6676833432,
./stim/MorphF9_08_orig.jpg,188,,,,,0,188,188,188,,,,,,,,,,,,,,,,,,,21.123046875,13.18359375,0,0,1,6.26654601097,,,,,2015_Oct_20_1759,K,facesParametric,11,59.6676833432,
./stim/MorphM3_01_orig.jpg,189,,,,,0,189,189,189,,,,,,,,,,,,,,,,,,,20.91796875,13.18359375,1,0,0,3.80334091187,,,,,2015_Oct_20_1759,K,facesParametric,11,59.6676833432,
./stim/MorphF3_02_orig.jpg,190,,,,,0,190,190,190,,,,,,,,,,,,,,,,,,,20.91796875,13.18359375,1,0,0,2.57972288132,,,,,2015_Oct_20_1759,K,facesParametric,11,59.6676833432,
./stim/MorphF4_02_orig.jpg,191,,,,,0,191,191,191,,,,,,,,,,,,,,,,,,,20.91796875,13.18359375,1,0,0,2.47905993462,,,,,2015_Oct_20_1759,K,facesParametric,11,59.6676833432,
./stim/MorphM6_08_orig.jpg,192,,,,,0,192,192,192,,,,,,,,,,,,,,,,,,,20.888671875,13.18359375,0,0,1,3.08263611794,,,,,2015_Oct_20_1759,K,facesParametric,11,59.6676833432,
./stim/MorphF4_07_orig.jpg,193,,,,,0,193,193,193,,,,,,,,,,,,,,,,,,,20.888671875,13.18359375,0,0,1,2.12718605995,,,,,2015_Oct_20_1759,K,facesParametric,11,59.6676833432,
./stim/MorphM3_08_orig.jpg,194,,,,,0,194,194,194,,,,,,,,,,,,,,,,,,,-10.83984375,-13.125,0,0,1,53.5304250717,,,,,2015_Oct_20_1759,K,facesParametric,11,59.6676833432,
./stim/MorphF5_05_orig.jpg,195,,,,,0,195,195,195,,,,,,,,,,,,,,,,,,,-10.546875,-13.095703125,0,0,1,32.8301458359,,,,,2015_Oct_20_1759,K,facesParametric,11,59.6676833432,
./stim/MorphM8_08_orig.jpg,196,,,,,0,196,196,196,,,,,,,,,,,,,,,,,,,-10.60546875,-13.095703125,0,0,1,7.97593593597,,,,,2015_Oct_20_1759,K,facesParametric,11,59.6676833432,
./stim/MorphM2_00_orig.jpg,197,,,,,0,197,197,197,,,,,,,,,,,,,,,,,,,-10.751953125,-13.154296875,1,0,0,0.904083967209,,,,,2015_Oct_20_1759,K,facesParametric,11,59.6676833432,
./stim/MorphM9_03_orig.jpg,198,,,,,0,198,198,198,,,,,,,,,,,,,,,,,,,-19.453125,-11.42578125,1,0,0,11.0422041416,,,,,2015_Oct_20_1759,K,facesParametric,11,59.6676833432,
./stim/MorphF8_03_orig.jpg,199,,,,,0,199,199,199,,,,,,,,,,,,,,,,,,,-19.453125,-11.42578125,1,0,0,2.96432209015,,,,,2015_Oct_20_1759,K,facesParametric,11,59.6676833432,
./stim/MorphM8_09_orig.jpg,200,,,,,0,200,200,200,,,,,,,,,,,,,,,,,,,-19.453125,-11.42578125,0,0,1,0.853400945663,,,,,2015_Oct_20_1759,K,facesParametric,11,59.6676833432,
./stim/MorphM6_10_orig.jpg,201,,,,,0,201,201,201,,,,,,,,,,,,,,,,,,,-19.453125,-11.42578125,0,0,1,1.89247894287,,,,,2015_Oct_20_1759,K,facesParametric,11,59.6676833432,
./stim/MorphF5_03_orig.jpg,202,,,,,0,202,202,202,,,,,,,,,,,,,,,,,,,3.251953125,9.84375,1,0,0,8.87992811203,,,,,2015_Oct_20_1759,K,facesParametric,11,59.6676833432,
./stim/MorphF3_01_orig.jpg,203,,,,,0,203,203,203,,,,,,,,,,,,,,,,,,,-18.92578125,9.19921875,1,0,0,43.4568638802,,,,,2015_Oct_20_1759,K,facesParametric,11,59.6676833432,
./stim/MorphF6_07_orig.jpg,204,,,,,0,204,204,204,,,,,,,,,,,,,,,,,,,-18.92578125,9.19921875,0,0,1,0.800868988037,,,,,2015_Oct_20_1759,K,facesParametric,11,59.6676833432,
./stim/MorphF2_10_orig.jpg,205,,,,,0,205,205,205,,,,,,,,,,,,,,,,,,,-18.92578125,9.19921875,0,0,1,0.971105098724,,,,,2015_Oct_20_1759,K,facesParametric,11,59.6676833432,
./stim/MorphM3_00_orig.jpg,206,,,,,0,206,206,206,,,,,,,,,,,,,,,,,,,-18.955078125,9.19921875,1,0,0,4.7592921257,,,,,2015_Oct_20_1759,K,facesParametric,11,59.6676833432,
./stim/MorphM7_04_orig.jpg,207,,,,,0,207,207,207,,,,,,,,,,,,,,,,,,,-18.955078125,9.19921875,0,0,1,0.969978094101,,,,,2015_Oct_20_1759,K,facesParametric,11,59.6676833432,
./stim/MorphF8_04_orig.jpg,208,,,,,0,208,208,208,,,,,,,,,,,,,,,,,,,-18.984375,9.19921875,1,0,0,1.59103608131,,,,,2015_Oct_20_1759,K,facesParametric,11,59.6676833432,
./stim/MorphM8_00_orig.jpg,209,,,,,0,209,209,209,,,,,,,,,,,,,,,,,,,-18.984375,9.19921875,1,0,0,2.36179900169,,,,,2015_Oct_20_1759,K,facesParametric,11,59.6676833432,
./stim/MorphM2_07_orig.jpg,210,,,,,0,210,210,210,,,,,,,,,,,,,,,,,,,-18.984375,9.19921875,0,0,1,2.6123790741,,,,,2015_Oct_20_1759,K,facesParametric,11,59.6676833432,
./stim/MorphF3_10_orig.jpg,211,,,,,0,211,211,211,,,,,,,,,,,,,,,,,,,-18.984375,9.19921875,0,0,1,0.769670009613,,,,,2015_Oct_20_1759,K,facesParametric,11,59.6676833432,
./stim/MorphF10_05_orig.jpg,212,,,,,0,212,212,212,,,,,,,,,,,,,,,,,,,-19.013671875,9.169921875,0,0,1,0.769729137421,,,,,2015_Oct_20_1759,K,facesParametric,11,59.6676833432,
./stim/MorphM4_00_orig.jpg,213,,,,,0,213,213,213,,,,,,,,,,,,,,,,,,,-19.013671875,9.169921875,1,0,0,1.45688509941,,,,,2015_Oct_20_1759,K,facesParametric,11,59.6676833432,
./stim/MorphF10_07_orig.jpg,214,,,,,0,214,214,214,,,,,,,,,,,,,,,,,,,-19.013671875,9.169921875,0,0,1,0.903976202011,,,,,2015_Oct_20_1759,K,facesParametric,11,59.6676833432,
./stim/MorphM6_07_orig.jpg,215,,,,,0,215,215,215,,,,,,,,,,,,,,,,,,,-19.013671875,9.169921875,1,0,0,2.49542403221,,,,,2015_Oct_20_1759,K,facesParametric,11,59.6676833432,
./stim/MorphM4_07_orig.jpg,216,,,,,0,216,216,216,,,,,,,,,,,,,,,,,,,-19.013671875,9.169921875,0,0,1,1.15548396111,,,,,2015_Oct_20_1759,K,facesParametric,11,59.6676833432,
./stim/MorphF4_10_orig.jpg,217,,,,,0,217,217,217,,,,,,,,,,,,,,,,,,,-19.013671875,9.169921875,0,0,1,0.736391067505,,,,,2015_Oct_20_1759,K,facesParametric,11,59.6676833432,
./stim/MorphM8_07_orig.jpg,218,,,,,0,218,218,218,,,,,,,,,,,,,,,,,,,-19.013671875,9.169921875,0,0,1,1.08904314041,,,,,2015_Oct_20_1759,K,facesParametric,11,59.6676833432,
./stim/MorphF4_05_orig.jpg,219,,,,,0,219,219,219,,,,,,,,,,,,,,,,,,,-19.1015625,9.169921875,1,0,0,4.22117805481,,,,,2015_Oct_20_1759,K,facesParametric,11,59.6676833432,
,,,,,,,,,,,,,,,,,,,,,,,,,,,,,,,,,,return,38.2959241867,,,2015_Oct_20_1759,K,facesParametric,11,59.6676833432,
./stim/MorphM8_06_orig.jpg,0,,,,,,,,,0,0,0,0,,,,,,,,,,,,,,,-18.896484375,9.140625,0,0,1,3.49774599075,,,,,2015_Oct_20_1759,K,facesParametric,11,59.6676833432,
./stim/MorphF3_06_orig.jpg,1,,,,,,,,,0,1,1,1,,,,,,,,,,,,,,,-18.837890625,9.19921875,0,0,1,4.72459197044,,,,,2015_Oct_20_1759,K,facesParametric,11,59.6676833432,
./stim/MorphF4_10_orig.jpg,2,,,,,,,,,0,2,2,2,,,,,,,,,,,,,,,-18.837890625,9.19921875,0,0,1,0.717256069183,,,,,2015_Oct_20_1759,K,facesParametric,11,59.6676833432,
./stim/MorphM10_07_orig.jpg,3,,,,,,,,,0,3,3,3,,,,,,,,,,,,,,,-18.80859375,9.228515625,0,0,1,0.719330072403,,,,,2015_Oct_20_1759,K,facesParametric,11,59.6676833432,
./stim/MorphF3_02_orig.jpg,4,,,,,,,,,0,4,4,4,,,,,,,,,,,,,,,-18.837890625,9.287109375,1,0,0,1.33946704865,,,,,2015_Oct_20_1759,K,facesParametric,11,59.6676833432,
./stim/MorphF9_01_orig.jpg,5,,,,,,,,,0,5,5,5,,,,,,,,,,,,,,,-18.837890625,9.287109375,1,0,0,0.953952074051,,,,,2015_Oct_20_1759,K,facesParametric,11,59.6676833432,
./stim/MorphM2_05_orig.jpg,6,,,,,,,,,0,6,6,6,,,,,,,,,,,,,,,-18.837890625,9.287109375,1,0,0,0.769896030426,,,,,2015_Oct_20_1759,K,facesParametric,11,59.6676833432,
./stim/MorphM1_05_orig.jpg,7,,,,,,,,,0,7,7,7,,,,,,,,,,,,,,,-18.837890625,9.287109375,1,0,0,2.69688606262,,,,,2015_Oct_20_1759,K,facesParametric,11,59.6676833432,
./stim/MorphM3_09_orig.jpg,8,,,,,,,,,0,8,8,8,,,,,,,,,,,,,,,-18.8671875,9.31640625,0,0,1,0.937716960907,,,,,2015_Oct_20_1759,K,facesParametric,11,59.6676833432,
./stim/MorphF1_05_orig.jpg,9,,,,,,,,,0,9,9,9,,,,,,,,,,,,,,,-18.955078125,9.19921875,1,0,0,7.27260303497,,,,,2015_Oct_20_1759,K,facesParametric,11,59.6676833432,
./stim/MorphF10_05_orig.jpg,10,,,,,,,,,0,10,10,10,,,,,,,,,,,,,,,-19.04296875,9.111328125,1,0,0,2.77986311913,,,,,2015_Oct_20_1759,K,facesParametric,11,59.6676833432,
./stim/MorphM9_02_orig.jpg,11,,,,,,,,,0,11,11,11,,,,,,,,,,,,,,,-19.04296875,9.111328125,1,0,0,1.33981490135,,,,,2015_Oct_20_1759,K,facesParametric,11,59.6676833432,
./stim/MorphF4_02_orig.jpg,12,,,,,,,,,0,12,12,12,,,,,,,,,,,,,,,-19.04296875,9.111328125,1,0,0,0.87019610405,,,,,2015_Oct_20_1759,K,facesParametric,11,59.6676833432,
./stim/MorphM6_05_orig.jpg,13,,,,,,,,,0,13,13,13,,,,,,,,,,,,,,,-19.013671875,9.0234375,1,0,0,20.6296081543,,,,,2015_Oct_20_1759,K,facesParametric,11,59.6676833432,
./stim/MorphF4_03_orig.jpg,14,,,,,,,,,0,14,14,14,,,,,,,,,,,,,,,-19.04296875,9.375,1,0,0,1.23907184601,,,,,2015_Oct_20_1759,K,facesParametric,11,59.6676833432,
./stim/MorphF9_02_orig.jpg,15,,,,,,,,,0,15,15,15,,,,,,,,,,,,,,,-19.130859375,9.404296875,1,0,0,2.83092808723,,,,,2015_Oct_20_1759,K,facesParametric,11,59.6676833432,
./stim/MorphF1_04_orig.jpg,16,,,,,,,,,0,16,16,16,,,,,,,,,,,,,,,-19.16015625,9.404296875,0,0,1,3.48601412773,,,,,2015_Oct_20_1759,K,facesParametric,11,59.6676833432,
./stim/MorphF9_05_orig.jpg,17,,,,,,,,,0,17,17,17,,,,,,,,,,,,,,,-19.21875,9.375,0,0,1,2.14117908478,,,,,2015_Oct_20_1759,K,facesParametric,11,59.6676833432,
./stim/MorphM8_10_orig.jpg,18,,,,,,,,,0,18,18,18,,,,,,,,,,,,,,,-19.21875,9.375,0,0,1,0.769894838333,,,,,2015_Oct_20_1759,K,facesParametric,11,59.6676833432,
./stim/MorphF6_09_orig.jpg,19,,,,,,,,,0,19,19,19,,,,,,,,,,,,,,,-19.21875,9.375,0,0,1,0.76985502243,,,,,2015_Oct_20_1759,K,facesParametric,11,59.6676833432,
./stim/MorphM8_04_orig.jpg,20,,,,,,,,,0,20,20,20,,,,,,,,,,,,,,,-19.21875,9.375,0,0,1,3.85327410698,,,,,2015_Oct_20_1759,K,facesParametric,11,59.6676833432,
./stim/MorphF3_04_orig.jpg,21,,,,,,,,,0,21,21,21,,,,,,,,,,,,,,,-19.27734375,9.375,1,0,0,1.02141189575,,,,,2015_Oct_20_1759,K,facesParametric,11,59.6676833432,
./stim/MorphM3_06_orig.jpg,22,,,,,,,,,0,22,22,22,,,,,,,,,,,,,,,-19.3359375,9.345703125,0,0,1,1.80714702606,,,,,2015_Oct_20_1759,K,facesParametric,11,59.6676833432,
./stim/MorphF5_02_orig.jpg,23,,,,,,,,,0,23,23,23,,,,,,,,,,,,,,,-19.3359375,9.345703125,1,0,0,1.17180681229,,,,,2015_Oct_20_1759,K,facesParametric,11,59.6676833432,
./stim/MorphM8_01_orig.jpg,24,,,,,,,,,0,24,24,24,,,,,,,,,,,,,,,-19.3359375,9.345703125,1,0,0,2.99827003479,,,,,2015_Oct_20_1759,K,facesParametric,11,59.6676833432,
./stim/MorphF8_04_orig.jpg,25,,,,,,,,,0,25,25,25,,,,,,,,,,,,,,,-19.3359375,9.345703125,1,0,0,0.770402908325,,,,,2015_Oct_20_1759,K,facesParametric,11,59.6676833432,
./stim/MorphF10_07_orig.jpg,26,,,,,,,,,0,26,26,26,,,,,,,,,,,,,,,-19.423828125,9.375,0,0,1,1.07133388519,,,,,2015_Oct_20_1759,K,facesParametric,11,59.6676833432,
./stim/MorphF1_10_orig.jpg,27,,,,,,,,,0,27,27,27,,,,,,,,,,,,,,,-19.423828125,9.375,0,0,1,1.23846411705,,,,,2015_Oct_20_1759,K,facesParametric,11,59.6676833432,
./stim/MorphM9_00_orig.jpg,28,,,,,,,,,0,28,28,28,,,,,,,,,,,,,,,-19.423828125,9.375,1,0,0,1.99355483055,,,,,2015_Oct_20_1759,K,facesParametric,11,59.6676833432,
./stim/MorphF6_01_orig.jpg,29,,,,,,,,,0,29,29,29,,,,,,,,,,,,,,,-19.482421875,9.404296875,1,0,0,1.22200798988,,,,,2015_Oct_20_1759,K,facesParametric,11,59.6676833432,
./stim/MorphF9_00_orig.jpg,30,,,,,,,,,0,30,30,30,,,,,,,,,,,,,,,-19.482421875,9.404296875,1,0,0,0.717142105103,,,,,2015_Oct_20_1759,K,facesParametric,11,59.6676833432,
./stim/MorphM10_01_orig.jpg,31,,,,,,,,,0,31,31,31,,,,,,,,,,,,,,,-19.482421875,9.404296875,1,0,0,1.27247190475,,,,,2015_Oct_20_1759,K,facesParametric,11,59.6676833432,
./stim/MorphF3_05_orig.jpg,32,,,,,,,,,0,32,32,32,,,,,,,,,,,,,,,-19.482421875,9.404296875,0,0,1,4.69169807434,,,,,2015_Oct_20_1759,K,facesParametric,11,59.6676833432,
./stim/MorphM5_02_orig.jpg,33,,,,,,,,,0,33,33,33,,,,,,,,,,,,,,,-19.482421875,9.404296875,1,0,0,3.11441779137,,,,,2015_Oct_20_1759,K,facesParametric,11,59.6676833432,
./stim/MorphM2_02_orig.jpg,34,,,,,,,,,0,34,34,34,,,,,,,,,,,,,,,-19.482421875,9.404296875,1,0,0,2.99930500984,,,,,2015_Oct_20_1759,K,facesParametric,11,59.6676833432,
./stim/MorphF6_07_orig.jpg,35,,,,,,,,,0,35,35,35,,,,,,,,,,,,,,,-19.482421875,9.404296875,0,0,1,1.42276597023,,,,,2015_Oct_20_1759,K,facesParametric,11,59.6676833432,
./stim/MorphF1_07_orig.jpg,36,,,,,,,,,0,36,36,36,,,,,,,,,,,,,,,-19.482421875,9.404296875,0,0,1,1.490639925,,,,,2015_Oct_20_1759,K,facesParametric,11,59.6676833432,
./stim/MorphF5_04_orig.jpg,37,,,,,,,,,0,37,37,37,,,,,,,,,,,,,,,-19.482421875,9.404296875,1,0,0,3.19989705086,,,,,2015_Oct_20_1759,K,facesParametric,11,59.6676833432,
./stim/MorphM4_04_orig.jpg,38,,,,,,,,,0,38,38,38,,,,,,,,,,,,,,,-18.896484375,9.9609375,0,0,1,2.86501193047,,,,,2015_Oct_20_1759,K,facesParametric,11,59.6676833432,
./stim/MorphM3_05_orig.jpg,39,,,,,,,,,0,39,39,39,,,,,,,,,,,,,,,-18.896484375,10.048828125,0,0,1,8.61126995087,,,,,2015_Oct_20_1759,K,facesParametric,11,59.6676833432,
./stim/MorphM6_02_orig.jpg,40,,,,,,,,,0,40,40,40,,,,,,,,,,,,,,,-18.896484375,10.048828125,1,0,0,1.72503185272,,,,,2015_Oct_20_1759,K,facesParametric,11,59.6676833432,
./stim/MorphM10_02_orig.jpg,41,,,,,,,,,0,41,41,41,,,,,,,,,,,,,,,-18.896484375,10.048828125,1,0,0,1.1888730526,,,,,2015_Oct_20_1759,K,facesParametric,11,59.6676833432,
./stim/MorphM5_00_orig.jpg,42,,,,,,,,,0,42,42,42,,,,,,,,,,,,,,,-18.896484375,10.048828125,0,0,1,1.0714840889,,,,,2015_Oct_20_1759,K,facesParametric,11,59.6676833432,
./stim/MorphM2_01_orig.jpg,43,,,,,,,,,0,43,43,43,,,,,,,,,,,,,,,-18.896484375,10.048828125,1,0,0,0.903316020966,,,,,2015_Oct_20_1759,K,facesParametric,11,59.6676833432,
./stim/MorphF2_07_orig.jpg,44,,,,,,,,,0,44,44,44,,,,,,,,,,,,,,,-18.896484375,10.048828125,0,0,1,0.868020057678,,,,,2015_Oct_20_1759,K,facesParametric,11,59.6676833432,
./stim/MorphM3_01_orig.jpg,45,,,,,,,,,0,45,45,45,,,,,,,,,,,,,,,-18.896484375,10.048828125,1,0,0,1.3048081398,,,,,2015_Oct_20_1759,K,facesParametric,11,59.6676833432,
./stim/MorphF7_01_orig.jpg,46,,,,,,,,,0,46,46,46,,,,,,,,,,,,,,,-18.896484375,10.048828125,1,0,0,0.685390949249,,,,,2015_Oct_20_1759,K,facesParametric,11,59.6676833432,
./stim/MorphF3_07_orig.jpg,47,,,,,,,,,0,47,47,47,,,,,,,,,,,,,,,-18.896484375,10.048828125,0,0,1,0.987029075623,,,,,2015_Oct_20_1759,K,facesParametric,11,59.6676833432,
./stim/MorphF7_07_orig.jpg,48,,,,,,,,,0,48,48,48,,,,,,,,,,,,,,,-18.896484375,10.048828125,0,0,1,0.702808141708,,,,,2015_Oct_20_1759,K,facesParametric,11,59.6676833432,
./stim/MorphM2_08_orig.jpg,49,,,,,,,,,0,49,49,49,,,,,,,,,,,,,,,-18.896484375,10.048828125,0,0,1,1.77504992485,,,,,2015_Oct_20_1759,K,facesParametric,11,59.6676833432,
./stim/MorphF5_10_orig.jpg,50,,,,,,,,,0,50,50,50,,,,,,,,,,,,,,,-18.896484375,10.048828125,0,0,1,0.786396980286,,,,,2015_Oct_20_1759,K,facesParametric,11,59.6676833432,
./stim/MorphF2_02_orig.jpg,51,,,,,,,,,0,51,51,51,,,,,,,,,,,,,,,-18.896484375,10.048828125,0,0,1,3.6511080265,,,,,2015_Oct_20_1759,K,facesParametric,11,59.6676833432,
./stim/MorphM6_08_orig.jpg,52,,,,,,,,,0,52,52,52,,,,,,,,,,,,,,,-18.896484375,10.048828125,0,0,1,2.2280728817,,,,,2015_Oct_20_1759,K,facesParametric,11,59.6676833432,
./stim/MorphF5_08_orig.jpg,53,,,,,,,,,0,53,53,53,,,,,,,,,,,,,,,-18.896484375,10.048828125,0,0,1,0.870038986206,,,,,2015_Oct_20_1759,K,facesParametric,11,59.6676833432,
./stim/MorphM10_08_orig.jpg,54,,,,,,,,,0,54,54,54,,,,,,,,,,,,,,,-18.896484375,10.048828125,0,0,1,1.9261469841,,,,,2015_Oct_20_1759,K,facesParametric,11,59.6676833432,
./stim/MorphF5_09_orig.jpg,55,,,,,,,,,0,55,55,55,,,,,,,,,,,,,,,-18.896484375,10.048828125,0,0,1,0.770164012909,,,,,2015_Oct_20_1759,K,facesParametric,11,59.6676833432,
./stim/MorphF2_10_orig.jpg,56,,,,,,,,,0,56,56,56,,,,,,,,,,,,,,,-18.896484375,10.048828125,0,0,1,1.12017607689,,,,,2015_Oct_20_1759,K,facesParametric,11,59.6676833432,
./stim/MorphF10_08_orig.jpg,57,,,,,,,,,0,57,57,57,,,,,,,,,,,,,,,-18.896484375,10.048828125,0,0,1,1.23825716972,,,,,2015_Oct_20_1759,K,facesParametric,11,59.6676833432,
./stim/MorphF8_03_orig.jpg,58,,,,,,,,,0,58,58,58,,,,,,,,,,,,,,,-18.896484375,10.048828125,1,0,0,1.44168591499,,,,,2015_Oct_20_1759,K,facesParametric,11,59.6676833432,
./stim/MorphM9_08_orig.jpg,59,,,,,,,,,0,59,59,59,,,,,,,,,,,,,,,-18.896484375,10.048828125,0,0,1,3.95319700241,,,,,2015_Oct_20_1759,K,facesParametric,11,59.6676833432,
./stim/MorphF7_05_orig.jpg,60,,,,,,,,,0,60,60,60,,,,,,,,,,,,,,,-18.896484375,10.048828125,1,0,0,0.834326982498,,,,,2015_Oct_20_1759,K,facesParametric,11,59.6676833432,
./stim/MorphM7_06_orig.jpg,61,,,,,,,,,0,61,61,61,,,,,,,,,,,,,,,-18.896484375,10.048828125,0,0,1,0.803469896317,,,,,2015_Oct_20_1759,K,facesParametric,11,59.6676833432,
./stim/MorphM5_07_orig.jpg,62,,,,,,,,,0,62,62,62,,,,,,,,,,,,,,,-18.896484375,10.048828125,0,0,1,0.953788995743,,,,,2015_Oct_20_1759,K,facesParametric,11,59.6676833432,
./stim/MorphF5_05_orig.jpg,63,,,,,,,,,0,63,63,63,,,,,,,,,,,,,,,-18.896484375,10.048828125,1,0,0,0.903949022293,,,,,2015_Oct_20_1759,K,facesParametric,11,59.6676833432,
./stim/MorphM1_09_orig.jpg,64,,,,,,,,,0,64,64,64,,,,,,,,,,,,,,,-18.896484375,10.048828125,0,0,1,1.65803194046,,,,,2015_Oct_20_1759,K,facesParametric,11,59.6676833432,
./stim/MorphF9_08_orig.jpg,65,,,,,,,,,0,65,65,65,,,,,,,,,,,,,,,-18.896484375,10.048828125,0,0,1,1.57422304153,,,,,2015_Oct_20_1759,K,facesParametric,11,59.6676833432,
./stim/MorphM5_04_orig.jpg,66,,,,,,,,,0,66,66,66,,,,,,,,,,,,,,,-18.896484375,10.048828125,0,0,1,1.85903215408,,,,,2015_Oct_20_1759,K,facesParametric,11,59.6676833432,
./stim/MorphF2_06_orig.jpg,67,,,,,,,,,0,67,67,67,,,,,,,,,,,,,,,-18.896484375,10.048828125,0,0,1,0.65239405632,,,,,2015_Oct_20_1759,K,facesParametric,11,59.6676833432,
./stim/MorphF10_00_orig.jpg,68,,,,,,,,,0,68,68,68,,,,,,,,,,,,,,,-18.896484375,10.048828125,1,0,0,1.94306898117,,,,,2015_Oct_20_1759,K,facesParametric,11,59.6676833432,
./stim/MorphF7_06_orig.jpg,69,,,,,,,,,0,69,69,69,,,,,,,,,,,,,,,-18.896484375,10.048828125,1,0,0,2.76420211792,,,,,2015_Oct_20_1759,K,facesParametric,11,59.6676833432,
./stim/MorphF1_06_orig.jpg,70,,,,,,,,,0,70,70,70,,,,,,,,,,,,,,,-18.896484375,10.048828125,1,0,0,4.27013611794,,,,,2015_Oct_20_1759,K,facesParametric,11,59.6676833432,
./stim/MorphM1_06_orig.jpg,71,,,,,,,,,0,71,71,71,,,,,,,,,,,,,,,-18.896484375,10.048828125,0,0,1,0.770041942596,,,,,2015_Oct_20_1759,K,facesParametric,11,59.6676833432,
./stim/MorphM4_10_orig.jpg,72,,,,,,,,,0,72,72,72,,,,,,,,,,,,,,,-18.896484375,10.048828125,0,0,1,0.66869020462,,,,,2015_Oct_20_1759,K,facesParametric,11,59.6676833432,
./stim/MorphF4_05_orig.jpg,73,,,,,,,,,0,73,73,73,,,,,,,,,,,,,,,-18.896484375,10.048828125,1,0,0,2.44521403313,,,,,2015_Oct_20_1759,K,facesParametric,11,59.6676833432,
./stim/MorphM2_04_orig.jpg,74,,,,,,,,,0,74,74,74,,,,,,,,,,,,,,,-18.896484375,10.048828125,1,0,0,0.853382110596,,,,,2015_Oct_20_1759,K,facesParametric,11,59.6676833432,
./stim/MorphM4_02_orig.jpg,75,,,,,,,,,0,75,75,75,,,,,,,,,,,,,,,-18.896484375,10.048828125,1,0,0,1.92622709274,,,,,2015_Oct_20_1759,K,facesParametric,11,59.6676833432,
./stim/MorphF5_00_orig.jpg,76,,,,,,,,,0,76,76,76,,,,,,,,,,,,,,,-18.896484375,10.048828125,1,0,0,1.3227250576,,,,,2015_Oct_20_1759,K,facesParametric,11,59.6676833432,
./stim/MorphF10_04_orig.jpg,77,,,,,,,,,0,77,77,77,,,,,,,,,,,,,,,-18.896484375,10.048828125,0,0,1,0.884562015533,,,,,2015_Oct_20_1759,K,facesParametric,11,59.6676833432,
./stim/MorphF9_07_orig.jpg,78,,,,,,,,,0,78,78,78,,,,,,,,,,,,,,,-18.896484375,10.048828125,0,0,1,1.74193096161,,,,,2015_Oct_20_1759,K,facesParametric,11,59.6676833432,
./stim/MorphM4_01_orig.jpg,79,,,,,,,,,0,79,79,79,,,,,,,,,,,,,,,-18.896484375,10.048828125,1,0,0,2.32791686058,,,,,2015_Oct_20_1759,K,facesParametric,11,59.6676833432,
./stim/MorphF9_04_orig.jpg,80,,,,,,,,,0,80,80,80,,,,,,,,,,,,,,,-18.896484375,10.048828125,1,0,0,2.88108897209,,,,,2015_Oct_20_1759,K,facesParametric,11,59.6676833432,
./stim/MorphF8_01_orig.jpg,81,,,,,,,,,0,81,81,81,,,,,,,,,,,,,,,-18.896484375,10.048828125,1,0,0,0.668256044388,,,,,2015_Oct_20_1759,K,facesParametric,11,59.6676833432,
./stim/MorphF10_06_orig.jpg,82,,,,,,,,,0,82,82,82,,,,,,,,,,,,,,,-18.896484375,10.048828125,0,0,1,1.18910288811,,,,,2015_Oct_20_1759,K,facesParametric,11,59.6676833432,
./stim/MorphM1_00_orig.jpg,83,,,,,,,,,0,83,83,83,,,,,,,,,,,,,,,-18.896484375,10.048828125,1,0,0,1.38768219948,,,,,2015_Oct_20_1759,K,facesParametric,11,59.6676833432,
./stim/MorphF9_03_orig.jpg,84,,,,,,,,,0,84,84,84,,,,,,,,,,,,,,,-18.896484375,10.048828125,1,0,0,4.15419888496,,,,,2015_Oct_20_1759,K,facesParametric,11,59.6676833432,
./stim/MorphM4_06_orig.jpg,85,,,,,,,,,0,85,85,85,,,,,,,,,,,,,,,-18.896484375,10.048828125,0,0,1,1.10386300087,,,,,2015_Oct_20_1759,K,facesParametric,11,59.6676833432,
./stim/MorphF4_08_orig.jpg,86,,,,,,,,,0,86,86,86,,,,,,,,,,,,,,,-18.896484375,10.048828125,0,0,1,0.903242111206,,,,,2015_Oct_20_1759,K,facesParametric,11,59.6676833432,
./stim/MorphF5_01_orig.jpg,87,,,,,,,,,0,87,87,87,,,,,,,,,,,,,,,-18.92578125,10.048828125,1,0,0,1.47329592705,,,,,2015_Oct_20_1759,K,facesParametric,11,59.6676833432,
./stim/MorphF6_05_orig.jpg,88,,,,,,,,,0,88,88,88,,,,,,,,,,,,,,,-18.92578125,10.048828125,0,0,1,1.02110791206,,,,,2015_Oct_20_1759,K,facesParametric,11,59.6676833432,
./stim/MorphM9_09_orig.jpg,89,,,,,,,,,0,89,89,89,,,,,,,,,,,,,,,-18.92578125,10.048828125,0,0,1,0.919553995132,,,,,2015_Oct_20_1759,K,facesParametric,11,59.6676833432,
./stim/MorphM5_03_orig.jpg,90,,,,,,,,,0,90,90,90,,,,,,,,,,,,,,,-18.955078125,10.048828125,0,0,1,4.74148201942,,,,,2015_Oct_20_1759,K,facesParametric,11,59.6676833432,
./stim/MorphM7_08_orig.jpg,91,,,,,,,,,0,91,91,91,,,,,,,,,,,,,,,-18.955078125,10.048828125,0,0,1,0.618522882462,,,,,2015_Oct_20_1759,K,facesParametric,11,59.6676833432,
./stim/MorphF1_03_orig.jpg,92,,,,,,,,,0,92,92,92,,,,,,,,,,,,,,,-18.955078125,10.048828125,1,0,0,1.44043684006,,,,,2015_Oct_20_1759,K,facesParametric,11,59.6676833432,
./stim/MorphM5_09_orig.jpg,93,,,,,,,,,0,93,93,93,,,,,,,,,,,,,,,-18.955078125,10.048828125,0,0,1,0.970762968063,,,,,2015_Oct_20_1759,K,facesParametric,11,59.6676833432,
./stim/MorphF3_00_orig.jpg,94,,,,,,,,,0,94,94,94,,,,,,,,,,,,,,,-18.955078125,10.048828125,1,0,0,1.42387104034,,,,,2015_Oct_20_1759,K,facesParametric,11,59.6676833432,
./stim/MorphF8_00_orig.jpg,95,,,,,,,,,0,95,95,95,,,,,,,,,,,,,,,-18.955078125,10.048828125,1,0,0,0.702005147934,,,,,2015_Oct_20_1759,K,facesParametric,11,59.6676833432,
./stim/MorphM7_07_orig.jpg,96,,,,,,,,,0,96,96,96,,,,,,,,,,,,,,,-18.955078125,10.048828125,0,0,1,1.03789401054,,,,,2015_Oct_20_1759,K,facesParametric,11,59.6676833432,
./stim/MorphF9_10_orig.jpg,97,,,,,,,,,0,97,97,97,,,,,,,,,,,,,,,-18.955078125,10.048828125,0,0,1,0.870244979858,,,,,2015_Oct_20_1759,K,facesParametric,11,59.6676833432,
./stim/MorphM8_03_orig.jpg,98,,,,,,,,,0,98,98,98,,,,,,,,,,,,,,,-18.984375,10.048828125,1,0,0,3.65244197845,,,,,2015_Oct_20_1759,K,facesParametric,11,59.6676833432,
./stim/MorphM4_05_orig.jpg,99,,,,,,,,,0,99,99,99,,,,,,,,,,,,,,,-18.984375,10.048828125,0,0,1,0.701907873154,,,,,2015_Oct_20_1759,K,facesParametric,11,59.6676833432,
./stim/MorphM6_04_orig.jpg,100,,,,,,,,,0,100,100,100,,,,,,,,,,,,,,,-18.984375,10.048828125,1,0,0,1.0047659874,,,,,2015_Oct_20_1759,K,facesParametric,11,59.6676833432,
./stim/MorphM3_07_orig.jpg,101,,,,,,,,,0,101,101,101,,,,,,,,,,,,,,,-18.984375,10.048828125,0,0,1,1.30368113518,,,,,2015_Oct_20_1759,K,facesParametric,11,59.6676833432,
./stim/MorphM1_07_orig.jpg,102,,,,,,,,,0,102,102,102,,,,,,,,,,,,,,,-18.984375,10.048828125,0,0,1,1.47322106361,,,,,2015_Oct_20_1759,K,facesParametric,11,59.6676833432,
./stim/MorphM7_10_orig.jpg,103,,,,,,,,,0,103,103,103,,,,,,,,,,,,,,,-18.984375,10.048828125,0,0,1,0.633928060532,,,,,2015_Oct_20_1759,K,facesParametric,11,59.6676833432,
./stim/MorphF3_03_orig.jpg,104,,,,,,,,,0,104,104,104,,,,,,,,,,,,,,,-18.984375,10.048828125,1,0,0,2.19306015968,,,,,2015_Oct_20_1759,K,facesParametric,11,59.6676833432,
./stim/MorphF6_03_orig.jpg,105,,,,,,,,,0,105,105,105,,,,,,,,,,,,,,,-18.984375,10.048828125,1,0,0,2.37894487381,,,,,2015_Oct_20_1759,K,facesParametric,11,59.6676833432,
./stim/MorphF10_01_orig.jpg,106,,,,,,,,,0,106,106,106,,,,,,,,,,,,,,,-18.984375,10.048828125,1,0,0,1.64068603516,,,,,2015_Oct_20_1759,K,facesParametric,11,59.6676833432,
./stim/MorphM5_01_orig.jpg,107,,,,,,,,,0,107,107,107,,,,,,,,,,,,,,,-19.013671875,10.048828125,0,0,1,5.02669596672,,,,,2015_Oct_20_1759,K,facesParametric,11,59.6676833432,
./stim/MorphF1_00_orig.jpg,108,,,,,,,,,0,108,108,108,,,,,,,,,,,,,,,-19.013671875,10.048828125,1,0,0,1.32298898697,,,,,2015_Oct_20_1759,K,facesParametric,11,59.6676833432,
./stim/MorphF4_01_orig.jpg,109,,,,,,,,,0,109,109,109,,,,,,,,,,,,,,,-19.013671875,10.048828125,1,0,0,0.81972694397,,,,,2015_Oct_20_1759,K,facesParametric,11,59.6676833432,
./stim/MorphM10_00_orig.jpg,110,,,,,,,,,0,110,110,110,,,,,,,,,,,,,,,-19.013671875,10.048828125,1,0,0,2.68004322052,,,,,2015_Oct_20_1759,K,facesParametric,11,59.6676833432,
./stim/MorphM9_04_orig.jpg,111,,,,,,,,,0,111,111,111,,,,,,,,,,,,,,,-19.013671875,10.048828125,0,0,1,2.31062102318,,,,,2015_Oct_20_1759,K,facesParametric,11,59.6676833432,
./stim/MorphM6_01_orig.jpg,112,,,,,,,,,0,112,112,112,,,,,,,,,,,,,,,-19.013671875,10.048828125,1,0,0,2.06022000313,,,,,2015_Oct_20_1759,K,facesParametric,11,59.6676833432,
./stim/MorphF8_10_orig.jpg,113,,,,,,,,,0,113,113,113,,,,,,,,,,,,,,,-19.013671875,10.048828125,0,0,1,0.971603870392,,,,,2015_Oct_20_1759,K,facesParametric,11,59.6676833432,
./stim/MorphF10_03_orig.jpg,114,,,,,,,,,0,114,114,114,,,,,,,,,,,,,,,-18.92578125,10.13671875,1,0,0,1.85781002045,,,,,2015_Oct_20_1759,K,facesParametric,11,59.6676833432,
./stim/MorphM6_09_orig.jpg,115,,,,,,,,,0,115,115,115,,,,,,,,,,,,,,,-18.779296875,10.25390625,0,0,1,2.29467010498,,,,,2015_Oct_20_1759,K,facesParametric,11,59.6676833432,
./stim/MorphF7_04_orig.jpg,116,,,,,,,,,0,116,116,116,,,,,,,,,,,,,,,-18.779296875,10.25390625,1,0,0,6.30039000511,,,,,2015_Oct_20_1759,K,facesParametric,11,59.6676833432,
./stim/MorphF4_09_orig.jpg,117,,,,,,,,,0,117,117,117,,,,,,,,,,,,,,,-18.779296875,10.25390625,0,0,1,0.901381015778,,,,,2015_Oct_20_1759,K,facesParametric,11,59.6676833432,
./stim/MorphF10_10_orig.jpg,118,,,,,,,,,0,118,118,118,,,,,,,,,,,,,,,-18.779296875,10.25390625,0,0,1,0.736562013626,,,,,2015_Oct_20_1759,K,facesParametric,11,59.6676833432,
./stim/MorphF3_10_orig.jpg,119,,,,,,,,,0,119,119,119,,,,,,,,,,,,,,,-18.779296875,10.25390625,0,0,1,0.769157171249,,,,,2015_Oct_20_1759,K,facesParametric,11,59.6676833432,
./stim/MorphF5_07_orig.jpg,120,,,,,,,,,0,120,120,120,,,,,,,,,,,,,,,-18.779296875,10.25390625,0,0,1,1.02142691612,,,,,2015_Oct_20_1759,K,facesParametric,11,59.6676833432,
./stim/MorphM7_04_orig.jpg,121,,,,,,,,,0,121,121,121,,,,,,,,,,,,,,,-18.779296875,10.25390625,0,0,1,0.650407075882,,,,,2015_Oct_20_1759,K,facesParametric,11,59.6676833432,
./stim/MorphF2_00_orig.jpg,122,,,,,,,,,0,122,122,122,,,,,,,,,,,,,,,-18.779296875,10.25390625,1,0,0,1.60754585266,,,,,2015_Oct_20_1759,K,facesParametric,11,59.6676833432,
./stim/MorphM3_04_orig.jpg,123,,,,,,,,,0,123,123,123,,,,,,,,,,,,,,,-18.779296875,10.283203125,1,0,0,3.04901885986,,,,,2015_Oct_20_1759,K,facesParametric,11,59.6676833432,
./stim/MorphM10_10_orig.jpg,124,,,,,,,,,0,124,124,124,,,,,,,,,,,,,,,-18.779296875,10.283203125,0,0,1,0.652544975281,,,,,2015_Oct_20_1759,K,facesParametric,11,59.6676833432,
./stim/MorphM2_00_orig.jpg,125,,,,,,,,,0,125,125,125,,,,,,,,,,,,,,,-18.779296875,10.283203125,1,0,0,1.37277793884,,,,,2015_Oct_20_1759,K,facesParametric,11,59.6676833432,
./stim/MorphM3_08_orig.jpg,126,,,,,,,,,0,126,126,126,,,,,,,,,,,,,,,-18.779296875,10.283203125,0,0,1,1.0211558342,,,,,2015_Oct_20_1759,K,facesParametric,11,59.6676833432,
./stim/MorphF7_09_orig.jpg,127,,,,,,,,,0,127,127,127,,,,,,,,,,,,,,,-18.779296875,10.283203125,0,0,1,1.28907179832,,,,,2015_Oct_20_1759,K,facesParametric,11,59.6676833432,
./stim/MorphF1_08_orig.jpg,128,,,,,,,,,0,128,128,128,,,,,,,,,,,,,,,-18.779296875,10.283203125,0,0,1,2.52915406227,,,,,2015_Oct_20_1759,K,facesParametric,11,59.6676833432,
./stim/MorphF3_01_orig.jpg,129,,,,,,,,,0,129,129,129,,,,,,,,,,,,,,,-18.779296875,10.283203125,1,0,0,1.47198700905,,,,,2015_Oct_20_1759,K,facesParametric,11,59.6676833432,
./stim/MorphF8_02_orig.jpg,130,,,,,,,,,0,130,130,130,,,,,,,,,,,,,,,-18.779296875,10.283203125,1,0,0,0.97024512291,,,,,2015_Oct_20_1759,K,facesParametric,11,59.6676833432,
./stim/MorphF2_08_orig.jpg,131,,,,,,,,,0,131,131,131,,,,,,,,,,,,,,,-18.779296875,10.283203125,0,0,1,0.786040067673,,,,,2015_Oct_20_1759,K,facesParametric,11,59.6676833432,
./stim/MorphM5_06_orig.jpg,132,,,,,,,,,0,132,132,132,,,,,,,,,,,,,,,-18.779296875,10.283203125,0,0,1,2.17713713646,,,,,2015_Oct_20_1759,K,facesParametric,11,59.6676833432,
./stim/MorphM10_05_orig.jpg,133,,,,,,,,,0,133,133,133,,,,,,,,,,,,,,,-18.779296875,10.283203125,0,0,1,1.00430893898,,,,,2015_Oct_20_1759,K,facesParametric,11,59.6676833432,
./stim/MorphM2_06_orig.jpg,134,,,,,,,,,0,134,134,134,,,,,,,,,,,,,,,-18.779296875,10.283203125,0,0,1,4.94278001785,,,,,2015_Oct_20_1759,K,facesParametric,11,59.6676833432,
./stim/MorphF4_00_orig.jpg,135,,,,,,,,,0,135,135,135,,,,,,,,,,,,,,,-18.779296875,10.283203125,1,0,0,1.32182407379,,,,,2015_Oct_20_1759,K,facesParametric,11,59.6676833432,
./stim/MorphF3_08_orig.jpg,136,,,,,,,,,0,136,136,136,,,,,,,,,,,,,,,-18.75,10.3125,0,0,1,0.718773126602,,,,,2015_Oct_20_1759,K,facesParametric,11,59.6676833432,
./stim/MorphM4_00_orig.jpg,137,,,,,,,,,0,137,137,137,,,,,,,,,,,,,,,-18.75,10.3125,1,0,0,1.45639896393,,,,,2015_Oct_20_1759,K,facesParametric,11,59.6676833432,
./stim/MorphF8_07_orig.jpg,138,,,,,,,,,0,138,138,138,,,,,,,,,,,,,,,-18.75,10.3125,0,0,1,1.12169194221,,,,,2015_Oct_20_1759,K,facesParametric,11,59.6676833432,
./stim/MorphM7_00_orig.jpg,139,,,,,,,,,0,139,139,139,,,,,,,,,,,,,,,-18.75,10.3125,1,0,0,4.30631113052,,,,,2015_Oct_20_1759,K,facesParametric,11,59.6676833432,
./stim/MorphM8_00_orig.jpg,140,,,,,,,,,0,140,140,140,,,,,,,,,,,,,,,-18.75,10.3125,1,0,0,1.67449784279,,,,,2015_Oct_20_1759,K,facesParametric,11,59.6676833432,
./stim/MorphF2_04_orig.jpg,141,,,,,,,,,0,141,141,141,,,,,,,,,,,,,,,-18.75,10.3125,0,0,1,10.7733650208,,,,,2015_Oct_20_1759,K,facesParametric,11,59.6676833432,
./stim/MorphM1_01_orig.jpg,142,,,,,,,,,0,142,142,142,,,,,,,,,,,,,,,-18.75,10.341796875,1,0,0,1.72502088547,,,,,2015_Oct_20_1759,K,facesParametric,11,59.6676833432,
./stim/MorphF6_00_orig.jpg,143,,,,,,,,,0,143,143,143,,,,,,,,,,,,,,,-18.662109375,10.576171875,1,0,0,2.19395303726,,,,,2015_Oct_20_1759,K,facesParametric,11,59.6676833432,
./stim/MorphF7_08_orig.jpg,144,,,,,,,,,0,144,144,144,,,,,,,,,,,,,,,-18.662109375,10.576171875,0,0,1,0.853933095932,,,,,2015_Oct_20_1759,K,facesParametric,11,59.6676833432,
./stim/MorphF10_09_orig.jpg,145,,,,,,,,,0,145,145,145,,,,,,,,,,,,,,,-18.6328125,10.576171875,0,0,1,0.635210990906,,,,,2015_Oct_20_1759,K,facesParametric,11,59.6676833432,
./stim/MorphF2_01_orig.jpg,146,,,,,,,,,0,146,146,146,,,,,,,,,,,,,,,-18.6328125,10.576171875,1,0,0,4.2390999794,,,,,2015_Oct_20_1759,K,facesParametric,11,59.6676833432,
./stim/MorphF10_02_orig.jpg,147,,,,,,,,,0,147,147,147,,,,,,,,,,,,,,,-18.6328125,10.576171875,1,0,0,1.05442380905,,,,,2015_Oct_20_1759,K,facesParametric,11,59.6676833432,
./stim/MorphM2_07_orig.jpg,148,,,,,,,,,0,148,148,148,,,,,,,,,,,,,,,-18.6328125,10.576171875,0,0,1,2.66333985329,,,,,2015_Oct_20_1759,K,facesParametric,11,59.6676833432,
./stim/MorphF4_07_orig.jpg,149,,,,,,,,,0,149,149,149,,,,,,,,,,,,,,,-18.6328125,10.576171875,0,0,1,0.702856063843,,,,,2015_Oct_20_1759,K,facesParametric,11,59.6676833432,
./stim/MorphM8_09_orig.jpg,150,,,,,,,,,0,150,150,150,,,,,,,,,,,,,,,-18.6328125,10.576171875,0,0,1,0.76898598671,,,,,2015_Oct_20_1759,K,facesParametric,11,59.6676833432,
./stim/MorphF4_04_orig.jpg,151,,,,,,,,,0,151,151,151,,,,,,,,,,,,,,,-18.6328125,10.576171875,1,0,0,0.988052129745,,,,,2015_Oct_20_1759,K,facesParametric,11,59.6676833432,
./stim/MorphM1_02_orig.jpg,152,,,,,,,,,0,152,152,152,,,,,,,,,,,,,,,-18.6328125,10.576171875,1,0,0,3.80255818367,,,,,2015_Oct_20_1759,K,facesParametric,11,59.6676833432,
./stim/MorphM5_10_orig.jpg,153,,,,,,,,,0,153,153,153,,,,,,,,,,,,,,,-18.6328125,10.576171875,0,0,1,0.651429176331,,,,,2015_Oct_20_1759,K,facesParametric,11,59.6676833432,
./stim/MorphM7_02_orig.jpg,154,,,,,,,,,0,154,154,154,,,,,,,,,,,,,,,-18.6328125,10.576171875,0,0,1,0.952892780304,,,,,2015_Oct_20_1759,K,facesParametric,11,59.6676833432,
./stim/MorphM3_03_orig.jpg,155,,,,,,,,,0,155,155,155,,,,,,,,,,,,,,,-18.6328125,10.576171875,0,0,1,1.6057510376,,,,,2015_Oct_20_1759,K,facesParametric,11,59.6676833432,
./stim/MorphF6_04_orig.jpg,156,,,,,,,,,0,156,156,156,,,,,,,,,,,,,,,-18.6328125,10.576171875,0,0,1,1.03758597374,,,,,2015_Oct_20_1759,K,facesParametric,11,59.6676833432,
./stim/MorphM7_09_orig.jpg,157,,,,,,,,,0,157,157,157,,,,,,,,,,,,,,,-18.6328125,10.576171875,0,0,1,0.68584394455,,,,,2015_Oct_20_1759,K,facesParametric,11,59.6676833432,
./stim/MorphF7_02_orig.jpg,158,,,,,,,,,0,158,158,158,,,,,,,,,,,,,,,-18.6328125,10.576171875,1,0,0,1.07065606117,,,,,2015_Oct_20_1759,K,facesParametric,11,59.6676833432,
./stim/MorphM4_08_orig.jpg,159,,,,,,,,,0,159,159,159,,,,,,,,,,,,,,,-18.603515625,10.546875,0,0,1,0.869079113007,,,,,2015_Oct_20_1759,K,facesParametric,11,59.6676833432,
./stim/MorphM7_01_orig.jpg,160,,,,,,,,,0,160,160,160,,,,,,,,,,,,,,,-18.603515625,10.546875,1,0,0,2.37856698036,,,,,2015_Oct_20_1759,K,facesParametric,11,59.6676833432,
./stim/MorphM10_03_orig.jpg,161,,,,,,,,,0,161,161,161,,,,,,,,,,,,,,,-18.603515625,10.546875,1,0,0,2.2262430191,,,,,2015_Oct_20_1759,K,facesParametric,11,59.6676833432,
./stim/MorphF5_06_orig.jpg,162,,,,,,,,,0,162,162,162,,,,,,,,,,,,,,,-18.603515625,10.546875,0,0,1,1.90948796272,,,,,2015_Oct_20_1759,K,facesParametric,11,59.6676833432,
./stim/MorphM10_09_orig.jpg,163,,,,,,,,,0,163,163,163,,,,,,,,,,,,,,,-18.3984375,10.927734375,0,0,1,1.10450816154,,,,,2015_Oct_20_1759,K,facesParametric,11,59.6676833432,
./stim/MorphM7_03_orig.jpg,164,,,,,,,,,0,164,164,164,,,,,,,,,,,,,,,-18.3984375,10.927734375,0,0,1,2.5464849472,,,,,2015_Oct_20_1759,K,facesParametric,11,59.6676833432,
./stim/MorphF8_08_orig.jpg,165,,,,,,,,,0,165,165,165,,,,,,,,,,,,,,,-18.3984375,10.927734375,0,0,1,1.30579900742,,,,,2015_Oct_20_1759,K,facesParametric,11,59.6676833432,
./stim/MorphF3_09_orig.jpg,166,,,,,,,,,0,166,166,166,,,,,,,,,,,,,,,-18.3984375,10.927734375,0,0,1,0.784750938416,,,,,2015_Oct_20_1759,K,facesParametric,11,59.6676833432,
./stim/MorphM5_05_orig.jpg,167,,,,,,,,,0,167,167,167,,,,,,,,,,,,,,,-18.3984375,10.927734375,0,0,1,3.03170418739,,,,,2015_Oct_20_1759,K,facesParametric,11,59.6676833432,
./stim/MorphM10_04_orig.jpg,168,,,,,,,,,0,168,168,168,,,,,,,,,,,,,,,-18.720703125,10.8984375,0,0,1,7.00459194183,,,,,2015_Oct_20_1759,K,facesParametric,11,59.6676833432,
./stim/MorphM6_03_orig.jpg,169,,,,,,,,,0,169,169,169,,,,,,,,,,,,,,,-18.720703125,10.8984375,1,0,0,0.970679998398,,,,,2015_Oct_20_1759,K,facesParametric,11,59.6676833432,
./stim/MorphM1_08_orig.jpg,170,,,,,,,,,0,170,170,170,,,,,,,,,,,,,,,-18.720703125,10.8984375,0,0,1,0.953894853592,,,,,2015_Oct_20_1759,K,facesParametric,11,59.6676833432,
./stim/MorphM9_07_orig.jpg,171,,,,,,,,,0,171,171,171,,,,,,,,,,,,,,,-18.75,10.8984375,0,0,1,1.15533018112,,,,,2015_Oct_20_1759,K,facesParametric,11,59.6676833432,
./stim/MorphF6_08_orig.jpg,172,,,,,,,,,0,172,172,172,,,,,,,,,,,,,,,-18.75,10.8984375,0,0,1,0.803175926208,,,,,2015_Oct_20_1759,K,facesParametric,11,59.6676833432,
./stim/MorphF9_06_orig.jpg,173,,,,,,,,,0,173,173,173,,,,,,,,,,,,,,,-18.75,10.8984375,0,0,1,3.40099000931,,,,,2015_Oct_20_1759,K,facesParametric,11,59.6676833432,
./stim/MorphM8_02_orig.jpg,174,,,,,,,,,0,174,174,174,,,,,,,,,,,,,,,-18.75,10.8984375,1,0,0,0.836755990982,,,,,2015_Oct_20_1759,K,facesParametric,11,59.6676833432,
./stim/MorphF7_03_orig.jpg,175,,,,,,,,,0,175,175,175,,,,,,,,,,,,,,,-18.75,10.8984375,1,0,0,0.903586864471,,,,,2015_Oct_20_1759,K,facesParametric,11,59.6676833432,
./stim/MorphF2_03_orig.jpg,176,,,,,,,,,0,176,176,176,,,,,,,,,,,,,,,-19.921875,10.986328125,1,0,0,10.5217819214,,,,,2015_Oct_20_1759,K,facesParametric,11,59.6676833432,
./stim/MorphM3_02_orig.jpg,177,,,,,,,,,0,177,177,177,,,,,,,,,,,,,,,-20.595703125,12.861328125,1,0,0,10.7080008984,,,,,2015_Oct_20_1759,K,facesParametric,11,59.6676833432,
./stim/MorphF9_09_orig.jpg,178,,,,,,,,,0,178,178,178,,,,,,,,,,,,,,,-20.595703125,12.861328125,0,0,1,1.02110791206,,,,,2015_Oct_20_1759,K,facesParametric,11,59.6676833432,
./stim/MorphM8_08_orig.jpg,179,,,,,,,,,0,179,179,179,,,,,,,,,,,,,,,-20.595703125,12.861328125,0,0,1,0.652127981186,,,,,2015_Oct_20_1759,K,facesParametric,11,59.6676833432,
./stim/MorphM1_04_orig.jpg,180,,,,,,,,,0,180,180,180,,,,,,,,,,,,,,,-20.595703125,12.861328125,1,0,0,2.42929983139,,,,,2015_Oct_20_1759,K,facesParametric,11,59.6676833432,
./stim/MorphF5_03_orig.jpg,181,,,,,,,,,0,181,181,181,,,,,,,,,,,,,,,-20.625,12.83203125,1,0,0,1.15494704247,,,,,2015_Oct_20_1759,K,facesParametric,11,59.6676833432,
./stim/MorphM7_05_orig.jpg,182,,,,,,,,,0,182,182,182,,,,,,,,,,,,,,,-20.625,12.861328125,0,0,1,0.735960960388,,,,,2015_Oct_20_1759,K,facesParametric,11,59.6676833432,
./stim/MorphF1_09_orig.jpg,183,,,,,,,,,0,183,183,183,,,,,,,,,,,,,,,-20.654296875,12.890625,0,0,1,0.886888980865,,,,,2015_Oct_20_1759,K,facesParametric,11,59.6676833432,
./stim/MorphF2_05_orig.jpg,184,,,,,,,,,0,184,184,184,,,,,,,,,,,,,,,-20.712890625,12.94921875,0,0,1,1.03834986687,,,,,2015_Oct_20_1759,K,facesParametric,11,59.6676833432,
./stim/MorphF8_05_orig.jpg,185,,,,,,,,,0,185,185,185,,,,,,,,,,,,,,,-20.712890625,12.94921875,1,0,0,1.52381491661,,,,,2015_Oct_20_1759,K,facesParametric,11,59.6676833432,
./stim/MorphM10_06_orig.jpg,186,,,,,,,,,0,186,186,186,,,,,,,,,,,,,,,-20.830078125,13.06640625,0,0,1,1.92510199547,,,,,2015_Oct_20_1759,K,facesParametric,11,59.6676833432,
./stim/MorphF7_10_orig.jpg,187,,,,,,,,,0,187,187,187,,,,,,,,,,,,,,,-20.830078125,13.06640625,0,0,1,1.07168316841,,,,,2015_Oct_20_1759,K,facesParametric,11,59.6676833432,
./stim/MorphM9_05_orig.jpg,188,,,,,,,,,0,188,188,188,,,,,,,,,,,,,,,-20.91796875,13.06640625,1,0,0,3.33348703384,,,,,2015_Oct_20_1759,K,facesParametric,11,59.6676833432,
./stim/MorphM8_07_orig.jpg,189,,,,,,,,,0,189,189,189,,,,,,,,,,,,,,,-20.91796875,13.06640625,0,0,1,1.52366995811,,,,,2015_Oct_20_1759,K,facesParametric,11,59.6676833432,
./stim/MorphM6_06_orig.jpg,190,,,,,,,,,0,190,190,190,,,,,,,,,,,,,,,-20.947265625,13.06640625,1,0,0,1.62415003777,,,,,2015_Oct_20_1759,K,facesParametric,11,59.6676833432,
./stim/MorphF6_06_orig.jpg,191,,,,,,,,,0,191,191,191,,,,,,,,,,,,,,,-20.947265625,13.06640625,0,0,1,0.853530168533,,,,,2015_Oct_20_1759,K,facesParametric,11,59.6676833432,
./stim/MorphM3_10_orig.jpg,192,,,,,,,,,0,192,192,192,,,,,,,,,,,,,,,-20.947265625,13.06640625,0,0,1,1.01984095573,,,,,2015_Oct_20_1759,K,facesParametric,11,59.6676833432,
./stim/MorphM5_08_orig.jpg,193,,,,,,,,,0,193,193,193,,,,,,,,,,,,,,,-20.947265625,13.06640625,0,0,1,0.836780071259,,,,,2015_Oct_20_1759,K,facesParametric,11,59.6676833432,
./stim/MorphM4_07_orig.jpg,194,,,,,,,,,0,194,194,194,,,,,,,,,,,,,,,-20.947265625,13.06640625,0,0,1,0.666803121567,,,,,2015_Oct_20_1759,K,facesParametric,11,59.6676833432,
./stim/MorphM2_09_orig.jpg,195,,,,,,,,,0,195,195,195,,,,,,,,,,,,,,,-20.947265625,13.06640625,0,0,1,1.52370405197,,,,,2015_Oct_20_1759,K,facesParametric,11,59.6676833432,
./stim/MorphF6_10_orig.jpg,196,,,,,,,,,0,196,196,196,,,,,,,,,,,,,,,-20.947265625,13.06640625,0,0,1,0.719606161118,,,,,2015_Oct_20_1759,K,facesParametric,11,59.6676833432,
./stim/MorphF2_09_orig.jpg,197,,,,,,,,,0,197,197,197,,,,,,,,,,,,,,,-20.947265625,13.06640625,0,0,1,0.985554933548,,,,,2015_Oct_20_1759,K,facesParametric,11,59.6676833432,
./stim/MorphM6_10_orig.jpg,198,,,,,,,,,0,198,198,198,,,,,,,,,,,,,,,-20.9765625,13.06640625,0,0,1,1.99294900894,,,,,2015_Oct_20_1759,K,facesParametric,11,59.6676833432,
./stim/MorphM4_03_orig.jpg,199,,,,,,,,,0,199,199,199,,,,,,,,,,,,,,,-20.9765625,13.06640625,1,0,0,1.25503277779,,,,,2015_Oct_20_1759,K,facesParametric,11,59.6676833432,
./stim/MorphM1_10_orig.jpg,200,,,,,,,,,0,200,200,200,,,,,,,,,,,,,,,-20.9765625,13.06640625,0,0,1,3.03229212761,,,,,2015_Oct_20_1759,K,facesParametric,11,59.6676833432,
./stim/MorphM8_05_orig.jpg,201,,,,,,,,,0,201,201,201,,,,,,,,,,,,,,,-20.9765625,13.0078125,1,0,0,3.88682699203,,,,,2015_Oct_20_1759,K,facesParametric,11,59.6676833432,
./stim/MorphF8_06_orig.jpg,202,,,,,,,,,0,202,202,202,,,,,,,,,,,,,,,-20.9765625,13.0078125,1,0,0,0.80325293541,,,,,2015_Oct_20_1759,K,facesParametric,11,59.6676833432,
./stim/MorphF4_06_orig.jpg,203,,,,,,,,,0,203,203,203,,,,,,,,,,,,,,,-20.9765625,13.0078125,1,0,0,7.75844693184,,,,,2015_Oct_20_1759,K,facesParametric,11,59.6676833432,
./stim/MorphM9_10_orig.jpg,204,,,,,,,,,0,204,204,204,,,,,,,,,,,,,,,-21.064453125,13.06640625,0,0,1,0.736231088638,,,,,2015_Oct_20_1759,K,facesParametric,11,59.6676833432,
./stim/MorphM3_00_orig.jpg,205,,,,,,,,,0,205,205,205,,,,,,,,,,,,,,,-21.064453125,13.06640625,0,0,1,1.10310506821,,,,,2015_Oct_20_1759,K,facesParametric,11,59.6676833432,
./stim/MorphM9_06_orig.jpg,206,,,,,,,,,0,206,206,206,,,,,,,,,,,,,,,-21.09375,13.095703125,1,0,0,12.9538009167,,,,,2015_Oct_20_1759,K,facesParametric,11,59.6676833432,
./stim/MorphM1_03_orig.jpg,207,,,,,,,,,0,207,207,207,,,,,,,,,,,,,,,-21.09375,13.095703125,1,0,0,1.30569219589,,,,,2015_Oct_20_1759,K,facesParametric,11,59.6676833432,
./stim/MorphM6_07_orig.jpg,208,,,,,,,,,0,208,208,208,,,,,,,,,,,,,,,-21.09375,13.095703125,0,0,1,8.10867285728,,,,,2015_Oct_20_1759,K,facesParametric,11,59.6676833432,
./stim/MorphM2_03_orig.jpg,209,,,,,,,,,0,209,209,209,,,,,,,,,,,,,,,-21.09375,13.095703125,1,0,0,1.60596394539,,,,,2015_Oct_20_1759,K,facesParametric,11,59.6676833432,
./stim/MorphF6_02_orig.jpg,210,,,,,,,,,0,210,210,210,,,,,,,,,,,,,,,-21.09375,13.095703125,1,0,0,1.54010415077,,,,,2015_Oct_20_1759,K,facesParametric,11,59.6676833432,
./stim/MorphM9_01_orig.jpg,211,,,,,,,,,0,211,211,211,,,,,,,,,,,,,,,-21.09375,13.095703125,1,0,0,1.45695781708,,,,,2015_Oct_20_1759,K,facesParametric,11,59.6676833432,
./stim/MorphM4_09_orig.jpg,212,,,,,,,,,0,212,212,212,,,,,,,,,,,,,,,-21.09375,13.095703125,0,0,1,3.06485819817,,,,,2015_Oct_20_1759,K,facesParametric,11,59.6676833432,
./stim/MorphF1_01_orig.jpg,213,,,,,,,,,0,213,213,213,,,,,,,,,,,,,,,-21.09375,13.095703125,1,0,0,2.24265003204,,,,,2015_Oct_20_1759,K,facesParametric,11,59.6676833432,
./stim/MorphM9_03_orig.jpg,214,,,,,,,,,0,214,214,214,,,,,,,,,,,,,,,-21.09375,13.095703125,1,0,0,1.23902606964,,,,,2015_Oct_20_1759,K,facesParametric,11,59.6676833432,
./stim/MorphM2_10_orig.jpg,215,,,,,,,,,0,215,215,215,,,,,,,,,,,,,,,-21.09375,13.095703125,0,0,1,1.37328386307,,,,,2015_Oct_20_1759,K,facesParametric,11,59.6676833432,
./stim/MorphF7_00_orig.jpg,216,,,,,,,,,0,216,216,216,,,,,,,,,,,,,,,-21.09375,13.095703125,1,0,0,2.96493601799,,,,,2015_Oct_20_1759,K,facesParametric,11,59.6676833432,
./stim/MorphM6_00_orig.jpg,217,,,,,,,,,0,217,217,217,,,,,,,,,,,,,,,-21.09375,13.095703125,1,0,0,0.802405118942,,,,,2015_Oct_20_1759,K,facesParametric,11,59.6676833432,
./stim/MorphF1_02_orig.jpg,218,,,,,,,,,0,218,218,218,,,,,,,,,,,,,,,-21.09375,13.095703125,1,0,0,2.37798380852,,,,,2015_Oct_20_1759,K,facesParametric,11,59.6676833432,
./stim/MorphF8_09_orig.jpg,219,,,,,,,,,0,219,219,219,,,,,,,,,,,,,,,-21.09375,13.095703125,0,0,1,1.22215390205,,,,,2015_Oct_20_1759,K,facesParametric,11,59.6676833432,
,,,,,,,,,,,,,,,,,,,,,,,,,,,,,,,,,,,,return,1.02729701996,2015_Oct_20_1759,K,facesParametric,11,59.6676833432,
