img,num,basicLoop.thisRepN,basicLoop.thisTrialN,basicLoop.thisN,basicLoop.thisIndex,trials.thisRepN,trials.thisTrialN,trials.thisN,trials.thisIndex,trials2.thisRepN,trials2.thisTrialN,trials2.thisN,trials2.thisIndex,key_resp_2.keys,key_resp_2.rt,basicRating1.response,basicRating1.rt,basicRating2.response,basicRating2.rt,basicRating3.response,basicRating3.rt,basicRating4.response,basicRating4.rt,key_resp_3.keys,key_resp_3.rt,key_resp_4.keys,key_resp_4.rt,mouseResp.x,mouseResp.y,mouseResp.leftButton,mouseResp.midButton,mouseResp.rightButton,mouseResp.time,key_resp_5.keys,key_resp_5.rt,key_resp_7.keys,key_resp_7.rt,date,group,expName,participant,frameRate,
,,,,,,,,,,,,,,return,44.3687930107,,,,,,,,,,,,,,,,,,,,,,,2015_Oct_24_1302,K,facesParametric,12,59.6459613197,
./basicStim/23M_DI_O.jpg,,0,0,0,50,,,,,,,,,,,None,None,None,None,DIS,15.833,None,None,,,,,,,,,,,,,,,2015_Oct_24_1302,K,facesParametric,12,59.6459613197,
./basicStim/03F_FE_O.jpg,,0,1,1,16,,,,,,,,,,,None,None,None,None,SUP,3.423,None,None,,,,,,,,,,,,,,,2015_Oct_24_1302,K,facesParametric,12,59.6459613197,
./basicStim/07F_SA_C.jpg,,0,2,2,32,,,,,,,,,,,SAD,2.453,None,None,None,None,None,None,,,,,,,,,,,,,,,2015_Oct_24_1302,K,facesParametric,12,59.6459613197,
./basicStim/24M_DI_O.jpg,,0,3,3,57,,,,,,,,,,,None,None,None,None,DIS,5.169,None,None,,,,,,,,,,,,,,,2015_Oct_24_1302,K,facesParametric,12,59.6459613197,
./basicStim/03F_SP_O.jpg,,0,4,4,19,,,,,,,,,,,HAP,2.923,None,None,None,None,None,None,,,,,,,,,,,,,,,2015_Oct_24_1302,K,facesParametric,12,59.6459613197,
./basicStim/36M_SA_C.jpg,,0,5,5,81,,,,,,,,,,,None,None,None,None,SUP,5.975,None,None,,,,,,,,,,,,,,,2015_Oct_24_1302,K,facesParametric,12,59.6459613197,
./basicStim/34M_AN_O.jpg,,0,6,6,70,,,,,,,,,,,None,None,ANG,2.416,None,None,None,None,,,,,,,,,,,,,,,2015_Oct_24_1302,K,facesParametric,12,59.6459613197,
./basicStim/06F_AN_O.jpg,,0,7,7,21,,,,,,,,,,,None,None,None,None,DIS,14.199,None,None,,,,,,,,,,,,,,,2015_Oct_24_1302,K,facesParametric,12,59.6459613197,
./basicStim/06F_DI_O.jpg,,0,8,8,22,,,,,,,,,,,None,None,None,None,DIS,4.094,None,None,,,,,,,,,,,,,,,2015_Oct_24_1302,K,facesParametric,12,59.6459613197,
./basicStim/24M_SA_C.jpg,,0,9,9,60,,,,,,,,,,,SAD,2.418,None,None,None,None,None,None,,,,,,,,,,,,,,,2015_Oct_24_1302,K,facesParametric,12,59.6459613197,
./basicStim/09F_FE_O.jpg,,0,10,10,37,,,,,,,,,,,None,None,FEA,3.943,None,None,None,None,,,,,,,,,,,,,,,2015_Oct_24_1302,K,facesParametric,12,59.6459613197,
./basicStim/07F_SP_O.jpg,,0,11,11,33,,,,,,,,,,,None,None,None,None,SUP,4.846,None,None,,,,,,,,,,,,,,,2015_Oct_24_1302,K,facesParametric,12,59.6459613197,
./basicStim/21M_HA_O.jpg,,0,12,12,45,,,,,,,,,,,HAP,2.653,None,None,None,None,None,None,,,,,,,,,,,,,,,2015_Oct_24_1302,K,facesParametric,12,59.6459613197,
./basicStim/34M_SP_O.jpg,,0,13,13,75,,,,,,,,,,,None,None,None,None,SUP,2.952,None,None,,,,,,,,,,,,,,,2015_Oct_24_1302,K,facesParametric,12,59.6459613197,
./basicStim/09F_AN_O.jpg,,0,14,14,35,,,,,,,,,,,None,None,ANG,2.088,None,None,None,None,,,,,,,,,,,,,,,2015_Oct_24_1302,K,facesParametric,12,59.6459613197,
./basicStim/28M_HA_O.jpg,,0,15,15,66,,,,,,,,,,,HAP,0.964,None,None,None,None,None,None,,,,,,,,,,,,,,,2015_Oct_24_1302,K,facesParametric,12,59.6459613197,
./basicStim/23M_AN_O.jpg,,0,16,16,49,,,,,,,,,,,None,None,ANG,2.62,None,None,None,None,,,,,,,,,,,,,,,2015_Oct_24_1302,K,facesParametric,12,59.6459613197,
./basicStim/01F_NE_C.jpg,,0,17,17,6,,,,,,,,,,,None,None,None,None,None,None,NTR,3.455,,,,,,,,,,,,,,,2015_Oct_24_1302,K,facesParametric,12,59.6459613197,
./basicStim/02F_AN_O.jpg,,0,18,18,7,,,,,,,,,,,None,None,ANG,3.421,None,None,None,None,,,,,,,,,,,,,,,2015_Oct_24_1302,K,facesParametric,12,59.6459613197,
./basicStim/34M_SA_C.jpg,,0,19,19,74,,,,,,,,,,,None,None,FEA,3.188,None,None,None,None,,,,,,,,,,,,,,,2015_Oct_24_1302,K,facesParametric,12,59.6459613197,
./basicStim/03F_AN_O.jpg,,0,20,20,14,,,,,,,,,,,None,None,ANG,3.036,None,None,None,None,,,,,,,,,,,,,,,2015_Oct_24_1302,K,facesParametric,12,59.6459613197,
./basicStim/06F_SA_C.jpg,,0,21,21,25,,,,,,,,,,,SAD,6.457,None,None,None,None,None,None,,,,,,,,,,,,,,,2015_Oct_24_1302,K,facesParametric,12,59.6459613197,
./basicStim/07F_FE_O.jpg,,0,22,22,30,,,,,,,,,,,None,None,None,None,SUP,4.014,None,None,,,,,,,,,,,,,,,2015_Oct_24_1302,K,facesParametric,12,59.6459613197,
./basicStim/21M_NE_C.jpg,,0,23,23,48,,,,,,,,,,,None,None,None,None,None,None,NTR,0.927,,,,,,,,,,,,,,,2015_Oct_24_1302,K,facesParametric,12,59.6459613197,
./basicStim/01F_FE_O.jpg,,0,24,24,2,,,,,,,,,,,None,None,None,None,SUP,1.092,None,None,,,,,,,,,,,,,,,2015_Oct_24_1302,K,facesParametric,12,59.6459613197,
./basicStim/09F_NE_C.jpg,,0,25,25,41,,,,,,,,,,,None,None,None,None,None,None,NTR,1.346,,,,,,,,,,,,,,,2015_Oct_24_1302,K,facesParametric,12,59.6459613197,
./basicStim/28M_DI_O.jpg,,0,26,26,64,,,,,,,,,,,None,None,ANG,5.424,None,None,None,None,,,,,,,,,,,,,,,2015_Oct_24_1302,K,facesParametric,12,59.6459613197,
./basicStim/34M_NE_C.jpg,,0,27,27,76,,,,,,,,,,,None,None,None,None,None,None,NTR,1.075,,,,,,,,,,,,,,,2015_Oct_24_1302,K,facesParametric,12,59.6459613197,
./basicStim/23M_SP_O.jpg,,0,28,28,54,,,,,,,,,,,None,None,None,None,SUP,2.553,None,None,,,,,,,,,,,,,,,2015_Oct_24_1302,K,facesParametric,12,59.6459613197,
./basicStim/36M_NE_C.jpg,,0,29,29,83,,,,,,,,,,,None,None,None,None,None,None,NTR,0.862,,,,,,,,,,,,,,,2015_Oct_24_1302,K,facesParametric,12,59.6459613197,
./basicStim/21M_SP_O.jpg,,0,30,30,47,,,,,,,,,,,None,None,None,None,SUP,1.855,None,None,,,,,,,,,,,,,,,2015_Oct_24_1302,K,facesParametric,12,59.6459613197,
./basicStim/02F_SP_O.jpg,,0,31,31,12,,,,,,,,,,,None,None,None,None,SUP,2.2,None,None,,,,,,,,,,,,,,,2015_Oct_24_1302,K,facesParametric,12,59.6459613197,
./basicStim/36M_HA_O.jpg,,0,32,32,80,,,,,,,,,,,HAP,1.116,None,None,None,None,None,None,,,,,,,,,,,,,,,2015_Oct_24_1302,K,facesParametric,12,59.6459613197,
./basicStim/03F_NE_C.jpg,,0,33,33,20,,,,,,,,,,,None,None,None,None,None,None,NTR,1.241,,,,,,,,,,,,,,,2015_Oct_24_1302,K,facesParametric,12,59.6459613197,
./basicStim/03F_SA_C.jpg,,0,34,34,18,,,,,,,,,,,SAD,2.353,None,None,None,None,None,None,,,,,,,,,,,,,,,2015_Oct_24_1302,K,facesParametric,12,59.6459613197,
./basicStim/09F_DI_O.jpg,,0,35,35,36,,,,,,,,,,,None,None,None,None,DIS,10.025,None,None,,,,,,,,,,,,,,,2015_Oct_24_1302,K,facesParametric,12,59.6459613197,
./basicStim/36M_SP_O.jpg,,0,36,36,82,,,,,,,,,,,None,None,None,None,SUP,1.164,None,None,,,,,,,,,,,,,,,2015_Oct_24_1302,K,facesParametric,12,59.6459613197,
./basicStim/21M_AN_O.jpg,,0,37,37,42,,,,,,,,,,,None,None,ANG,1.555,None,None,None,None,,,,,,,,,,,,,,,2015_Oct_24_1302,K,facesParametric,12,59.6459613197,
./basicStim/06F_HA_O.jpg,,0,38,38,24,,,,,,,,,,,HAP,1.849,None,None,None,None,None,None,,,,,,,,,,,,,,,2015_Oct_24_1302,K,facesParametric,12,59.6459613197,
./basicStim/21M_FE_O.jpg,,0,39,39,44,,,,,,,,,,,None,None,FEA,3.429,None,None,None,None,,,,,,,,,,,,,,,2015_Oct_24_1302,K,facesParametric,12,59.6459613197,
./basicStim/36M_DI_O.jpg,,0,40,40,78,,,,,,,,,,,None,None,None,None,DIS,3.636,None,None,,,,,,,,,,,,,,,2015_Oct_24_1302,K,facesParametric,12,59.6459613197,
./basicStim/07F_AN_O.jpg,,0,41,41,28,,,,,,,,,,,None,None,ANG,1.934,None,None,None,None,,,,,,,,,,,,,,,2015_Oct_24_1302,K,facesParametric,12,59.6459613197,
./basicStim/36M_FE_O.jpg,,0,42,42,79,,,,,,,,,,,None,None,FEA,3.779,None,None,None,None,,,,,,,,,,,,,,,2015_Oct_24_1302,K,facesParametric,12,59.6459613197,
./basicStim/06F_FE_O.jpg,,0,43,43,23,,,,,,,,,,,None,None,FEA,1.06,None,None,None,None,,,,,,,,,,,,,,,2015_Oct_24_1302,K,facesParametric,12,59.6459613197,
./basicStim/23M_SA_C.jpg,,0,44,44,53,,,,,,,,,,,None,None,None,None,DIS,3.54,None,None,,,,,,,,,,,,,,,2015_Oct_24_1302,K,facesParametric,12,59.6459613197,
./basicStim/24M_AN_O.jpg,,0,45,45,56,,,,,,,,,,,None,None,ANG,1.009,None,None,None,None,,,,,,,,,,,,,,,2015_Oct_24_1302,K,facesParametric,12,59.6459613197,
./basicStim/06F_NE_C.jpg,,0,46,46,27,,,,,,,,,,,None,None,None,None,None,None,NTR,3.148,,,,,,,,,,,,,,,2015_Oct_24_1302,K,facesParametric,12,59.6459613197,
./basicStim/09F_SP_O.jpg,,0,47,47,40,,,,,,,,,,,None,None,None,None,SUP,3.072,None,None,,,,,,,,,,,,,,,2015_Oct_24_1302,K,facesParametric,12,59.6459613197,
./basicStim/01F_DI_O.jpg,,0,48,48,1,,,,,,,,,,,None,None,ANG,4.915,None,None,None,None,,,,,,,,,,,,,,,2015_Oct_24_1302,K,facesParametric,12,59.6459613197,
./basicStim/07F_NE_C.jpg,,0,49,49,34,,,,,,,,,,,None,None,None,None,None,None,NTR,1.528,,,,,,,,,,,,,,,2015_Oct_24_1302,K,facesParametric,12,59.6459613197,
./basicStim/03F_HA_O.jpg,,0,50,50,17,,,,,,,,,,,HAP,1.329,None,None,None,None,None,None,,,,,,,,,,,,,,,2015_Oct_24_1302,K,facesParametric,12,59.6459613197,
./basicStim/01F_SP_O.jpg,,0,51,51,5,,,,,,,,,,,None,None,None,None,SUP,6.599,None,None,,,,,,,,,,,,,,,2015_Oct_24_1302,K,facesParametric,12,59.6459613197,
./basicStim/07F_HA_O.jpg,,0,52,52,31,,,,,,,,,,,HAP,0.913,None,None,None,None,None,None,,,,,,,,,,,,,,,2015_Oct_24_1302,K,facesParametric,12,59.6459613197,
./basicStim/28M_SA_C.jpg,,0,53,53,67,,,,,,,,,,,None,None,None,None,DIS,4.108,None,None,,,,,,,,,,,,,,,2015_Oct_24_1302,K,facesParametric,12,59.6459613197,
./basicStim/34M_FE_O.jpg,,0,54,54,72,,,,,,,,,,,None,None,None,None,SUP,3.976,None,None,,,,,,,,,,,,,,,2015_Oct_24_1302,K,facesParametric,12,59.6459613197,
./basicStim/06F_SP_O.jpg,,0,55,55,26,,,,,,,,,,,None,None,FEA,4.208,None,None,None,None,,,,,,,,,,,,,,,2015_Oct_24_1302,K,facesParametric,12,59.6459613197,
./basicStim/09F_SA_C.jpg,,0,56,56,39,,,,,,,,,,,None,None,ANG,1.513,None,None,None,None,,,,,,,,,,,,,,,2015_Oct_24_1302,K,facesParametric,12,59.6459613197,
./basicStim/02F_NE_C.jpg,,0,57,57,13,,,,,,,,,,,None,None,None,None,None,None,NTR,2.297,,,,,,,,,,,,,,,2015_Oct_24_1302,K,facesParametric,12,59.6459613197,
./basicStim/02F_SA_C.jpg,,0,58,58,11,,,,,,,,,,,SAD,1.381,None,None,None,None,None,None,,,,,,,,,,,,,,,2015_Oct_24_1302,K,facesParametric,12,59.6459613197,
./basicStim/34M_HA_O.jpg,,0,59,59,73,,,,,,,,,,,HAP,1.429,None,None,None,None,None,None,,,,,,,,,,,,,,,2015_Oct_24_1302,K,facesParametric,12,59.6459613197,
./basicStim/28M_NE_C.jpg,,0,60,60,69,,,,,,,,,,,None,None,None,None,None,None,NTR,2.281,,,,,,,,,,,,,,,2015_Oct_24_1302,K,facesParametric,12,59.6459613197,
./basicStim/01F_AN_O.jpg,,0,61,61,0,,,,,,,,,,,None,None,ANG,2.156,None,None,None,None,,,,,,,,,,,,,,,2015_Oct_24_1302,K,facesParametric,12,59.6459613197,
./basicStim/07F_DI_O.jpg,,0,62,62,29,,,,,,,,,,,None,None,ANG,6.687,None,None,None,None,,,,,,,,,,,,,,,2015_Oct_24_1302,K,facesParametric,12,59.6459613197,
./basicStim/28M_SP_O.jpg,,0,63,63,68,,,,,,,,,,,None,None,None,None,SUP,1.154,None,None,,,,,,,,,,,,,,,2015_Oct_24_1302,K,facesParametric,12,59.6459613197,
./basicStim/24M_NE_C.jpg,,0,64,64,62,,,,,,,,,,,None,None,None,None,None,None,NTR,1.612,,,,,,,,,,,,,,,2015_Oct_24_1302,K,facesParametric,12,59.6459613197,
./basicStim/24M_FE_O.jpg,,0,65,65,58,,,,,,,,,,,None,None,FEA,2.201,None,None,None,None,,,,,,,,,,,,,,,2015_Oct_24_1302,K,facesParametric,12,59.6459613197,
./basicStim/36M_AN_O.jpg,,0,66,66,77,,,,,,,,,,,None,None,ANG,0.805,None,None,None,None,,,,,,,,,,,,,,,2015_Oct_24_1302,K,facesParametric,12,59.6459613197,
./basicStim/02F_DI_O.jpg,,0,67,67,8,,,,,,,,,,,None,None,None,None,DIS,3.685,None,None,,,,,,,,,,,,,,,2015_Oct_24_1302,K,facesParametric,12,59.6459613197,
./basicStim/28M_AN_O.jpg,,0,68,68,63,,,,,,,,,,,None,None,None,None,DIS,4.751,None,None,,,,,,,,,,,,,,,2015_Oct_24_1302,K,facesParametric,12,59.6459613197,
./basicStim/23M_NE_C.jpg,,0,69,69,55,,,,,,,,,,,None,None,None,None,None,None,NTR,2.16,,,,,,,,,,,,,,,2015_Oct_24_1302,K,facesParametric,12,59.6459613197,
./basicStim/03F_DI_O.jpg,,0,70,70,15,,,,,,,,,,,None,None,None,None,DIS,4.198,None,None,,,,,,,,,,,,,,,2015_Oct_24_1302,K,facesParametric,12,59.6459613197,
./basicStim/01F_SA_C.jpg,,0,71,71,4,,,,,,,,,,,SAD,1.218,None,None,None,None,None,None,,,,,,,,,,,,,,,2015_Oct_24_1302,K,facesParametric,12,59.6459613197,
./basicStim/21M_DI_O.jpg,,0,72,72,43,,,,,,,,,,,None,None,None,None,SUP,5.211,None,None,,,,,,,,,,,,,,,2015_Oct_24_1302,K,facesParametric,12,59.6459613197,
./basicStim/24M_HA_O.jpg,,0,73,73,59,,,,,,,,,,,HAP,1.32,None,None,None,None,None,None,,,,,,,,,,,,,,,2015_Oct_24_1302,K,facesParametric,12,59.6459613197,
./basicStim/09F_HA_O.jpg,,0,74,74,38,,,,,,,,,,,HAP,1.069,None,None,None,None,None,None,,,,,,,,,,,,,,,2015_Oct_24_1302,K,facesParametric,12,59.6459613197,
./basicStim/02F_FE_O.jpg,,0,75,75,9,,,,,,,,,,,None,None,None,None,DIS,4.944,None,None,,,,,,,,,,,,,,,2015_Oct_24_1302,K,facesParametric,12,59.6459613197,
./basicStim/23M_HA_O.jpg,,0,76,76,52,,,,,,,,,,,HAP,0.975,None,None,None,None,None,None,,,,,,,,,,,,,,,2015_Oct_24_1302,K,facesParametric,12,59.6459613197,
./basicStim/02F_HA_O.jpg,,0,77,77,10,,,,,,,,,,,HAP,0.407,None,None,None,None,None,None,,,,,,,,,,,,,,,2015_Oct_24_1302,K,facesParametric,12,59.6459613197,
./basicStim/23M_FE_O.jpg,,0,78,78,51,,,,,,,,,,,None,None,None,None,SUP,3.218,None,None,,,,,,,,,,,,,,,2015_Oct_24_1302,K,facesParametric,12,59.6459613197,
./basicStim/24M_SP_O.jpg,,0,79,79,61,,,,,,,,,,,None,None,None,None,SUP,9.47,None,None,,,,,,,,,,,,,,,2015_Oct_24_1302,K,facesParametric,12,59.6459613197,
./basicStim/01F_HA_O.jpg,,0,80,80,3,,,,,,,,,,,HAP,1.378,None,None,None,None,None,None,,,,,,,,,,,,,,,2015_Oct_24_1302,K,facesParametric,12,59.6459613197,
./basicStim/28M_FE_O.jpg,,0,81,81,65,,,,,,,,,,,None,None,None,None,DIS,7.18,None,None,,,,,,,,,,,,,,,2015_Oct_24_1302,K,facesParametric,12,59.6459613197,
./basicStim/21M_SA_C.jpg,,0,82,82,46,,,,,,,,,,,None,None,None,None,SUP,3.266,None,None,,,,,,,,,,,,,,,2015_Oct_24_1302,K,facesParametric,12,59.6459613197,
./basicStim/34M_DI_O.jpg,,0,83,83,71,,,,,,,,,,,None,None,None,None,DIS,4.815,None,None,,,,,,,,,,,,,,,2015_Oct_24_1302,K,facesParametric,12,59.6459613197,
,,,,,,,,,,,,,,,,,,,,,,,,return,2.32881808281,,,,,,,,,,,,,2015_Oct_24_1302,K,facesParametric,12,59.6459613197,
,,,,,,,,,,,,,,return,13.658908844,,,,,,,,,,,,,,,,,,,,,,,2015_Oct_24_1302,K,facesParametric,12,59.6459613197,
,,,,,,,,,,,,,,,,,,,,,,,,return,11.5304560661,,,,,,,,,,,,,2015_Oct_24_1302,K,facesParametric,12,59.6459613197,
,,,,,,,,,,,,,,,,,,,,,,,,,,return,37.9272150993,,,,,,,,,,,2015_Oct_24_1302,K,facesParametric,12,59.6459613197,
./stim/MorphF9_01_orig.jpg,0,,,,,0,0,0,0,,,,,,,,,,,,,,,,,,,19.892578125,12.451171875,0,0,1,3.73678183556,,,,,2015_Oct_24_1302,K,facesParametric,12,59.6459613197,
./stim/MorphM1_02_orig.jpg,1,,,,,0,1,1,1,,,,,,,,,,,,,,,,,,,18.8671875,11.982421875,0,0,1,3.63446497917,,,,,2015_Oct_24_1302,K,facesParametric,12,59.6459613197,
./stim/MorphM2_01_orig.jpg,2,,,,,0,2,2,2,,,,,,,,,,,,,,,,,,,18.779296875,12.0703125,0,0,1,2.09367203712,,,,,2015_Oct_24_1302,K,facesParametric,12,59.6459613197,
./stim/MorphF2_07_orig.jpg,3,,,,,0,3,3,3,,,,,,,,,,,,,,,,,,,18.310546875,11.923828125,1,0,0,1.79188108444,,,,,2015_Oct_24_1302,K,facesParametric,12,59.6459613197,
./stim/MorphF9_02_orig.jpg,4,,,,,0,4,4,4,,,,,,,,,,,,,,,,,,,18.515625,11.89453125,0,0,1,2.49605798721,,,,,2015_Oct_24_1302,K,facesParametric,12,59.6459613197,
./stim/MorphF6_05_orig.jpg,5,,,,,0,5,5,5,,,,,,,,,,,,,,,,,,,18.427734375,12.01171875,1,0,0,0.717751979828,,,,,2015_Oct_24_1302,K,facesParametric,12,59.6459613197,
./stim/MorphM5_05_orig.jpg,6,,,,,0,6,6,6,,,,,,,,,,,,,,,,,,,18.427734375,12.1875,0,0,1,1.32090711594,,,,,2015_Oct_24_1302,K,facesParametric,12,59.6459613197,
./stim/MorphF10_02_orig.jpg,7,,,,,0,7,7,7,,,,,,,,,,,,,,,,,,,18.45703125,12.099609375,1,0,0,0.986138820648,,,,,2015_Oct_24_1302,K,facesParametric,12,59.6459613197,
./stim/MorphM6_02_orig.jpg,8,,,,,0,8,8,8,,,,,,,,,,,,,,,,,,,18.22265625,12.099609375,0,0,1,8.17721486092,,,,,2015_Oct_24_1302,K,facesParametric,12,59.6459613197,
./stim/MorphM4_01_orig.jpg,9,,,,,0,9,9,9,,,,,,,,,,,,,,,,,,,17.98828125,11.748046875,0,0,1,11.9483089447,,,,,2015_Oct_24_1302,K,facesParametric,12,59.6459613197,
./stim/MorphM8_05_orig.jpg,10,,,,,0,10,10,10,,,,,,,,,,,,,,,,,,,17.958984375,11.748046875,1,0,0,1.85797595978,,,,,2015_Oct_24_1302,K,facesParametric,12,59.6459613197,
./stim/MorphF10_06_orig.jpg,11,,,,,0,11,11,11,,,,,,,,,,,,,,,,,,,18.046875,11.89453125,1,0,0,0.937366008759,,,,,2015_Oct_24_1302,K,facesParametric,12,59.6459613197,
./stim/MorphM3_05_orig.jpg,12,,,,,0,12,12,12,,,,,,,,,,,,,,,,,,,18.046875,12.24609375,0,0,1,12.9682888985,,,,,2015_Oct_24_1302,K,facesParametric,12,59.6459613197,
./stim/MorphM4_03_orig.jpg,13,,,,,0,13,13,13,,,,,,,,,,,,,,,,,,,18.046875,12.12890625,0,0,1,0.952483892441,,,,,2015_Oct_24_1302,K,facesParametric,12,59.6459613197,
./stim/MorphF10_10_orig.jpg,14,,,,,0,14,14,14,,,,,,,,,,,,,,,,,,,17.9296875,11.953125,1,0,0,0.684092998505,,,,,2015_Oct_24_1302,K,facesParametric,12,59.6459613197,
./stim/MorphF1_02_orig.jpg,15,,,,,0,15,15,15,,,,,,,,,,,,,,,,,,,18.076171875,11.865234375,0,0,1,1.17118000984,,,,,2015_Oct_24_1302,K,facesParametric,12,59.6459613197,
./stim/MorphM9_07_orig.jpg,16,,,,,0,16,16,16,,,,,,,,,,,,,,,,,,,17.4609375,12.59765625,0,0,1,18.7857050896,,,,,2015_Oct_24_1302,K,facesParametric,12,59.6459613197,
./stim/MorphF4_07_orig.jpg,17,,,,,0,17,17,17,,,,,,,,,,,,,,,,,,,17.578125,12.568359375,1,0,0,1.35643315315,,,,,2015_Oct_24_1302,K,facesParametric,12,59.6459613197,
./stim/MorphF10_05_orig.jpg,18,,,,,0,18,18,18,,,,,,,,,,,,,,,,,,,17.4609375,12.744140625,1,0,0,0.7865421772,,,,,2015_Oct_24_1302,K,facesParametric,12,59.6459613197,
./stim/MorphM3_03_orig.jpg,19,,,,,0,19,19,19,,,,,,,,,,,,,,,,,,,17.8125,12.626953125,1,0,0,4.92638492584,,,,,2015_Oct_24_1302,K,facesParametric,12,59.6459613197,
./stim/MorphF3_05_orig.jpg,20,,,,,0,20,20,20,,,,,,,,,,,,,,,,,,,17.841796875,12.978515625,1,0,0,2.24200105667,,,,,2015_Oct_24_1302,K,facesParametric,12,59.6459613197,
./stim/MorphM5_10_orig.jpg,21,,,,,0,21,21,21,,,,,,,,,,,,,,,,,,,17.724609375,13.06640625,1,0,0,1.10505008698,,,,,2015_Oct_24_1302,K,facesParametric,12,59.6459613197,
./stim/MorphF5_09_orig.jpg,22,,,,,0,22,22,22,,,,,,,,,,,,,,,,,,,17.666015625,12.978515625,1,0,0,1.75705695152,,,,,2015_Oct_24_1302,K,facesParametric,12,59.6459613197,
./stim/MorphF3_01_orig.jpg,23,,,,,0,23,23,23,,,,,,,,,,,,,,,,,,,17.314453125,12.890625,0,0,1,4.65651512146,,,,,2015_Oct_24_1302,K,facesParametric,12,59.6459613197,
./stim/MorphM5_00_orig.jpg,24,,,,,0,24,24,24,,,,,,,,,,,,,,,,,,,16.962890625,12.71484375,0,0,1,1.18816304207,,,,,2015_Oct_24_1302,K,facesParametric,12,59.6459613197,
./stim/MorphF5_04_orig.jpg,25,,,,,0,25,25,25,,,,,,,,,,,,,,,,,,,16.962890625,12.919921875,0,0,1,1.13839697838,,,,,2015_Oct_24_1302,K,facesParametric,12,59.6459613197,
./stim/MorphF2_08_orig.jpg,26,,,,,0,26,26,26,,,,,,,,,,,,,,,,,,,16.962890625,12.861328125,1,0,0,0.869982004166,,,,,2015_Oct_24_1302,K,facesParametric,12,59.6459613197,
./stim/MorphF7_04_orig.jpg,27,,,,,0,27,27,27,,,,,,,,,,,,,,,,,,,16.81640625,12.802734375,1,0,0,1.40416407585,,,,,2015_Oct_24_1302,K,facesParametric,12,59.6459613197,
./stim/MorphF4_06_orig.jpg,28,,,,,0,28,28,28,,,,,,,,,,,,,,,,,,,18.22265625,12.94921875,0,0,1,15.4166800976,,,,,2015_Oct_24_1302,K,facesParametric,12,59.6459613197,
./stim/MorphM5_07_orig.jpg,29,,,,,0,29,29,29,,,,,,,,,,,,,,,,,,,17.75390625,13.037109375,1,0,0,11.8312339783,,,,,2015_Oct_24_1302,K,facesParametric,12,59.6459613197,
./stim/MorphF9_08_orig.jpg,30,,,,,0,30,30,30,,,,,,,,,,,,,,,,,,,17.40234375,13.154296875,1,0,0,3.09881186485,,,,,2015_Oct_24_1302,K,facesParametric,12,59.6459613197,
./stim/MorphM8_07_orig.jpg,31,,,,,0,31,31,31,,,,,,,,,,,,,,,,,,,17.51953125,13.125,1,0,0,7.79080200195,,,,,2015_Oct_24_1302,K,facesParametric,12,59.6459613197,
./stim/MorphM4_08_orig.jpg,32,,,,,0,32,32,32,,,,,,,,,,,,,,,,,,,17.87109375,13.18359375,1,0,0,1.67470598221,,,,,2015_Oct_24_1302,K,facesParametric,12,59.6459613197,
./stim/MorphF1_06_orig.jpg,33,,,,,0,33,33,33,,,,,,,,,,,,,,,,,,,17.87109375,13.18359375,0,0,1,1.54070186615,,,,,2015_Oct_24_1302,K,facesParametric,12,59.6459613197,
./stim/MorphM6_08_orig.jpg,34,,,,,0,34,34,34,,,,,,,,,,,,,,,,,,,17.490234375,12.919921875,1,0,0,9.23392605782,,,,,2015_Oct_24_1302,K,facesParametric,12,59.6459613197,
./stim/MorphM4_07_orig.jpg,35,,,,,0,35,35,35,,,,,,,,,,,,,,,,,,,17.490234375,13.037109375,1,0,0,0.836619853973,,,,,2015_Oct_24_1302,K,facesParametric,12,59.6459613197,
./stim/MorphM6_10_orig.jpg,36,,,,,0,36,36,36,,,,,,,,,,,,,,,,,,,17.75390625,13.037109375,1,0,0,2.47732615471,,,,,2015_Oct_24_1302,K,facesParametric,12,59.6459613197,
./stim/MorphM2_06_orig.jpg,37,,,,,0,37,37,37,,,,,,,,,,,,,,,,,,,17.490234375,12.94921875,0,0,1,1.00328207016,,,,,2015_Oct_24_1302,K,facesParametric,12,59.6459613197,
./stim/MorphF6_10_orig.jpg,38,,,,,0,38,38,38,,,,,,,,,,,,,,,,,,,17.431640625,12.65625,1,0,0,0.870362997055,,,,,2015_Oct_24_1302,K,facesParametric,12,59.6459613197,
./stim/MorphF3_09_orig.jpg,39,,,,,0,39,39,39,,,,,,,,,,,,,,,,,,,17.373046875,12.861328125,1,0,0,0.870294094086,,,,,2015_Oct_24_1302,K,facesParametric,12,59.6459613197,
./stim/MorphM7_00_orig.jpg,40,,,,,0,40,40,40,,,,,,,,,,,,,,,,,,,17.314453125,13.037109375,0,0,1,1.17190599442,,,,,2015_Oct_24_1302,K,facesParametric,12,59.6459613197,
./stim/MorphM9_10_orig.jpg,41,,,,,0,41,41,41,,,,,,,,,,,,,,,,,,,17.314453125,13.095703125,1,0,0,2.68016004562,,,,,2015_Oct_24_1302,K,facesParametric,12,59.6459613197,
./stim/MorphF4_04_orig.jpg,42,,,,,0,42,42,42,,,,,,,,,,,,,,,,,,,17.080078125,13.18359375,0,0,1,0.870198011398,,,,,2015_Oct_24_1302,K,facesParametric,12,59.6459613197,
./stim/MorphM3_01_orig.jpg,43,,,,,0,43,43,43,,,,,,,,,,,,,,,,,,,17.080078125,13.18359375,1,0,0,2.94837403297,,,,,2015_Oct_24_1302,K,facesParametric,12,59.6459613197,
./stim/MorphF1_03_orig.jpg,44,,,,,0,44,44,44,,,,,,,,,,,,,,,,,,,17.314453125,12.861328125,0,0,1,0.918287992477,,,,,2015_Oct_24_1302,K,facesParametric,12,59.6459613197,
./stim/MorphM8_10_orig.jpg,45,,,,,0,45,45,45,,,,,,,,,,,,,,,,,,,17.080078125,12.890625,1,0,0,1.23912000656,,,,,2015_Oct_24_1302,K,facesParametric,12,59.6459613197,
./stim/MorphM1_05_orig.jpg,46,,,,,0,46,46,46,,,,,,,,,,,,,,,,,,,16.93359375,13.18359375,0,0,1,1.47362923622,,,,,2015_Oct_24_1302,K,facesParametric,12,59.6459613197,
./stim/MorphF4_10_orig.jpg,47,,,,,0,47,47,47,,,,,,,,,,,,,,,,,,,16.962890625,13.18359375,1,0,0,3.61844301224,,,,,2015_Oct_24_1302,K,facesParametric,12,59.6459613197,
./stim/MorphF2_02_orig.jpg,48,,,,,0,48,48,48,,,,,,,,,,,,,,,,,,,16.845703125,13.18359375,0,0,1,2.59698009491,,,,,2015_Oct_24_1302,K,facesParametric,12,59.6459613197,
./stim/MorphM5_03_orig.jpg,49,,,,,0,49,49,49,,,,,,,,,,,,,,,,,,,16.81640625,13.18359375,0,0,1,1.92579603195,,,,,2015_Oct_24_1302,K,facesParametric,12,59.6459613197,
./stim/MorphM2_05_orig.jpg,50,,,,,0,50,50,50,,,,,,,,,,,,,,,,,,,17.8125,13.18359375,0,0,1,17.9820718765,,,,,2015_Oct_24_1302,K,facesParametric,12,59.6459613197,
./stim/MorphF6_06_orig.jpg,51,,,,,0,51,51,51,,,,,,,,,,,,,,,,,,,17.900390625,12.83203125,1,0,0,0.854026079178,,,,,2015_Oct_24_1302,K,facesParametric,12,59.6459613197,
./stim/MorphM9_02_orig.jpg,52,,,,,0,52,52,52,,,,,,,,,,,,,,,,,,,18.1640625,12.83203125,0,0,1,2.77837896347,,,,,2015_Oct_24_1302,K,facesParametric,12,59.6459613197,
./stim/MorphM10_10_orig.jpg,53,,,,,0,53,53,53,,,,,,,,,,,,,,,,,,,18.076171875,12.744140625,1,0,0,0.803332090378,,,,,2015_Oct_24_1302,K,facesParametric,12,59.6459613197,
./stim/MorphF7_07_orig.jpg,54,,,,,0,54,54,54,,,,,,,,,,,,,,,,,,,18.046875,12.802734375,1,0,0,0.987501859665,,,,,2015_Oct_24_1302,K,facesParametric,12,59.6459613197,
./stim/MorphF9_03_orig.jpg,55,,,,,0,55,55,55,,,,,,,,,,,,,,,,,,,18.22265625,12.744140625,0,0,1,4.90818881989,,,,,2015_Oct_24_1302,K,facesParametric,12,59.6459613197,
./stim/MorphM6_01_orig.jpg,56,,,,,0,56,56,56,,,,,,,,,,,,,,,,,,,18.076171875,12.59765625,0,0,1,4.37293410301,,,,,2015_Oct_24_1302,K,facesParametric,12,59.6459613197,
./stim/MorphM10_03_orig.jpg,57,,,,,0,57,57,57,,,,,,,,,,,,,,,,,,,18.10546875,12.509765625,1,0,0,1.07132411003,,,,,2015_Oct_24_1302,K,facesParametric,12,59.6459613197,
./stim/MorphF1_07_orig.jpg,58,,,,,0,58,58,58,,,,,,,,,,,,,,,,,,,18.1640625,12.59765625,0,0,1,1.07152605057,,,,,2015_Oct_24_1302,K,facesParametric,12,59.6459613197,
./stim/MorphM2_07_orig.jpg,59,,,,,0,59,59,59,,,,,,,,,,,,,,,,,,,18.251953125,12.59765625,1,0,0,1.15540194511,,,,,2015_Oct_24_1302,K,facesParametric,12,59.6459613197,
./stim/MorphF8_03_orig.jpg,60,,,,,0,60,60,60,,,,,,,,,,,,,,,,,,,18.33984375,12.36328125,0,0,1,1.23878908157,,,,,2015_Oct_24_1302,K,facesParametric,12,59.6459613197,
./stim/MorphF2_10_orig.jpg,61,,,,,0,61,61,61,,,,,,,,,,,,,,,,,,,18.427734375,12.275390625,1,0,0,0.87028002739,,,,,2015_Oct_24_1302,K,facesParametric,12,59.6459613197,
./stim/MorphM9_06_orig.jpg,62,,,,,0,62,62,62,,,,,,,,,,,,,,,,,,,18.22265625,11.71875,0,0,1,10.1552391052,,,,,2015_Oct_24_1302,K,facesParametric,12,59.6459613197,
./stim/MorphF7_10_orig.jpg,63,,,,,0,63,63,63,,,,,,,,,,,,,,,,,,,18.22265625,11.71875,1,0,0,0.702819824219,,,,,2015_Oct_24_1302,K,facesParametric,12,59.6459613197,
./stim/MorphF9_07_orig.jpg,64,,,,,0,64,64,64,,,,,,,,,,,,,,,,,,,17.98828125,11.71875,1,0,0,1.54177689552,,,,,2015_Oct_24_1302,K,facesParametric,12,59.6459613197,
./stim/MorphF4_08_orig.jpg,65,,,,,0,65,65,65,,,,,,,,,,,,,,,,,,,17.900390625,11.6015625,1,0,0,0.919275999069,,,,,2015_Oct_24_1302,K,facesParametric,12,59.6459613197,
./stim/MorphF7_02_orig.jpg,66,,,,,0,66,66,66,,,,,,,,,,,,,,,,,,,17.900390625,11.6015625,1,0,0,0.920529842377,,,,,2015_Oct_24_1302,K,facesParametric,12,59.6459613197,
./stim/MorphM1_10_orig.jpg,67,,,,,0,67,67,67,,,,,,,,,,,,,,,,,,,18.017578125,11.71875,1,0,0,3.16504406929,,,,,2015_Oct_24_1302,K,facesParametric,12,59.6459613197,
./stim/MorphM10_05_orig.jpg,68,,,,,0,68,68,68,,,,,,,,,,,,,,,,,,,17.783203125,11.66015625,0,0,1,2.84753394127,,,,,2015_Oct_24_1302,K,facesParametric,12,59.6459613197,
./stim/MorphF4_09_orig.jpg,69,,,,,0,69,69,69,,,,,,,,,,,,,,,,,,,17.4609375,11.71875,1,0,0,3.6858048439,,,,,2015_Oct_24_1302,K,facesParametric,12,59.6459613197,
./stim/MorphM4_04_orig.jpg,70,,,,,0,70,70,70,,,,,,,,,,,,,,,,,,,17.40234375,11.71875,0,0,1,2.09238195419,,,,,2015_Oct_24_1302,K,facesParametric,12,59.6459613197,
./stim/MorphF10_04_orig.jpg,71,,,,,0,71,71,71,,,,,,,,,,,,,,,,,,,17.607421875,11.572265625,1,0,0,2.73055195808,,,,,2015_Oct_24_1302,K,facesParametric,12,59.6459613197,
./stim/MorphM4_06_orig.jpg,72,,,,,0,72,72,72,,,,,,,,,,,,,,,,,,,17.51953125,11.42578125,0,0,1,3.35063695908,,,,,2015_Oct_24_1302,K,facesParametric,12,59.6459613197,
./stim/MorphM6_04_orig.jpg,73,,,,,0,73,73,73,,,,,,,,,,,,,,,,,,,17.548828125,11.455078125,1,0,0,3.14698600769,,,,,2015_Oct_24_1302,K,facesParametric,12,59.6459613197,
./stim/MorphF8_10_orig.jpg,74,,,,,0,74,74,74,,,,,,,,,,,,,,,,,,,17.197265625,11.6015625,1,0,0,3.7365758419,,,,,2015_Oct_24_1302,K,facesParametric,12,59.6459613197,
./stim/MorphM8_01_orig.jpg,75,,,,,0,75,75,75,,,,,,,,,,,,,,,,,,,17.16796875,11.455078125,1,0,0,3.30049395561,,,,,2015_Oct_24_1302,K,facesParametric,12,59.6459613197,
./stim/MorphF10_00_orig.jpg,76,,,,,0,76,76,76,,,,,,,,,,,,,,,,,,,17.109375,11.484375,0,0,1,1.16966795921,,,,,2015_Oct_24_1302,K,facesParametric,12,59.6459613197,
./stim/MorphM8_02_orig.jpg,77,,,,,0,77,77,77,,,,,,,,,,,,,,,,,,,17.138671875,11.572265625,1,0,0,1.55830001831,,,,,2015_Oct_24_1302,K,facesParametric,12,59.6459613197,
./stim/MorphM3_07_orig.jpg,78,,,,,0,78,78,78,,,,,,,,,,,,,,,,,,,17.197265625,11.572265625,1,0,0,0.969798088074,,,,,2015_Oct_24_1302,K,facesParametric,12,59.6459613197,
./stim/MorphF2_04_orig.jpg,79,,,,,0,79,79,79,,,,,,,,,,,,,,,,,,,16.962890625,11.513671875,0,0,1,2.37748479843,,,,,2015_Oct_24_1302,K,facesParametric,12,59.6459613197,
./stim/MorphF8_04_orig.jpg,80,,,,,0,80,80,80,,,,,,,,,,,,,,,,,,,17.080078125,11.484375,0,0,1,1.12084412575,,,,,2015_Oct_24_1302,K,facesParametric,12,59.6459613197,
./stim/MorphM10_07_orig.jpg,81,,,,,0,81,81,81,,,,,,,,,,,,,,,,,,,17.080078125,11.513671875,1,0,0,0.668960094452,,,,,2015_Oct_24_1302,K,facesParametric,12,59.6459613197,
./stim/MorphF9_10_orig.jpg,82,,,,,0,82,82,82,,,,,,,,,,,,,,,,,,,16.9921875,11.484375,1,0,0,1.00447010994,,,,,2015_Oct_24_1302,K,facesParametric,12,59.6459613197,
./stim/MorphF6_00_orig.jpg,83,,,,,0,83,83,83,,,,,,,,,,,,,,,,,,,16.9921875,11.220703125,0,0,1,3.73721599579,,,,,2015_Oct_24_1302,K,facesParametric,12,59.6459613197,
./stim/MorphF5_06_orig.jpg,84,,,,,0,84,84,84,,,,,,,,,,,,,,,,,,,16.93359375,11.455078125,1,0,0,6.24959301949,,,,,2015_Oct_24_1302,K,facesParametric,12,59.6459613197,
./stim/MorphM7_08_orig.jpg,85,,,,,0,85,85,85,,,,,,,,,,,,,,,,,,,16.845703125,11.54296875,1,0,0,0.835327863693,,,,,2015_Oct_24_1302,K,facesParametric,12,59.6459613197,
./stim/MorphF3_00_orig.jpg,86,,,,,0,86,86,86,,,,,,,,,,,,,,,,,,,16.787109375,11.54296875,0,0,1,0.853030920029,,,,,2015_Oct_24_1302,K,facesParametric,12,59.6459613197,
./stim/MorphF9_06_orig.jpg,87,,,,,0,87,87,87,,,,,,,,,,,,,,,,,,,16.7578125,11.484375,1,0,0,2.98017311096,,,,,2015_Oct_24_1302,K,facesParametric,12,59.6459613197,
./stim/MorphM1_06_orig.jpg,88,,,,,0,88,88,88,,,,,,,,,,,,,,,,,,,16.669921875,11.71875,0,0,1,7.47162485123,,,,,2015_Oct_24_1302,K,facesParametric,12,59.6459613197,
./stim/MorphF5_07_orig.jpg,89,,,,,0,89,89,89,,,,,,,,,,,,,,,,,,,16.69921875,11.689453125,1,0,0,1.9431040287,,,,,2015_Oct_24_1302,K,facesParametric,12,59.6459613197,
./stim/MorphM10_01_orig.jpg,90,,,,,0,90,90,90,,,,,,,,,,,,,,,,,,,16.728515625,11.54296875,0,0,1,1.15537810326,,,,,2015_Oct_24_1302,K,facesParametric,12,59.6459613197,
./stim/MorphF7_06_orig.jpg,91,,,,,0,91,91,91,,,,,,,,,,,,,,,,,,,16.787109375,11.396484375,1,0,0,0.919334888458,,,,,2015_Oct_24_1302,K,facesParametric,12,59.6459613197,
./stim/MorphF3_06_orig.jpg,92,,,,,0,92,92,92,,,,,,,,,,,,,,,,,,,16.69921875,11.3671875,1,0,0,1.02170014381,,,,,2015_Oct_24_1302,K,facesParametric,12,59.6459613197,
./stim/MorphM7_09_orig.jpg,93,,,,,0,93,93,93,,,,,,,,,,,,,,,,,,,16.669921875,11.337890625,1,0,0,0.651645183563,,,,,2015_Oct_24_1302,K,facesParametric,12,59.6459613197,
./stim/MorphM9_05_orig.jpg,94,,,,,0,94,94,94,,,,,,,,,,,,,,,,,,,16.376953125,11.396484375,1,0,0,3.4842941761,,,,,2015_Oct_24_1302,K,facesParametric,12,59.6459613197,
./stim/MorphF1_01_orig.jpg,95,,,,,0,95,95,95,,,,,,,,,,,,,,,,,,,16.46484375,11.484375,0,0,1,0.887619972229,,,,,2015_Oct_24_1302,K,facesParametric,12,59.6459613197,
./stim/MorphM5_02_orig.jpg,96,,,,,0,96,96,96,,,,,,,,,,,,,,,,,,,16.552734375,11.630859375,0,0,1,0.954186916351,,,,,2015_Oct_24_1302,K,facesParametric,12,59.6459613197,
./stim/MorphF10_09_orig.jpg,97,,,,,0,97,97,97,,,,,,,,,,,,,,,,,,,16.611328125,11.513671875,1,0,0,0.702264070511,,,,,2015_Oct_24_1302,K,facesParametric,12,59.6459613197,
./stim/MorphF3_07_orig.jpg,98,,,,,0,98,98,98,,,,,,,,,,,,,,,,,,,16.7578125,11.54296875,1,0,0,0.652451992035,,,,,2015_Oct_24_1302,K,facesParametric,12,59.6459613197,
./stim/MorphM10_06_orig.jpg,99,,,,,0,99,99,99,,,,,,,,,,,,,,,,,,,16.81640625,11.455078125,1,0,0,0.88512301445,,,,,2015_Oct_24_1302,K,facesParametric,12,59.6459613197,
./stim/MorphF5_05_orig.jpg,100,,,,,0,100,100,100,,,,,,,,,,,,,,,,,,,16.728515625,11.865234375,1,0,0,2.96416497231,,,,,2015_Oct_24_1302,K,facesParametric,12,59.6459613197,
./stim/MorphF9_00_orig.jpg,101,,,,,0,101,101,101,,,,,,,,,,,,,,,,,,,16.728515625,11.806640625,0,0,1,0.954046964645,,,,,2015_Oct_24_1302,K,facesParametric,12,59.6459613197,
./stim/MorphM3_08_orig.jpg,102,,,,,0,102,102,102,,,,,,,,,,,,,,,,,,,16.7578125,11.572265625,1,0,0,0.76962518692,,,,,2015_Oct_24_1302,K,facesParametric,12,59.6459613197,
./stim/MorphF8_00_orig.jpg,103,,,,,0,103,103,103,,,,,,,,,,,,,,,,,,,16.787109375,11.54296875,0,0,1,0.753029823303,,,,,2015_Oct_24_1302,K,facesParametric,12,59.6459613197,
./stim/MorphF4_02_orig.jpg,104,,,,,0,104,104,104,,,,,,,,,,,,,,,,,,,16.93359375,11.455078125,0,0,1,0.719093799591,,,,,2015_Oct_24_1302,K,facesParametric,12,59.6459613197,
./stim/MorphF3_04_orig.jpg,105,,,,,0,105,105,105,,,,,,,,,,,,,,,,,,,17.138671875,11.513671875,1,0,0,0.785765886307,,,,,2015_Oct_24_1302,K,facesParametric,12,59.6459613197,
./stim/MorphF8_07_orig.jpg,106,,,,,0,106,106,106,,,,,,,,,,,,,,,,,,,17.05078125,11.54296875,1,0,0,0.651136875153,,,,,2015_Oct_24_1302,K,facesParametric,12,59.6459613197,
./stim/MorphM7_06_orig.jpg,107,,,,,0,107,107,107,,,,,,,,,,,,,,,,,,,16.904296875,11.89453125,1,0,0,4.38948202133,,,,,2015_Oct_24_1302,K,facesParametric,12,59.6459613197,
./stim/MorphF8_08_orig.jpg,108,,,,,0,108,108,108,,,,,,,,,,,,,,,,,,,17.05078125,11.923828125,1,0,0,2.7960050106,,,,,2015_Oct_24_1302,K,facesParametric,12,59.6459613197,
./stim/MorphF9_05_orig.jpg,109,,,,,0,109,109,109,,,,,,,,,,,,,,,,,,,17.021484375,11.865234375,0,0,1,0.769989967346,,,,,2015_Oct_24_1302,K,facesParametric,12,59.6459613197,
./stim/MorphM10_00_orig.jpg,110,,,,,0,110,110,110,,,,,,,,,,,,,,,,,,,16.875,11.982421875,0,0,1,4.92556214333,,,,,2015_Oct_24_1302,K,facesParametric,12,59.6459613197,
./stim/MorphM3_02_orig.jpg,111,,,,,0,111,111,111,,,,,,,,,,,,,,,,,,,16.81640625,12.158203125,1,0,0,0.954241991043,,,,,2015_Oct_24_1302,K,facesParametric,12,59.6459613197,
./stim/MorphF5_08_orig.jpg,112,,,,,0,112,112,112,,,,,,,,,,,,,,,,,,,16.81640625,12.24609375,1,0,0,1.2556040287,,,,,2015_Oct_24_1302,K,facesParametric,12,59.6459613197,
./stim/MorphF1_05_orig.jpg,113,,,,,0,113,113,113,,,,,,,,,,,,,,,,,,,16.728515625,12.12890625,0,0,1,1.2220261097,,,,,2015_Oct_24_1302,K,facesParametric,12,59.6459613197,
./stim/MorphM1_08_orig.jpg,114,,,,,0,114,114,114,,,,,,,,,,,,,,,,,,,16.40625,11.689453125,1,0,0,3.18309807777,,,,,2015_Oct_24_1302,K,facesParametric,12,59.6459613197,
./stim/MorphF4_03_orig.jpg,115,,,,,0,115,115,115,,,,,,,,,,,,,,,,,,,16.435546875,11.77734375,0,0,1,1.23881292343,,,,,2015_Oct_24_1302,K,facesParametric,12,59.6459613197,
./stim/MorphM8_03_orig.jpg,116,,,,,0,116,116,116,,,,,,,,,,,,,,,,,,,16.5234375,11.8359375,1,0,0,1.08820104599,,,,,2015_Oct_24_1302,K,facesParametric,12,59.6459613197,
./stim/MorphF6_07_orig.jpg,117,,,,,0,117,117,117,,,,,,,,,,,,,,,,,,,16.58203125,11.8359375,1,0,0,0.804567098618,,,,,2015_Oct_24_1302,K,facesParametric,12,59.6459613197,
./stim/MorphF2_09_orig.jpg,118,,,,,0,118,118,118,,,,,,,,,,,,,,,,,,,16.58203125,11.865234375,1,0,0,0.950875043869,,,,,2015_Oct_24_1302,K,facesParametric,12,59.6459613197,
./stim/MorphM5_06_orig.jpg,119,,,,,0,119,119,119,,,,,,,,,,,,,,,,,,,16.552734375,11.923828125,1,0,0,3.58536601067,,,,,2015_Oct_24_1302,K,facesParametric,12,59.6459613197,
./stim/MorphM9_08_orig.jpg,120,,,,,0,120,120,120,,,,,,,,,,,,,,,,,,,16.46484375,11.953125,1,0,0,1.39008307457,,,,,2015_Oct_24_1302,K,facesParametric,12,59.6459613197,
./stim/MorphM6_05_orig.jpg,121,,,,,0,121,121,121,,,,,,,,,,,,,,,,,,,16.2890625,11.689453125,1,0,0,9.46562790871,,,,,2015_Oct_24_1302,K,facesParametric,12,59.6459613197,
./stim/MorphM9_01_orig.jpg,122,,,,,0,122,122,122,,,,,,,,,,,,,,,,,,,16.494140625,11.748046875,0,0,1,1.3228020668,,,,,2015_Oct_24_1302,K,facesParametric,12,59.6459613197,
./stim/MorphF7_03_orig.jpg,123,,,,,0,123,123,123,,,,,,,,,,,,,,,,,,,16.962890625,11.982421875,1,0,0,4.74157810211,,,,,2015_Oct_24_1302,K,facesParametric,12,59.6459613197,
./stim/MorphM7_03_orig.jpg,124,,,,,0,124,124,124,,,,,,,,,,,,,,,,,,,16.904296875,12.24609375,1,0,0,3.50127887726,,,,,2015_Oct_24_1302,K,facesParametric,12,59.6459613197,
./stim/MorphM10_09_orig.jpg,125,,,,,0,125,125,125,,,,,,,,,,,,,,,,,,,16.845703125,12.24609375,1,0,0,0.635994911194,,,,,2015_Oct_24_1302,K,facesParametric,12,59.6459613197,
./stim/MorphF5_02_orig.jpg,126,,,,,0,126,126,126,,,,,,,,,,,,,,,,,,,16.81640625,12.158203125,0,0,1,2.54401087761,,,,,2015_Oct_24_1302,K,facesParametric,12,59.6459613197,
./stim/MorphF6_03_orig.jpg,127,,,,,0,127,127,127,,,,,,,,,,,,,,,,,,,17.05078125,12.24609375,0,0,1,8.54474592209,,,,,2015_Oct_24_1302,K,facesParametric,12,59.6459613197,
./stim/MorphF4_00_orig.jpg,128,,,,,0,128,128,128,,,,,,,,,,,,,,,,,,,17.197265625,12.0703125,0,0,1,0.920673131943,,,,,2015_Oct_24_1302,K,facesParametric,12,59.6459613197,
./stim/MorphM5_04_orig.jpg,129,,,,,0,129,129,129,,,,,,,,,,,,,,,,,,,17.05078125,11.923828125,0,0,1,2.59687209129,,,,,2015_Oct_24_1302,K,facesParametric,12,59.6459613197,
./stim/MorphM1_01_orig.jpg,130,,,,,0,130,130,130,,,,,,,,,,,,,,,,,,,17.021484375,11.923828125,0,0,1,0.735929012299,,,,,2015_Oct_24_1302,K,facesParametric,12,59.6459613197,
./stim/MorphM7_04_orig.jpg,131,,,,,0,131,131,131,,,,,,,,,,,,,,,,,,,16.962890625,11.8359375,1,0,0,1.10351109505,,,,,2015_Oct_24_1302,K,facesParametric,12,59.6459613197,
./stim/MorphF7_08_orig.jpg,132,,,,,0,132,132,132,,,,,,,,,,,,,,,,,,,16.9921875,11.865234375,1,0,0,0.55184006691,,,,,2015_Oct_24_1302,K,facesParametric,12,59.6459613197,
./stim/MorphF4_05_orig.jpg,133,,,,,0,133,133,133,,,,,,,,,,,,,,,,,,,16.962890625,11.77734375,1,0,0,6.48390483856,,,,,2015_Oct_24_1302,K,facesParametric,12,59.6459613197,
./stim/MorphF3_02_orig.jpg,134,,,,,0,134,134,134,,,,,,,,,,,,,,,,,,,16.9921875,11.748046875,0,0,1,1.38988399506,,,,,2015_Oct_24_1302,K,facesParametric,12,59.6459613197,
./stim/MorphM7_05_orig.jpg,135,,,,,0,135,135,135,,,,,,,,,,,,,,,,,,,16.962890625,11.71875,1,0,0,0.635344982147,,,,,2015_Oct_24_1302,K,facesParametric,12,59.6459613197,
./stim/MorphM1_00_orig.jpg,136,,,,,0,136,136,136,,,,,,,,,,,,,,,,,,,16.962890625,11.572265625,0,0,1,0.903872013092,,,,,2015_Oct_24_1302,K,facesParametric,12,59.6459613197,
./stim/MorphM4_05_orig.jpg,137,,,,,0,137,137,137,,,,,,,,,,,,,,,,,,,17.080078125,11.6015625,1,0,0,1.84239506721,,,,,2015_Oct_24_1302,K,facesParametric,12,59.6459613197,
./stim/MorphF2_06_orig.jpg,138,,,,,0,138,138,138,,,,,,,,,,,,,,,,,,,17.080078125,11.6015625,1,0,0,0.886490106583,,,,,2015_Oct_24_1302,K,facesParametric,12,59.6459613197,
./stim/MorphF7_01_orig.jpg,139,,,,,0,139,139,139,,,,,,,,,,,,,,,,,,,17.16796875,11.6015625,0,0,1,2.81439113617,,,,,2015_Oct_24_1302,K,facesParametric,12,59.6459613197,
./stim/MorphF1_08_orig.jpg,140,,,,,0,140,140,140,,,,,,,,,,,,,,,,,,,17.109375,11.66015625,0,0,1,1.0716137886,,,,,2015_Oct_24_1302,K,facesParametric,12,59.6459613197,
./stim/MorphM8_08_orig.jpg,141,,,,,0,141,141,141,,,,,,,,,,,,,,,,,,,17.109375,11.71875,1,0,0,0.769670009613,,,,,2015_Oct_24_1302,K,facesParametric,12,59.6459613197,
./stim/MorphM6_06_orig.jpg,142,,,,,0,142,142,142,,,,,,,,,,,,,,,,,,,17.109375,11.8359375,1,0,0,4.23875617981,,,,,2015_Oct_24_1302,K,facesParametric,12,59.6459613197,
./stim/MorphM3_00_orig.jpg,143,,,,,0,143,143,143,,,,,,,,,,,,,,,,,,,17.197265625,11.865234375,0,0,1,1.15527415276,,,,,2015_Oct_24_1302,K,facesParametric,12,59.6459613197,
./stim/MorphM5_08_orig.jpg,144,,,,,0,144,144,144,,,,,,,,,,,,,,,,,,,17.2265625,11.953125,1,0,0,1.00413608551,,,,,2015_Oct_24_1302,K,facesParametric,12,59.6459613197,
./stim/MorphF6_02_orig.jpg,145,,,,,0,145,145,145,,,,,,,,,,,,,,,,,,,17.16796875,11.953125,0,0,1,0.903476953506,,,,,2015_Oct_24_1302,K,facesParametric,12,59.6459613197,
./stim/MorphF8_02_orig.jpg,146,,,,,0,146,146,146,,,,,,,,,,,,,,,,,,,17.080078125,11.89453125,0,0,1,0.750961065292,,,,,2015_Oct_24_1302,K,facesParametric,12,59.6459613197,
./stim/MorphF2_03_orig.jpg,147,,,,,0,147,147,147,,,,,,,,,,,,,,,,,,,17.197265625,11.8359375,1,0,0,0.803181886673,,,,,2015_Oct_24_1302,K,facesParametric,12,59.6459613197,
./stim/MorphF8_06_orig.jpg,148,,,,,0,148,148,148,,,,,,,,,,,,,,,,,,,17.16796875,11.77734375,1,0,0,1.17241501808,,,,,2015_Oct_24_1302,K,facesParametric,12,59.6459613197,
./stim/MorphM8_00_orig.jpg,149,,,,,0,149,149,149,,,,,,,,,,,,,,,,,,,17.138671875,11.806640625,0,0,1,11.2086520195,,,,,2015_Oct_24_1302,K,facesParametric,12,59.6459613197,
./stim/MorphF8_09_orig.jpg,150,,,,,0,150,150,150,,,,,,,,,,,,,,,,,,,17.2265625,11.748046875,1,0,0,0.670294046402,,,,,2015_Oct_24_1302,K,facesParametric,12,59.6459613197,
./stim/MorphF10_01_orig.jpg,151,,,,,0,151,151,151,,,,,,,,,,,,,,,,,,,17.197265625,11.806640625,1,0,0,2.20781803131,,,,,2015_Oct_24_1302,K,facesParametric,12,59.6459613197,
./stim/MorphM7_07_orig.jpg,152,,,,,0,152,152,152,,,,,,,,,,,,,,,,,,,17.080078125,11.923828125,1,0,0,0.702196121216,,,,,2015_Oct_24_1302,K,facesParametric,12,59.6459613197,
./stim/MorphM1_07_orig.jpg,153,,,,,0,153,153,153,,,,,,,,,,,,,,,,,,,17.080078125,11.953125,0,0,1,0.752278089523,,,,,2015_Oct_24_1302,K,facesParametric,12,59.6459613197,
./stim/MorphM3_10_orig.jpg,154,,,,,0,154,154,154,,,,,,,,,,,,,,,,,,,17.080078125,12.0703125,1,0,0,2.99838399887,,,,,2015_Oct_24_1302,K,facesParametric,12,59.6459613197,
./stim/MorphM6_03_orig.jpg,155,,,,,0,155,155,155,,,,,,,,,,,,,,,,,,,17.080078125,12.1875,0,0,1,1.89318799973,,,,,2015_Oct_24_1302,K,facesParametric,12,59.6459613197,
./stim/MorphM4_10_orig.jpg,156,,,,,0,156,156,156,,,,,,,,,,,,,,,,,,,17.05078125,12.24609375,1,0,0,0.735018968582,,,,,2015_Oct_24_1302,K,facesParametric,12,59.6459613197,
./stim/MorphF6_08_orig.jpg,157,,,,,0,157,157,157,,,,,,,,,,,,,,,,,,,16.962890625,12.3046875,1,0,0,0.652627944946,,,,,2015_Oct_24_1302,K,facesParametric,12,59.6459613197,
./stim/MorphM5_01_orig.jpg,158,,,,,0,158,158,158,,,,,,,,,,,,,,,,,,,16.845703125,12.451171875,0,0,1,0.853533029556,,,,,2015_Oct_24_1302,K,facesParametric,12,59.6459613197,
./stim/MorphF2_05_orig.jpg,159,,,,,0,159,159,159,,,,,,,,,,,,,,,,,,,16.93359375,12.421875,1,0,0,1.0211160183,,,,,2015_Oct_24_1302,K,facesParametric,12,59.6459613197,
./stim/MorphF3_03_orig.jpg,160,,,,,0,160,160,160,,,,,,,,,,,,,,,,,,,16.904296875,12.275390625,1,0,0,1.4230659008,,,,,2015_Oct_24_1302,K,facesParametric,12,59.6459613197,
./stim/MorphF1_10_orig.jpg,161,,,,,0,161,161,161,,,,,,,,,,,,,,,,,,,16.845703125,12.36328125,0,0,1,1.48961091042,,,,,2015_Oct_24_1302,K,facesParametric,12,59.6459613197,
./stim/MorphF7_05_orig.jpg,162,,,,,0,162,162,162,,,,,,,,,,,,,,,,,,,16.611328125,12.216796875,1,0,0,0.701995134354,,,,,2015_Oct_24_1302,K,facesParametric,12,59.6459613197,
./stim/MorphF3_10_orig.jpg,163,,,,,0,163,163,163,,,,,,,,,,,,,,,,,,,16.640625,12.1875,1,0,0,0.651324987411,,,,,2015_Oct_24_1302,K,facesParametric,12,59.6459613197,
./stim/MorphM2_02_orig.jpg,164,,,,,0,164,164,164,,,,,,,,,,,,,,,,,,,16.58203125,12.158203125,0,0,1,1.12155985832,,,,,2015_Oct_24_1302,K,facesParametric,12,59.6459613197,
./stim/MorphM9_04_orig.jpg,165,,,,,0,165,165,165,,,,,,,,,,,,,,,,,,,16.11328125,12.333984375,1,0,0,2.19424700737,,,,,2015_Oct_24_1302,K,facesParametric,12,59.6459613197,
./stim/MorphF6_09_orig.jpg,166,,,,,0,166,166,166,,,,,,,,,,,,,,,,,,,16.2890625,12.275390625,1,0,0,0.783568143845,,,,,2015_Oct_24_1302,K,facesParametric,12,59.6459613197,
./stim/MorphM2_00_orig.jpg,167,,,,,0,167,167,167,,,,,,,,,,,,,,,,,,,16.34765625,12.216796875,0,0,1,0.669409036636,,,,,2015_Oct_24_1302,K,facesParametric,12,59.6459613197,
./stim/MorphM1_04_orig.jpg,168,,,,,0,168,168,168,,,,,,,,,,,,,,,,,,,16.318359375,12.275390625,0,0,1,9.23301815987,,,,,2015_Oct_24_1302,K,facesParametric,12,59.6459613197,
./stim/MorphM7_02_orig.jpg,169,,,,,0,169,169,169,,,,,,,,,,,,,,,,,,,16.34765625,12.333984375,0,0,1,1.42189407349,,,,,2015_Oct_24_1302,K,facesParametric,12,59.6459613197,
./stim/MorphF4_01_orig.jpg,170,,,,,0,170,170,170,,,,,,,,,,,,,,,,,,,16.318359375,12.3046875,0,0,1,0.718899965286,,,,,2015_Oct_24_1302,K,facesParametric,12,59.6459613197,
./stim/MorphF7_09_orig.jpg,171,,,,,0,171,171,171,,,,,,,,,,,,,,,,,,,16.2890625,12.1875,1,0,0,0.635796070099,,,,,2015_Oct_24_1302,K,facesParametric,12,59.6459613197,
./stim/MorphF2_00_orig.jpg,172,,,,,0,172,172,172,,,,,,,,,,,,,,,,,,,16.259765625,12.216796875,1,0,0,0.953811168671,,,,,2015_Oct_24_1302,K,facesParametric,12,59.6459613197,
./stim/MorphM1_09_orig.jpg,173,,,,,0,173,173,173,,,,,,,,,,,,,,,,,,,16.259765625,12.216796875,1,0,0,1.39012789726,,,,,2015_Oct_24_1302,K,facesParametric,12,59.6459613197,
./stim/MorphM10_08_orig.jpg,174,,,,,0,174,174,174,,,,,,,,,,,,,,,,,,,16.23046875,12.1875,1,0,0,0.819850921631,,,,,2015_Oct_24_1302,K,facesParametric,12,59.6459613197,
./stim/MorphF6_04_orig.jpg,175,,,,,0,175,175,175,,,,,,,,,,,,,,,,,,,16.2890625,12.24609375,1,0,0,1.12175488472,,,,,2015_Oct_24_1302,K,facesParametric,12,59.6459613197,
./stim/MorphF10_03_orig.jpg,176,,,,,0,176,176,176,,,,,,,,,,,,,,,,,,,16.318359375,12.1875,1,0,0,1.62413406372,,,,,2015_Oct_24_1302,K,facesParametric,12,59.6459613197,
./stim/MorphF1_09_orig.jpg,177,,,,,0,177,177,177,,,,,,,,,,,,,,,,,,,16.142578125,12.041015625,1,0,0,1.54045701027,,,,,2015_Oct_24_1302,K,facesParametric,12,59.6459613197,
./stim/MorphM2_04_orig.jpg,178,,,,,0,178,178,178,,,,,,,,,,,,,,,,,,,16.171875,12.0703125,0,0,1,1.15346288681,,,,,2015_Oct_24_1302,K,facesParametric,12,59.6459613197,
./stim/MorphM9_03_orig.jpg,179,,,,,0,179,179,179,,,,,,,,,,,,,,,,,,,16.318359375,11.77734375,0,0,1,2.81439495087,,,,,2015_Oct_24_1302,K,facesParametric,12,59.6459613197,
./stim/MorphF10_08_orig.jpg,180,,,,,0,180,180,180,,,,,,,,,,,,,,,,,,,16.171875,11.77734375,1,0,0,4.20401287079,,,,,2015_Oct_24_1302,K,facesParametric,12,59.6459613197,
./stim/MorphM4_02_orig.jpg,181,,,,,0,181,181,181,,,,,,,,,,,,,,,,,,,16.11328125,11.8359375,0,0,1,0.968569993973,,,,,2015_Oct_24_1302,K,facesParametric,12,59.6459613197,
./stim/MorphF8_05_orig.jpg,182,,,,,0,182,182,182,,,,,,,,,,,,,,,,,,,16.142578125,11.865234375,0,0,1,0.954409122467,,,,,2015_Oct_24_1302,K,facesParametric,12,59.6459613197,
./stim/MorphM6_09_orig.jpg,183,,,,,0,183,183,183,,,,,,,,,,,,,,,,,,,16.259765625,11.77734375,1,0,0,0.651705980301,,,,,2015_Oct_24_1302,K,facesParametric,12,59.6459613197,
./stim/MorphM9_00_orig.jpg,184,,,,,0,184,184,184,,,,,,,,,,,,,,,,,,,16.2890625,11.748046875,0,0,1,3.53422284126,,,,,2015_Oct_24_1302,K,facesParametric,12,59.6459613197,
./stim/MorphF1_04_orig.jpg,185,,,,,0,185,185,185,,,,,,,,,,,,,,,,,,,16.318359375,11.806640625,0,0,1,0.918120145798,,,,,2015_Oct_24_1302,K,facesParametric,12,59.6459613197,
./stim/MorphF9_09_orig.jpg,186,,,,,0,186,186,186,,,,,,,,,,,,,,,,,,,16.34765625,11.982421875,1,0,0,0.635939121246,,,,,2015_Oct_24_1302,K,facesParametric,12,59.6459613197,
./stim/MorphF5_01_orig.jpg,187,,,,,0,187,187,187,,,,,,,,,,,,,,,,,,,16.318359375,11.982421875,0,0,1,1.45615983009,,,,,2015_Oct_24_1302,K,facesParametric,12,59.6459613197,
./stim/MorphF8_01_orig.jpg,188,,,,,0,188,188,188,,,,,,,,,,,,,,,,,,,16.318359375,12.1875,0,0,1,6.98779296875,,,,,2015_Oct_24_1302,K,facesParametric,12,59.6459613197,
./stim/MorphM2_09_orig.jpg,189,,,,,0,189,189,189,,,,,,,,,,,,,,,,,,,15.99609375,12.158203125,1,0,0,1.92571115494,,,,,2015_Oct_24_1302,K,facesParametric,12,59.6459613197,
./stim/MorphM3_06_orig.jpg,190,,,,,0,190,190,190,,,,,,,,,,,,,,,,,,,16.025390625,12.12890625,1,0,0,1.69163393974,,,,,2015_Oct_24_1302,K,facesParametric,12,59.6459613197,
./stim/MorphM1_03_orig.jpg,191,,,,,0,191,191,191,,,,,,,,,,,,,,,,,,,15.966796875,12.12890625,0,0,1,0.80274105072,,,,,2015_Oct_24_1302,K,facesParametric,12,59.6459613197,
./stim/MorphF5_03_orig.jpg,192,,,,,0,192,192,192,,,,,,,,,,,,,,,,,,,15.8203125,12.0703125,0,0,1,2.98194003105,,,,,2015_Oct_24_1302,K,facesParametric,12,59.6459613197,
./stim/MorphM8_09_orig.jpg,193,,,,,0,193,193,193,,,,,,,,,,,,,,,,,,,15.703125,12.12890625,1,0,0,1.45649600029,,,,,2015_Oct_24_1302,K,facesParametric,12,59.6459613197,
./stim/MorphM3_09_orig.jpg,194,,,,,0,194,194,194,,,,,,,,,,,,,,,,,,,15.703125,12.12890625,1,0,0,2.02570605278,,,,,2015_Oct_24_1302,K,facesParametric,12,59.6459613197,
./stim/MorphM2_10_orig.jpg,195,,,,,0,195,195,195,,,,,,,,,,,,,,,,,,,15.703125,12.12890625,1,0,0,0.65123796463,,,,,2015_Oct_24_1302,K,facesParametric,12,59.6459613197,
./stim/MorphF3_08_orig.jpg,196,,,,,0,196,196,196,,,,,,,,,,,,,,,,,,,15.791015625,12.12890625,1,0,0,0.78622508049,,,,,2015_Oct_24_1302,K,facesParametric,12,59.6459613197,
./stim/MorphF5_00_orig.jpg,197,,,,,0,197,197,197,,,,,,,,,,,,,,,,,,,16.142578125,12.36328125,0,0,1,1.47408795357,,,,,2015_Oct_24_1302,K,facesParametric,12,59.6459613197,
./stim/MorphM4_00_orig.jpg,198,,,,,0,198,198,198,,,,,,,,,,,,,,,,,,,16.2890625,12.275390625,0,0,1,5.99654698372,,,,,2015_Oct_24_1302,K,facesParametric,12,59.6459613197,
./stim/MorphM2_03_orig.jpg,199,,,,,0,199,199,199,,,,,,,,,,,,,,,,,,,16.259765625,12.3046875,0,0,1,1.18848085403,,,,,2015_Oct_24_1302,K,facesParametric,12,59.6459613197,
./stim/MorphF9_04_orig.jpg,200,,,,,0,200,200,200,,,,,,,,,,,,,,,,,,,15.99609375,12.3046875,0,0,1,4.60773801804,,,,,2015_Oct_24_1302,K,facesParametric,12,59.6459613197,
./stim/MorphM8_04_orig.jpg,201,,,,,0,201,201,201,,,,,,,,,,,,,,,,,,,15.966796875,12.451171875,1,0,0,1.05427908897,,,,,2015_Oct_24_1302,K,facesParametric,12,59.6459613197,
./stim/MorphM7_01_orig.jpg,202,,,,,0,202,202,202,,,,,,,,,,,,,,,,,,,15.908203125,12.36328125,0,0,1,0.803158998489,,,,,2015_Oct_24_1302,K,facesParametric,12,59.6459613197,
./stim/MorphF6_01_orig.jpg,203,,,,,0,203,203,203,,,,,,,,,,,,,,,,,,,15.8203125,12.3046875,0,0,1,0.970658063889,,,,,2015_Oct_24_1302,K,facesParametric,12,59.6459613197,
./stim/MorphM5_09_orig.jpg,204,,,,,0,204,204,204,,,,,,,,,,,,,,,,,,,15.732421875,12.275390625,1,0,0,0.837082147598,,,,,2015_Oct_24_1302,K,facesParametric,12,59.6459613197,
./stim/MorphM10_02_orig.jpg,205,,,,,0,205,205,205,,,,,,,,,,,,,,,,,,,15.5859375,12.333984375,0,0,1,0.752715826035,,,,,2015_Oct_24_1302,K,facesParametric,12,59.6459613197,
./stim/MorphM6_07_orig.jpg,206,,,,,0,206,206,206,,,,,,,,,,,,,,,,,,,15.498046875,12.333984375,1,0,0,0.735171079636,,,,,2015_Oct_24_1302,K,facesParametric,12,59.6459613197,
./stim/MorphF5_10_orig.jpg,207,,,,,0,207,207,207,,,,,,,,,,,,,,,,,,,15.556640625,12.24609375,1,0,0,1.13887000084,,,,,2015_Oct_24_1302,K,facesParametric,12,59.6459613197,
./stim/MorphF10_07_orig.jpg,208,,,,,0,208,208,208,,,,,,,,,,,,,,,,,,,15.380859375,12.01171875,1,0,0,1.27026081085,,,,,2015_Oct_24_1302,K,facesParametric,12,59.6459613197,
./stim/MorphF1_00_orig.jpg,209,,,,,0,209,209,209,,,,,,,,,,,,,,,,,,,15.234375,12.01171875,0,0,1,0.65226984024,,,,,2015_Oct_24_1302,K,facesParametric,12,59.6459613197,
./stim/MorphM8_06_orig.jpg,210,,,,,0,210,210,210,,,,,,,,,,,,,,,,,,,15.087890625,12.0703125,1,0,0,1.74069499969,,,,,2015_Oct_24_1302,K,facesParametric,12,59.6459613197,
./stim/MorphM10_04_orig.jpg,211,,,,,0,211,211,211,,,,,,,,,,,,,,,,,,,14.94140625,11.953125,1,0,0,1.64091610909,,,,,2015_Oct_24_1302,K,facesParametric,12,59.6459613197,
./stim/MorphM9_09_orig.jpg,212,,,,,0,212,212,212,,,,,,,,,,,,,,,,,,,14.912109375,11.982421875,1,0,0,1.08819293976,,,,,2015_Oct_24_1302,K,facesParametric,12,59.6459613197,
./stim/MorphM6_00_orig.jpg,213,,,,,0,213,213,213,,,,,,,,,,,,,,,,,,,15.234375,11.982421875,0,0,1,11.5790801048,,,,,2015_Oct_24_1302,K,facesParametric,12,59.6459613197,
./stim/MorphF7_00_orig.jpg,214,,,,,0,214,214,214,,,,,,,,,,,,,,,,,,,15.380859375,12.36328125,0,0,1,2.34430384636,,,,,2015_Oct_24_1302,K,facesParametric,12,59.6459613197,
./stim/MorphM2_08_orig.jpg,215,,,,,0,215,215,215,,,,,,,,,,,,,,,,,,,15.3515625,12.36328125,1,0,0,0.668869972229,,,,,2015_Oct_24_1302,K,facesParametric,12,59.6459613197,
./stim/MorphM3_04_orig.jpg,216,,,,,0,216,216,216,,,,,,,,,,,,,,,,,,,15.439453125,12.333984375,1,0,0,1.11996793747,,,,,2015_Oct_24_1302,K,facesParametric,12,59.6459613197,
./stim/MorphM4_09_orig.jpg,217,,,,,0,217,217,217,,,,,,,,,,,,,,,,,,,15.17578125,12.275390625,1,0,0,2.81391406059,,,,,2015_Oct_24_1302,K,facesParametric,12,59.6459613197,
./stim/MorphF2_01_orig.jpg,218,,,,,0,218,218,218,,,,,,,,,,,,,,,,,,,15.029296875,12.158203125,0,0,1,1.15565299988,,,,,2015_Oct_24_1302,K,facesParametric,12,59.6459613197,
./stim/MorphM7_10_orig.jpg,219,,,,,0,219,219,219,,,,,,,,,,,,,,,,,,,14.970703125,12.041015625,1,0,0,0.634579896927,,,,,2015_Oct_24_1302,K,facesParametric,12,59.6459613197,
,,,,,,,,,,,,,,,,,,,,,,,,,,,,,,,,,,return,1.50879788399,,,2015_Oct_24_1302,K,facesParametric,12,59.6459613197,
./stim/MorphF10_06_orig.jpg,0,,,,,,,,,0,0,0,0,,,,,,,,,,,,,,,22.412109375,12.65625,1,0,0,21.7732288837,,,,,2015_Oct_24_1302,K,facesParametric,12,59.6459613197,
./stim/MorphM8_08_orig.jpg,1,,,,,,,,,0,1,1,1,,,,,,,,,,,,,,,22.1484375,12.7734375,1,0,0,0.71697807312,,,,,2015_Oct_24_1302,K,facesParametric,12,59.6459613197,
./stim/MorphF1_08_orig.jpg,2,,,,,,,,,0,2,2,2,,,,,,,,,,,,,,,22.265625,12.421875,0,0,1,2.09165406227,,,,,2015_Oct_24_1302,K,facesParametric,12,59.6459613197,
./stim/MorphM1_10_orig.jpg,3,,,,,,,,,0,3,3,3,,,,,,,,,,,,,,,21.9140625,12.59765625,0,0,1,1.85847401619,,,,,2015_Oct_24_1302,K,facesParametric,12,59.6459613197,
./stim/MorphF10_05_orig.jpg,4,,,,,,,,,0,4,4,4,,,,,,,,,,,,,,,22.294921875,12.568359375,1,0,0,0.718305110931,,,,,2015_Oct_24_1302,K,facesParametric,12,59.6459613197,
./stim/MorphF3_08_orig.jpg,5,,,,,,,,,0,5,5,5,,,,,,,,,,,,,,,22.470703125,12.59765625,1,0,0,0.970293045044,,,,,2015_Oct_24_1302,K,facesParametric,12,59.6459613197,
./stim/MorphF2_02_orig.jpg,6,,,,,,,,,0,6,6,6,,,,,,,,,,,,,,,22.55859375,12.01171875,0,0,1,3.90224194527,,,,,2015_Oct_24_1302,K,facesParametric,12,59.6459613197,
./stim/MorphM5_02_orig.jpg,7,,,,,,,,,0,7,7,7,,,,,,,,,,,,,,,22.587890625,12.509765625,0,0,1,14.2275810242,,,,,2015_Oct_24_1302,K,facesParametric,12,59.6459613197,
./stim/MorphF7_10_orig.jpg,8,,,,,,,,,0,8,8,8,,,,,,,,,,,,,,,22.3828125,12.451171875,1,0,0,1.37333798409,,,,,2015_Oct_24_1302,K,facesParametric,12,59.6459613197,
./stim/MorphF2_10_orig.jpg,9,,,,,,,,,0,9,9,9,,,,,,,,,,,,,,,22.3828125,12.392578125,1,0,0,0.886924028397,,,,,2015_Oct_24_1302,K,facesParametric,12,59.6459613197,
./stim/MorphM4_07_orig.jpg,10,,,,,,,,,0,10,10,10,,,,,,,,,,,,,,,22.470703125,12.24609375,1,0,0,0.803096055984,,,,,2015_Oct_24_1302,K,facesParametric,12,59.6459613197,
./stim/MorphM10_02_orig.jpg,11,,,,,,,,,0,11,11,11,,,,,,,,,,,,,,,22.470703125,11.865234375,0,0,1,4.0882499218,,,,,2015_Oct_24_1302,K,facesParametric,12,59.6459613197,
./stim/MorphM5_06_orig.jpg,12,,,,,,,,,0,12,12,12,,,,,,,,,,,,,,,22.294921875,11.865234375,0,0,1,0.736431121826,,,,,2015_Oct_24_1302,K,facesParametric,12,59.6459613197,
./stim/MorphF1_01_orig.jpg,13,,,,,,,,,0,13,13,13,,,,,,,,,,,,,,,21.9140625,11.865234375,0,0,1,0.716723918915,,,,,2015_Oct_24_1302,K,facesParametric,12,59.6459613197,
./stim/MorphF2_01_orig.jpg,14,,,,,,,,,0,14,14,14,,,,,,,,,,,,,,,21.591796875,11.484375,0,0,1,1.65830588341,,,,,2015_Oct_24_1302,K,facesParametric,12,59.6459613197,
./stim/MorphF8_06_orig.jpg,15,,,,,,,,,0,15,15,15,,,,,,,,,,,,,,,21.708984375,11.455078125,1,0,0,0.633771896362,,,,,2015_Oct_24_1302,K,facesParametric,12,59.6459613197,
./stim/MorphM6_10_orig.jpg,16,,,,,,,,,0,16,16,16,,,,,,,,,,,,,,,21.62109375,11.279296875,1,0,0,0.970913887024,,,,,2015_Oct_24_1302,K,facesParametric,12,59.6459613197,
./stim/MorphM7_07_orig.jpg,17,,,,,,,,,0,17,17,17,,,,,,,,,,,,,,,21.826171875,11.3671875,1,0,0,1.45674204826,,,,,2015_Oct_24_1302,K,facesParametric,12,59.6459613197,
./stim/MorphF5_01_orig.jpg,18,,,,,,,,,0,18,18,18,,,,,,,,,,,,,,,21.884765625,10.4296875,0,0,1,0.970407009125,,,,,2015_Oct_24_1302,K,facesParametric,12,59.6459613197,
./stim/MorphM5_05_orig.jpg,19,,,,,,,,,0,19,19,19,,,,,,,,,,,,,,,21.650390625,10.693359375,0,0,1,7.27130293846,,,,,2015_Oct_24_1302,K,facesParametric,12,59.6459613197,
./stim/MorphM9_04_orig.jpg,20,,,,,,,,,0,20,20,20,,,,,,,,,,,,,,,21.826171875,10.341796875,0,0,1,1.10493206978,,,,,2015_Oct_24_1302,K,facesParametric,12,59.6459613197,
./stim/MorphF5_04_orig.jpg,21,,,,,,,,,0,21,21,21,,,,,,,,,,,,,,,22.001953125,10.166015625,0,0,1,0.903223991394,,,,,2015_Oct_24_1302,K,facesParametric,12,59.6459613197,
./stim/MorphF7_08_orig.jpg,22,,,,,,,,,0,22,22,22,,,,,,,,,,,,,,,21.97265625,10.107421875,1,0,0,0.9690990448,,,,,2015_Oct_24_1302,K,facesParametric,12,59.6459613197,
./stim/MorphM5_04_orig.jpg,23,,,,,,,,,0,23,23,23,,,,,,,,,,,,,,,22.08984375,10.048828125,0,0,1,3.93471002579,,,,,2015_Oct_24_1302,K,facesParametric,12,59.6459613197,
./stim/MorphM2_08_orig.jpg,24,,,,,,,,,0,24,24,24,,,,,,,,,,,,,,,22.119140625,9.90234375,1,0,0,0.803588151932,,,,,2015_Oct_24_1302,K,facesParametric,12,59.6459613197,
./stim/MorphF5_09_orig.jpg,25,,,,,,,,,0,25,25,25,,,,,,,,,,,,,,,22.20703125,10.224609375,1,0,0,0.920604944229,,,,,2015_Oct_24_1302,K,facesParametric,12,59.6459613197,
./stim/MorphF8_08_orig.jpg,26,,,,,,,,,0,26,26,26,,,,,,,,,,,,,,,22.177734375,10.107421875,1,0,0,2.02674889565,,,,,2015_Oct_24_1302,K,facesParametric,12,59.6459613197,
./stim/MorphM6_08_orig.jpg,27,,,,,,,,,0,27,27,27,,,,,,,,,,,,,,,22.236328125,10.341796875,1,0,0,0.819993972778,,,,,2015_Oct_24_1302,K,facesParametric,12,59.6459613197,
./stim/MorphM8_01_orig.jpg,28,,,,,,,,,0,28,28,28,,,,,,,,,,,,,,,22.32421875,10.48828125,0,0,1,2.52917003632,,,,,2015_Oct_24_1302,K,facesParametric,12,59.6459613197,
./stim/MorphF8_07_orig.jpg,29,,,,,,,,,0,29,29,29,,,,,,,,,,,,,,,22.060546875,10.634765625,1,0,0,0.68560385704,,,,,2015_Oct_24_1302,K,facesParametric,12,59.6459613197,
./stim/MorphF9_01_orig.jpg,30,,,,,,,,,0,30,30,30,,,,,,,,,,,,,,,22.20703125,10.869140625,0,0,1,1.22086787224,,,,,2015_Oct_24_1302,K,facesParametric,12,59.6459613197,
./stim/MorphM7_02_orig.jpg,31,,,,,,,,,0,31,31,31,,,,,,,,,,,,,,,22.20703125,10.693359375,0,0,1,1.67290306091,,,,,2015_Oct_24_1302,K,facesParametric,12,59.6459613197,
./stim/MorphM5_10_orig.jpg,32,,,,,,,,,0,32,32,32,,,,,,,,,,,,,,,21.9140625,10.60546875,1,0,0,1.05456590652,,,,,2015_Oct_24_1302,K,facesParametric,12,59.6459613197,
./stim/MorphM10_09_orig.jpg,33,,,,,,,,,0,33,33,33,,,,,,,,,,,,,,,21.85546875,10.517578125,1,0,0,0.751770973206,,,,,2015_Oct_24_1302,K,facesParametric,12,59.6459613197,
./stim/MorphF2_06_orig.jpg,34,,,,,,,,,0,34,34,34,,,,,,,,,,,,,,,21.6796875,10.4296875,1,0,0,1.7414689064,,,,,2015_Oct_24_1302,K,facesParametric,12,59.6459613197,
./stim/MorphF3_10_orig.jpg,35,,,,,,,,,0,35,35,35,,,,,,,,,,,,,,,21.6796875,10.517578125,1,0,0,0.918963909149,,,,,2015_Oct_24_1302,K,facesParametric,12,59.6459613197,
./stim/MorphM7_04_orig.jpg,36,,,,,,,,,0,36,36,36,,,,,,,,,,,,,,,21.62109375,10.458984375,1,0,0,2.44637298584,,,,,2015_Oct_24_1302,K,facesParametric,12,59.6459613197,
./stim/MorphM9_10_orig.jpg,37,,,,,,,,,0,37,37,37,,,,,,,,,,,,,,,21.85546875,10.25390625,1,0,0,3.86977601051,,,,,2015_Oct_24_1302,K,facesParametric,12,59.6459613197,
./stim/MorphM8_09_orig.jpg,38,,,,,,,,,0,38,38,38,,,,,,,,,,,,,,,22.001953125,10.400390625,1,0,0,1.13802886009,,,,,2015_Oct_24_1302,K,facesParametric,12,59.6459613197,
./stim/MorphM10_07_orig.jpg,39,,,,,,,,,0,39,39,39,,,,,,,,,,,,,,,22.119140625,10.546875,1,0,0,1.50723218918,,,,,2015_Oct_24_1302,K,facesParametric,12,59.6459613197,
./stim/MorphF3_09_orig.jpg,40,,,,,,,,,0,40,40,40,,,,,,,,,,,,,,,21.9140625,10.3125,1,0,0,0.819725036621,,,,,2015_Oct_24_1302,K,facesParametric,12,59.6459613197,
./stim/MorphF10_04_orig.jpg,41,,,,,,,,,0,41,41,41,,,,,,,,,,,,,,,21.826171875,10.3125,1,0,0,4.87594008446,,,,,2015_Oct_24_1302,K,facesParametric,12,59.6459613197,
./stim/MorphF4_00_orig.jpg,42,,,,,,,,,0,42,42,42,,,,,,,,,,,,,,,21.85546875,10.3125,0,0,1,0.769647836685,,,,,2015_Oct_24_1302,K,facesParametric,12,59.6459613197,
./stim/MorphM10_06_orig.jpg,43,,,,,,,,,0,43,43,43,,,,,,,,,,,,,,,21.826171875,10.400390625,1,0,0,3.350522995,,,,,2015_Oct_24_1302,K,facesParametric,12,59.6459613197,
./stim/MorphF6_09_orig.jpg,44,,,,,,,,,0,44,44,44,,,,,,,,,,,,,,,21.884765625,10.37109375,1,0,0,1.52411198616,,,,,2015_Oct_24_1302,K,facesParametric,12,59.6459613197,
./stim/MorphM10_04_orig.jpg,45,,,,,,,,,0,45,45,45,,,,,,,,,,,,,,,21.884765625,10.224609375,1,0,0,1.6066031456,,,,,2015_Oct_24_1302,K,facesParametric,12,59.6459613197,
./stim/MorphF6_10_orig.jpg,46,,,,,,,,,0,46,46,46,,,,,,,,,,,,,,,21.85546875,10.224609375,1,0,0,1.64021015167,,,,,2015_Oct_24_1302,K,facesParametric,12,59.6459613197,
./stim/MorphF9_10_orig.jpg,47,,,,,,,,,0,47,47,47,,,,,,,,,,,,,,,21.767578125,10.37109375,1,0,0,1.00434684753,,,,,2015_Oct_24_1302,K,facesParametric,12,59.6459613197,
./stim/MorphM5_08_orig.jpg,48,,,,,,,,,0,48,48,48,,,,,,,,,,,,,,,21.708984375,10.25390625,1,0,0,2.47789001465,,,,,2015_Oct_24_1302,K,facesParametric,12,59.6459613197,
./stim/MorphM1_03_orig.jpg,49,,,,,,,,,0,49,49,49,,,,,,,,,,,,,,,21.826171875,10.25390625,0,0,1,0.767118930817,,,,,2015_Oct_24_1302,K,facesParametric,12,59.6459613197,
./stim/MorphF9_09_orig.jpg,50,,,,,,,,,0,50,50,50,,,,,,,,,,,,,,,21.708984375,10.3125,1,0,0,1.809237957,,,,,2015_Oct_24_1302,K,facesParametric,12,59.6459613197,
./stim/MorphF1_07_orig.jpg,51,,,,,,,,,0,51,51,51,,,,,,,,,,,,,,,21.884765625,10.166015625,0,0,1,1.2217040062,,,,,2015_Oct_24_1302,K,facesParametric,12,59.6459613197,
./stim/MorphM1_06_orig.jpg,52,,,,,,,,,0,52,52,52,,,,,,,,,,,,,,,21.943359375,10.283203125,0,0,1,1.94269108772,,,,,2015_Oct_24_1302,K,facesParametric,12,59.6459613197,
./stim/MorphM8_06_orig.jpg,53,,,,,,,,,0,53,53,53,,,,,,,,,,,,,,,22.001953125,10.224609375,1,0,0,1.27280116081,,,,,2015_Oct_24_1302,K,facesParametric,12,59.6459613197,
./stim/MorphM4_08_orig.jpg,54,,,,,,,,,0,54,54,54,,,,,,,,,,,,,,,20.91796875,13.125,1,0,0,7.9427549839,,,,,2015_Oct_24_1302,K,facesParametric,12,59.6459613197,
./stim/MorphM2_01_orig.jpg,55,,,,,,,,,0,55,55,55,,,,,,,,,,,,,,,21.005859375,13.154296875,0,0,1,1.322701931,,,,,2015_Oct_24_1302,K,facesParametric,12,59.6459613197,
./stim/MorphF2_00_orig.jpg,56,,,,,,,,,0,56,56,56,,,,,,,,,,,,,,,21.357421875,13.154296875,0,0,1,1.17155098915,,,,,2015_Oct_24_1302,K,facesParametric,12,59.6459613197,
./stim/MorphM10_01_orig.jpg,57,,,,,,,,,0,57,57,57,,,,,,,,,,,,,,,21.298828125,13.125,0,0,1,3.80176115036,,,,,2015_Oct_24_1302,K,facesParametric,12,59.6459613197,
./stim/MorphF10_07_orig.jpg,58,,,,,,,,,0,58,58,58,,,,,,,,,,,,,,,21.181640625,13.154296875,1,0,0,1.08840990067,,,,,2015_Oct_24_1302,K,facesParametric,12,59.6459613197,
./stim/MorphM1_02_orig.jpg,59,,,,,,,,,0,59,59,59,,,,,,,,,,,,,,,21.15234375,13.06640625,0,0,1,0.835977077484,,,,,2015_Oct_24_1302,K,facesParametric,12,59.6459613197,
./stim/MorphM4_03_orig.jpg,60,,,,,,,,,0,60,60,60,,,,,,,,,,,,,,,20.830078125,12.978515625,0,0,1,0.769056797028,,,,,2015_Oct_24_1302,K,facesParametric,12,59.6459613197,
./stim/MorphF7_04_orig.jpg,61,,,,,,,,,0,61,61,61,,,,,,,,,,,,,,,20.91796875,12.978515625,1,0,0,0.652491092682,,,,,2015_Oct_24_1302,K,facesParametric,12,59.6459613197,
./stim/MorphM7_09_orig.jpg,62,,,,,,,,,0,62,62,62,,,,,,,,,,,,,,,21.03515625,12.802734375,1,0,0,0.851272821426,,,,,2015_Oct_24_1302,K,facesParametric,12,59.6459613197,
./stim/MorphF5_06_orig.jpg,63,,,,,,,,,0,63,63,63,,,,,,,,,,,,,,,21.064453125,12.890625,1,0,0,1.3220000267,,,,,2015_Oct_24_1302,K,facesParametric,12,59.6459613197,
./stim/MorphF6_05_orig.jpg,64,,,,,,,,,0,64,64,64,,,,,,,,,,,,,,,21.240234375,13.18359375,1,0,0,1.92499494553,,,,,2015_Oct_24_1302,K,facesParametric,12,59.6459613197,
./stim/MorphF1_06_orig.jpg,65,,,,,,,,,0,65,65,65,,,,,,,,,,,,,,,21.328125,13.18359375,0,0,1,0.736320018768,,,,,2015_Oct_24_1302,K,facesParametric,12,59.6459613197,
./stim/MorphM1_00_orig.jpg,66,,,,,,,,,0,66,66,66,,,,,,,,,,,,,,,21.416015625,13.18359375,0,0,1,0.751056194305,,,,,2015_Oct_24_1302,K,facesParametric,12,59.6459613197,
./stim/MorphM3_02_orig.jpg,67,,,,,,,,,0,67,67,67,,,,,,,,,,,,,,,21.9140625,13.125,0,0,1,5.7133231163,,,,,2015_Oct_24_1302,K,facesParametric,12,59.6459613197,
./stim/MorphM9_09_orig.jpg,68,,,,,,,,,0,68,68,68,,,,,,,,,,,,,,,21.943359375,13.18359375,1,0,0,1.45674681664,,,,,2015_Oct_24_1302,K,facesParametric,12,59.6459613197,
./stim/MorphF1_02_orig.jpg,69,,,,,,,,,0,69,69,69,,,,,,,,,,,,,,,21.767578125,13.18359375,0,0,1,0.719234228134,,,,,2015_Oct_24_1302,K,facesParametric,12,59.6459613197,
./stim/MorphF6_04_orig.jpg,70,,,,,,,,,0,70,70,70,,,,,,,,,,,,,,,21.6796875,13.095703125,1,0,0,2.47837805748,,,,,2015_Oct_24_1302,K,facesParametric,12,59.6459613197,
./stim/MorphM9_07_orig.jpg,71,,,,,,,,,0,71,71,71,,,,,,,,,,,,,,,21.650390625,13.154296875,0,0,1,0.703032970428,,,,,2015_Oct_24_1302,K,facesParametric,12,59.6459613197,
./stim/MorphF8_10_orig.jpg,72,,,,,,,,,0,72,72,72,,,,,,,,,,,,,,,21.4453125,13.154296875,1,0,0,0.733747959137,,,,,2015_Oct_24_1302,K,facesParametric,12,59.6459613197,
./stim/MorphM6_00_orig.jpg,73,,,,,,,,,0,73,73,73,,,,,,,,,,,,,,,21.474609375,13.154296875,0,0,1,1.55732107162,,,,,2015_Oct_24_1302,K,facesParametric,12,59.6459613197,
./stim/MorphF7_03_orig.jpg,74,,,,,,,,,0,74,74,74,,,,,,,,,,,,,,,21.591796875,13.037109375,1,0,0,0.81795501709,,,,,2015_Oct_24_1302,K,facesParametric,12,59.6459613197,
./stim/MorphM3_09_orig.jpg,75,,,,,,,,,0,75,75,75,,,,,,,,,,,,,,,21.650390625,13.095703125,1,0,0,0.80321598053,,,,,2015_Oct_24_1302,K,facesParametric,12,59.6459613197,
./stim/MorphF3_02_orig.jpg,76,,,,,,,,,0,76,76,76,,,,,,,,,,,,,,,21.73828125,13.18359375,0,0,1,0.68575501442,,,,,2015_Oct_24_1302,K,facesParametric,12,59.6459613197,
./stim/MorphF5_05_orig.jpg,77,,,,,,,,,0,77,77,77,,,,,,,,,,,,,,,21.943359375,13.154296875,0,0,1,0.987678050995,,,,,2015_Oct_24_1302,K,facesParametric,12,59.6459613197,
./stim/MorphM4_06_orig.jpg,78,,,,,,,,,0,78,78,78,,,,,,,,,,,,,,,22.20703125,13.125,1,0,0,3.4512629509,,,,,2015_Oct_24_1302,K,facesParametric,12,59.6459613197,
./stim/MorphF7_09_orig.jpg,79,,,,,,,,,0,79,79,79,,,,,,,,,,,,,,,22.177734375,13.154296875,1,0,0,0.635168790817,,,,,2015_Oct_24_1302,K,facesParametric,12,59.6459613197,
./stim/MorphF5_08_orig.jpg,80,,,,,,,,,0,80,80,80,,,,,,,,,,,,,,,22.236328125,13.154296875,1,0,0,0.652104139328,,,,,2015_Oct_24_1302,K,facesParametric,12,59.6459613197,
./stim/MorphM2_07_orig.jpg,81,,,,,,,,,0,81,81,81,,,,,,,,,,,,,,,22.236328125,13.125,1,0,0,0.719877958298,,,,,2015_Oct_24_1302,K,facesParametric,12,59.6459613197,
./stim/MorphF5_03_orig.jpg,82,,,,,,,,,0,82,82,82,,,,,,,,,,,,,,,22.294921875,13.095703125,0,0,1,0.752518892288,,,,,2015_Oct_24_1302,K,facesParametric,12,59.6459613197,
./stim/MorphF9_04_orig.jpg,83,,,,,,,,,0,83,83,83,,,,,,,,,,,,,,,22.587890625,13.18359375,0,0,1,1.33927798271,,,,,2015_Oct_24_1302,K,facesParametric,12,59.6459613197,
./stim/MorphF10_08_orig.jpg,84,,,,,,,,,0,84,84,84,,,,,,,,,,,,,,,22.3828125,12.861328125,1,0,0,0.818842887878,,,,,2015_Oct_24_1302,K,facesParametric,12,59.6459613197,
./stim/MorphF3_00_orig.jpg,85,,,,,,,,,0,85,85,85,,,,,,,,,,,,,,,22.294921875,12.94921875,0,0,1,0.870296001434,,,,,2015_Oct_24_1302,K,facesParametric,12,59.6459613197,
./stim/MorphF5_00_orig.jpg,86,,,,,,,,,0,86,86,86,,,,,,,,,,,,,,,22.177734375,12.685546875,0,0,1,0.603487968445,,,,,2015_Oct_24_1302,K,facesParametric,12,59.6459613197,
./stim/MorphF1_03_orig.jpg,87,,,,,,,,,0,87,87,87,,,,,,,,,,,,,,,22.03125,12.509765625,0,0,1,0.734977006912,,,,,2015_Oct_24_1302,K,facesParametric,12,59.6459613197,
./stim/MorphF10_10_orig.jpg,88,,,,,,,,,0,88,88,88,,,,,,,,,,,,,,,21.826171875,12.36328125,1,0,0,0.635130882263,,,,,2015_Oct_24_1302,K,facesParametric,12,59.6459613197,
./stim/MorphF4_04_orig.jpg,89,,,,,,,,,0,89,89,89,,,,,,,,,,,,,,,21.767578125,12.36328125,0,0,1,0.970876932144,,,,,2015_Oct_24_1302,K,facesParametric,12,59.6459613197,
./stim/MorphF8_05_orig.jpg,90,,,,,,,,,0,90,90,90,,,,,,,,,,,,,,,21.591796875,12.451171875,1,0,0,0.668222904205,,,,,2015_Oct_24_1302,K,facesParametric,12,59.6459613197,
./stim/MorphM8_04_orig.jpg,91,,,,,,,,,0,91,91,91,,,,,,,,,,,,,,,21.708984375,12.392578125,1,0,0,0.702998876572,,,,,2015_Oct_24_1302,K,facesParametric,12,59.6459613197,
./stim/MorphM1_04_orig.jpg,92,,,,,,,,,0,92,92,92,,,,,,,,,,,,,,,21.62109375,12.451171875,0,0,1,0.870787858963,,,,,2015_Oct_24_1302,K,facesParametric,12,59.6459613197,
./stim/MorphM8_05_orig.jpg,93,,,,,,,,,0,93,93,93,,,,,,,,,,,,,,,21.5625,12.421875,1,0,0,2.31091594696,,,,,2015_Oct_24_1302,K,facesParametric,12,59.6459613197,
./stim/MorphM5_01_orig.jpg,94,,,,,,,,,0,94,94,94,,,,,,,,,,,,,,,21.328125,12.568359375,0,0,1,0.954303979874,,,,,2015_Oct_24_1302,K,facesParametric,12,59.6459613197,
./stim/MorphF9_07_orig.jpg,95,,,,,,,,,0,95,95,95,,,,,,,,,,,,,,,21.26953125,12.5390625,1,0,0,1.54079413414,,,,,2015_Oct_24_1302,K,facesParametric,12,59.6459613197,
./stim/MorphM4_00_orig.jpg,96,,,,,,,,,0,96,96,96,,,,,,,,,,,,,,,21.181640625,12.509765625,0,0,1,0.970571994781,,,,,2015_Oct_24_1302,K,facesParametric,12,59.6459613197,
./stim/MorphF4_01_orig.jpg,97,,,,,,,,,0,97,97,97,,,,,,,,,,,,,,,21.15234375,12.451171875,0,0,1,0.635442972183,,,,,2015_Oct_24_1302,K,facesParametric,12,59.6459613197,
./stim/MorphF9_08_orig.jpg,98,,,,,,,,,0,98,98,98,,,,,,,,,,,,,,,20.9765625,12.3046875,1,0,0,0.751526117325,,,,,2015_Oct_24_1302,K,facesParametric,12,59.6459613197,
./stim/MorphM9_02_orig.jpg,99,,,,,,,,,0,99,99,99,,,,,,,,,,,,,,,20.947265625,12.275390625,1,0,0,1.12144494057,,,,,2015_Oct_24_1302,K,facesParametric,12,59.6459613197,
./stim/MorphF1_09_orig.jpg,100,,,,,,,,,0,100,100,100,,,,,,,,,,,,,,,21.03515625,12.333984375,1,0,0,1.02111506462,,,,,2015_Oct_24_1302,K,facesParametric,12,59.6459613197,
./stim/MorphF9_03_orig.jpg,101,,,,,,,,,0,101,101,101,,,,,,,,,,,,,,,21.03515625,12.36328125,1,0,0,1.15506696701,,,,,2015_Oct_24_1302,K,facesParametric,12,59.6459613197,
./stim/MorphF7_06_orig.jpg,102,,,,,,,,,0,102,102,102,,,,,,,,,,,,,,,20.947265625,12.451171875,1,0,0,1.03617501259,,,,,2015_Oct_24_1302,K,facesParametric,12,59.6459613197,
./stim/MorphF1_00_orig.jpg,103,,,,,,,,,0,103,103,103,,,,,,,,,,,,,,,20.859375,12.333984375,0,0,1,1.00444221497,,,,,2015_Oct_24_1302,K,facesParametric,12,59.6459613197,
./stim/MorphF7_02_orig.jpg,104,,,,,,,,,0,104,104,104,,,,,,,,,,,,,,,20.80078125,12.626953125,1,0,0,0.834131002426,,,,,2015_Oct_24_1302,K,facesParametric,12,59.6459613197,
./stim/MorphM3_05_orig.jpg,105,,,,,,,,,0,105,105,105,,,,,,,,,,,,,,,20.859375,12.65625,1,0,0,0.719222068787,,,,,2015_Oct_24_1302,K,facesParametric,12,59.6459613197,
./stim/MorphM5_09_orig.jpg,106,,,,,,,,,0,106,106,106,,,,,,,,,,,,,,,20.91796875,12.65625,1,0,0,1.08842921257,,,,,2015_Oct_24_1302,K,facesParametric,12,59.6459613197,
./stim/MorphM10_00_orig.jpg,107,,,,,,,,,0,107,107,107,,,,,,,,,,,,,,,21.005859375,12.626953125,0,0,1,0.666770935059,,,,,2015_Oct_24_1302,K,facesParametric,12,59.6459613197,
./stim/MorphM4_10_orig.jpg,108,,,,,,,,,0,108,108,108,,,,,,,,,,,,,,,21.123046875,12.509765625,1,0,0,0.65229010582,,,,,2015_Oct_24_1302,K,facesParametric,12,59.6459613197,
./stim/MorphM7_05_orig.jpg,109,,,,,,,,,0,109,109,109,,,,,,,,,,,,,,,21.181640625,12.451171875,1,0,0,1.0374751091,,,,,2015_Oct_24_1302,K,facesParametric,12,59.6459613197,
./stim/MorphM9_01_orig.jpg,110,,,,,,,,,0,110,110,110,,,,,,,,,,,,,,,21.2109375,12.48046875,1,0,0,2.17750811577,,,,,2015_Oct_24_1302,K,facesParametric,12,59.6459613197,
./stim/MorphF4_06_orig.jpg,111,,,,,,,,,0,111,111,111,,,,,,,,,,,,,,,20.888671875,12.333984375,0,0,1,2.99847793579,,,,,2015_Oct_24_1302,K,facesParametric,12,59.6459613197,
./stim/MorphF6_02_orig.jpg,112,,,,,,,,,0,112,112,112,,,,,,,,,,,,,,,20.68359375,12.24609375,0,0,1,0.686072826385,,,,,2015_Oct_24_1302,K,facesParametric,12,59.6459613197,
./stim/MorphF8_02_orig.jpg,113,,,,,,,,,0,113,113,113,,,,,,,,,,,,,,,20.654296875,12.275390625,0,0,1,2.1605629921,,,,,2015_Oct_24_1302,K,facesParametric,12,59.6459613197,
./stim/MorphM8_00_orig.jpg,114,,,,,,,,,0,114,114,114,,,,,,,,,,,,,,,20.625,12.1875,1,0,0,1.02070498466,,,,,2015_Oct_24_1302,K,facesParametric,12,59.6459613197,
./stim/MorphM3_03_orig.jpg,115,,,,,,,,,0,115,115,115,,,,,,,,,,,,,,,20.654296875,12.12890625,1,0,0,1.05476307869,,,,,2015_Oct_24_1302,K,facesParametric,12,59.6459613197,
./stim/MorphF10_03_orig.jpg,116,,,,,,,,,0,116,116,116,,,,,,,,,,,,,,,20.830078125,12.01171875,0,0,1,3.21673083305,,,,,2015_Oct_24_1302,K,facesParametric,12,59.6459613197,
./stim/MorphF7_00_orig.jpg,117,,,,,,,,,0,117,117,117,,,,,,,,,,,,,,,21.03515625,12.216796875,1,0,0,3.34919095039,,,,,2015_Oct_24_1302,K,facesParametric,12,59.6459613197,
./stim/MorphF9_06_orig.jpg,118,,,,,,,,,0,118,118,118,,,,,,,,,,,,,,,20.9765625,12.275390625,1,0,0,1.45590591431,,,,,2015_Oct_24_1302,K,facesParametric,12,59.6459613197,
./stim/MorphM2_05_orig.jpg,119,,,,,,,,,0,119,119,119,,,,,,,,,,,,,,,20.7421875,12.451171875,1,0,0,2.76454901695,,,,,2015_Oct_24_1302,K,facesParametric,12,59.6459613197,
./stim/MorphM6_03_orig.jpg,120,,,,,,,,,0,120,120,120,,,,,,,,,,,,,,,20.7421875,12.421875,1,0,0,1.37270402908,,,,,2015_Oct_24_1302,K,facesParametric,12,59.6459613197,
./stim/MorphM3_07_orig.jpg,121,,,,,,,,,0,121,121,121,,,,,,,,,,,,,,,20.68359375,12.36328125,1,0,0,0.770010948181,,,,,2015_Oct_24_1302,K,facesParametric,12,59.6459613197,
./stim/MorphF4_09_orig.jpg,122,,,,,,,,,0,122,122,122,,,,,,,,,,,,,,,20.537109375,12.451171875,1,0,0,0.918354034424,,,,,2015_Oct_24_1302,K,facesParametric,12,59.6459613197,
./stim/MorphF3_01_orig.jpg,123,,,,,,,,,0,123,123,123,,,,,,,,,,,,,,,20.712890625,12.5390625,0,0,1,0.652277946472,,,,,2015_Oct_24_1302,K,facesParametric,12,59.6459613197,
./stim/MorphF2_08_orig.jpg,124,,,,,,,,,0,124,124,124,,,,,,,,,,,,,,,20.537109375,12.65625,1,0,0,0.953181028366,,,,,2015_Oct_24_1302,K,facesParametric,12,59.6459613197,
./stim/MorphM5_03_orig.jpg,125,,,,,,,,,0,125,125,125,,,,,,,,,,,,,,,20.302734375,12.59765625,0,0,1,0.886682987213,,,,,2015_Oct_24_1302,K,facesParametric,12,59.6459613197,
./stim/MorphM1_09_orig.jpg,126,,,,,,,,,0,126,126,126,,,,,,,,,,,,,,,20.302734375,12.7734375,0,0,1,1.03789997101,,,,,2015_Oct_24_1302,K,facesParametric,12,59.6459613197,
./stim/MorphF1_10_orig.jpg,127,,,,,,,,,0,127,127,127,,,,,,,,,,,,,,,20.419921875,12.890625,1,0,0,0.987561941147,,,,,2015_Oct_24_1302,K,facesParametric,12,59.6459613197,
./stim/MorphM6_06_orig.jpg,128,,,,,,,,,0,128,128,128,,,,,,,,,,,,,,,20.302734375,12.919921875,1,0,0,1.42306089401,,,,,2015_Oct_24_1302,K,facesParametric,12,59.6459613197,
./stim/MorphF1_04_orig.jpg,129,,,,,,,,,0,129,129,129,,,,,,,,,,,,,,,20.2734375,12.94921875,0,0,1,0.952928066254,,,,,2015_Oct_24_1302,K,facesParametric,12,59.6459613197,
./stim/MorphF6_08_orig.jpg,130,,,,,,,,,0,130,130,130,,,,,,,,,,,,,,,20.15625,12.802734375,1,0,0,0.820938110352,,,,,2015_Oct_24_1302,K,facesParametric,12,59.6459613197,
./stim/MorphM6_02_orig.jpg,131,,,,,,,,,0,131,131,131,,,,,,,,,,,,,,,20.244140625,12.890625,1,0,0,3.06498289108,,,,,2015_Oct_24_1302,K,facesParametric,12,59.6459613197,
./stim/MorphF7_01_orig.jpg,132,,,,,,,,,0,132,132,132,,,,,,,,,,,,,,,20.302734375,12.890625,1,0,0,1.13764119148,,,,,2015_Oct_24_1302,K,facesParametric,12,59.6459613197,
./stim/MorphM8_03_orig.jpg,133,,,,,,,,,0,133,133,133,,,,,,,,,,,,,,,20.419921875,12.890625,1,0,0,1.37287402153,,,,,2015_Oct_24_1302,K,facesParametric,12,59.6459613197,
./stim/MorphF6_06_orig.jpg,134,,,,,,,,,0,134,134,134,,,,,,,,,,,,,,,20.302734375,12.919921875,1,0,0,1.17185497284,,,,,2015_Oct_24_1302,K,facesParametric,12,59.6459613197,
./stim/MorphF8_00_orig.jpg,135,,,,,,,,,0,135,135,135,,,,,,,,,,,,,,,20.361328125,13.0078125,0,0,1,0.736217021942,,,,,2015_Oct_24_1302,K,facesParametric,12,59.6459613197,
./stim/MorphF4_02_orig.jpg,136,,,,,,,,,0,136,136,136,,,,,,,,,,,,,,,20.625,13.095703125,0,0,1,3.18250703812,,,,,2015_Oct_24_1302,K,facesParametric,12,59.6459613197,
./stim/MorphM10_05_orig.jpg,137,,,,,,,,,0,137,137,137,,,,,,,,,,,,,,,20.361328125,13.154296875,0,0,1,1.85763812065,,,,,2015_Oct_24_1302,K,facesParametric,12,59.6459613197,
./stim/MorphF4_07_orig.jpg,138,,,,,,,,,0,138,138,138,,,,,,,,,,,,,,,20.302734375,13.154296875,1,0,0,2.2103228569,,,,,2015_Oct_24_1302,K,facesParametric,12,59.6459613197,
./stim/MorphM7_10_orig.jpg,139,,,,,,,,,0,139,139,139,,,,,,,,,,,,,,,20.21484375,13.125,1,0,0,0.836673021317,,,,,2015_Oct_24_1302,K,facesParametric,12,59.6459613197,
./stim/MorphF3_05_orig.jpg,140,,,,,,,,,0,140,140,140,,,,,,,,,,,,,,,20.390625,13.154296875,0,0,1,1.27304410934,,,,,2015_Oct_24_1302,K,facesParametric,12,59.6459613197,
./stim/MorphF6_01_orig.jpg,141,,,,,,,,,0,141,141,141,,,,,,,,,,,,,,,20.625,13.18359375,0,0,1,4.10207700729,,,,,2015_Oct_24_1302,K,facesParametric,12,59.6459613197,
./stim/MorphM2_04_orig.jpg,142,,,,,,,,,0,142,142,142,,,,,,,,,,,,,,,20.7421875,13.18359375,0,0,1,1.23894000053,,,,,2015_Oct_24_1302,K,facesParametric,12,59.6459613197,
./stim/MorphM1_05_orig.jpg,143,,,,,,,,,0,143,143,143,,,,,,,,,,,,,,,20.68359375,13.18359375,0,0,1,0.736087083817,,,,,2015_Oct_24_1302,K,facesParametric,12,59.6459613197,
./stim/MorphF9_02_orig.jpg,144,,,,,,,,,0,144,144,144,,,,,,,,,,,,,,,20.625,13.18359375,0,0,1,0.752969026566,,,,,2015_Oct_24_1302,K,facesParametric,12,59.6459613197,
./stim/MorphM3_06_orig.jpg,145,,,,,,,,,0,145,145,145,,,,,,,,,,,,,,,20.68359375,13.18359375,1,0,0,0.769625902176,,,,,2015_Oct_24_1302,K,facesParametric,12,59.6459613197,
./stim/MorphF3_03_orig.jpg,146,,,,,,,,,0,146,146,146,,,,,,,,,,,,,,,20.771484375,13.154296875,0,0,1,0.736009836197,,,,,2015_Oct_24_1302,K,facesParametric,12,59.6459613197,
./stim/MorphM6_04_orig.jpg,147,,,,,,,,,0,147,147,147,,,,,,,,,,,,,,,20.771484375,13.18359375,1,0,0,2.91507077217,,,,,2015_Oct_24_1302,K,facesParametric,12,59.6459613197,
./stim/MorphM7_08_orig.jpg,148,,,,,,,,,0,148,148,148,,,,,,,,,,,,,,,20.830078125,13.18359375,1,0,0,3.63528203964,,,,,2015_Oct_24_1302,K,facesParametric,12,59.6459613197,
./stim/MorphM3_08_orig.jpg,149,,,,,,,,,0,149,149,149,,,,,,,,,,,,,,,20.859375,13.18359375,1,0,0,4.28823518753,,,,,2015_Oct_24_1302,K,facesParametric,12,59.6459613197,
./stim/MorphM8_07_orig.jpg,150,,,,,,,,,0,150,150,150,,,,,,,,,,,,,,,20.771484375,13.18359375,1,0,0,1.42357611656,,,,,2015_Oct_24_1302,K,facesParametric,12,59.6459613197,
./stim/MorphM1_07_orig.jpg,151,,,,,,,,,0,151,151,151,,,,,,,,,,,,,,,20.654296875,13.18359375,0,0,1,1.92601895332,,,,,2015_Oct_24_1302,K,facesParametric,12,59.6459613197,
./stim/MorphF4_03_orig.jpg,152,,,,,,,,,0,152,152,152,,,,,,,,,,,,,,,20.625,13.0078125,0,0,1,2.5463578701,,,,,2015_Oct_24_1302,K,facesParametric,12,59.6459613197,
./stim/MorphM5_07_orig.jpg,153,,,,,,,,,0,153,153,153,,,,,,,,,,,,,,,20.5078125,12.890625,1,0,0,2.00992798805,,,,,2015_Oct_24_1302,K,facesParametric,12,59.6459613197,
./stim/MorphM9_06_orig.jpg,154,,,,,,,,,0,154,154,154,,,,,,,,,,,,,,,20.7421875,12.83203125,1,0,0,6.63540887833,,,,,2015_Oct_24_1302,K,facesParametric,12,59.6459613197,
./stim/MorphF8_09_orig.jpg,155,,,,,,,,,0,155,155,155,,,,,,,,,,,,,,,20.771484375,12.861328125,1,0,0,0.836899995804,,,,,2015_Oct_24_1302,K,facesParametric,12,59.6459613197,
./stim/MorphM6_01_orig.jpg,156,,,,,,,,,0,156,156,156,,,,,,,,,,,,,,,20.654296875,12.65625,1,0,0,5.0253431797,,,,,2015_Oct_24_1302,K,facesParametric,12,59.6459613197,
./stim/MorphM7_06_orig.jpg,157,,,,,,,,,0,157,157,157,,,,,,,,,,,,,,,20.595703125,12.71484375,1,0,0,0.802427053452,,,,,2015_Oct_24_1302,K,facesParametric,12,59.6459613197,
./stim/MorphM10_08_orig.jpg,158,,,,,,,,,0,158,158,158,,,,,,,,,,,,,,,20.56640625,12.744140625,1,0,0,0.633751869202,,,,,2015_Oct_24_1302,K,facesParametric,12,59.6459613197,
./stim/MorphF10_02_orig.jpg,159,,,,,,,,,0,159,159,159,,,,,,,,,,,,,,,20.595703125,12.744140625,1,0,0,1.05481791496,,,,,2015_Oct_24_1302,K,facesParametric,12,59.6459613197,
./stim/MorphM9_08_orig.jpg,160,,,,,,,,,0,160,160,160,,,,,,,,,,,,,,,20.595703125,12.7734375,1,0,0,0.786897182465,,,,,2015_Oct_24_1302,K,facesParametric,12,59.6459613197,
./stim/MorphM4_09_orig.jpg,161,,,,,,,,,0,161,161,161,,,,,,,,,,,,,,,20.68359375,12.71484375,1,0,0,0.700016021729,,,,,2015_Oct_24_1302,K,facesParametric,12,59.6459613197,
./stim/MorphM2_03_orig.jpg,162,,,,,,,,,0,162,162,162,,,,,,,,,,,,,,,20.68359375,12.685546875,0,0,1,1.65594887733,,,,,2015_Oct_24_1302,K,facesParametric,12,59.6459613197,
./stim/MorphM1_08_orig.jpg,163,,,,,,,,,0,163,163,163,,,,,,,,,,,,,,,20.830078125,12.7734375,1,0,0,0.802423000336,,,,,2015_Oct_24_1302,K,facesParametric,12,59.6459613197,
./stim/MorphF10_01_orig.jpg,164,,,,,,,,,0,164,164,164,,,,,,,,,,,,,,,20.80078125,12.83203125,0,0,1,1.05309486389,,,,,2015_Oct_24_1302,K,facesParametric,12,59.6459613197,
./stim/MorphM6_07_orig.jpg,165,,,,,,,,,0,165,165,165,,,,,,,,,,,,,,,20.625,12.919921875,1,0,0,0.936631917953,,,,,2015_Oct_24_1302,K,facesParametric,12,59.6459613197,
./stim/MorphM3_00_orig.jpg,166,,,,,,,,,0,166,166,166,,,,,,,,,,,,,,,20.654296875,12.919921875,1,0,0,0.81990814209,,,,,2015_Oct_24_1302,K,facesParametric,12,59.6459613197,
./stim/MorphF8_01_orig.jpg,167,,,,,,,,,0,167,167,167,,,,,,,,,,,,,,,20.830078125,12.802734375,0,0,1,0.752207994461,,,,,2015_Oct_24_1302,K,facesParametric,12,59.6459613197,
./stim/MorphF2_07_orig.jpg,168,,,,,,,,,0,168,168,168,,,,,,,,,,,,,,,20.947265625,12.7734375,1,0,0,0.803568124771,,,,,2015_Oct_24_1302,K,facesParametric,12,59.6459613197,
./stim/MorphM9_05_orig.jpg,169,,,,,,,,,0,169,169,169,,,,,,,,,,,,,,,21.03515625,12.7734375,1,0,0,1.15495109558,,,,,2015_Oct_24_1302,K,facesParametric,12,59.6459613197,
./stim/MorphF5_07_orig.jpg,170,,,,,,,,,0,170,170,170,,,,,,,,,,,,,,,21.03515625,12.802734375,1,0,0,0.971054077148,,,,,2015_Oct_24_1302,K,facesParametric,12,59.6459613197,
./stim/MorphM2_06_orig.jpg,171,,,,,,,,,0,171,171,171,,,,,,,,,,,,,,,21.2109375,12.919921875,1,0,0,2.79774785042,,,,,2015_Oct_24_1302,K,facesParametric,12,59.6459613197,
./stim/MorphM7_01_orig.jpg,172,,,,,,,,,0,172,172,172,,,,,,,,,,,,,,,21.064453125,13.095703125,0,0,1,0.837796211243,,,,,2015_Oct_24_1302,K,facesParametric,12,59.6459613197,
./stim/MorphF2_09_orig.jpg,173,,,,,,,,,0,173,173,173,,,,,,,,,,,,,,,21.005859375,13.125,1,0,0,0.751696109772,,,,,2015_Oct_24_1302,K,facesParametric,12,59.6459613197,
./stim/MorphF6_07_orig.jpg,174,,,,,,,,,0,174,174,174,,,,,,,,,,,,,,,20.947265625,13.18359375,1,0,0,0.819802999496,,,,,2015_Oct_24_1302,K,facesParametric,12,59.6459613197,
./stim/MorphM3_01_orig.jpg,175,,,,,,,,,0,175,175,175,,,,,,,,,,,,,,,20.91796875,13.18359375,1,0,0,1.85853004456,,,,,2015_Oct_24_1302,K,facesParametric,12,59.6459613197,
./stim/MorphF4_10_orig.jpg,176,,,,,,,,,0,176,176,176,,,,,,,,,,,,,,,20.830078125,13.18359375,1,0,0,0.886578798294,,,,,2015_Oct_24_1302,K,facesParametric,12,59.6459613197,
./stim/MorphM2_10_orig.jpg,177,,,,,,,,,0,177,177,177,,,,,,,,,,,,,,,20.9765625,13.125,1,0,0,1.62376499176,,,,,2015_Oct_24_1302,K,facesParametric,12,59.6459613197,
./stim/MorphM6_09_orig.jpg,178,,,,,,,,,0,178,178,178,,,,,,,,,,,,,,,20.9765625,13.125,1,0,0,1.42326688766,,,,,2015_Oct_24_1302,K,facesParametric,12,59.6459613197,
./stim/MorphF3_06_orig.jpg,179,,,,,,,,,0,179,179,179,,,,,,,,,,,,,,,21.09375,12.978515625,1,0,0,0.954181909561,,,,,2015_Oct_24_1302,K,facesParametric,12,59.6459613197,
./stim/MorphM4_02_orig.jpg,180,,,,,,,,,0,180,180,180,,,,,,,,,,,,,,,21.09375,12.978515625,0,0,1,0.886548995972,,,,,2015_Oct_24_1302,K,facesParametric,12,59.6459613197,
./stim/MorphM7_00_orig.jpg,181,,,,,,,,,0,181,181,181,,,,,,,,,,,,,,,21.09375,12.978515625,0,0,1,0.837064981461,,,,,2015_Oct_24_1302,K,facesParametric,12,59.6459613197,
./stim/MorphM2_09_orig.jpg,182,,,,,,,,,0,182,182,182,,,,,,,,,,,,,,,21.09375,12.978515625,1,0,0,0.869105100632,,,,,2015_Oct_24_1302,K,facesParametric,12,59.6459613197,
./stim/MorphF4_08_orig.jpg,183,,,,,,,,,0,183,183,183,,,,,,,,,,,,,,,21.26953125,12.861328125,1,0,0,1.23882699013,,,,,2015_Oct_24_1302,K,facesParametric,12,59.6459613197,
./stim/MorphM2_02_orig.jpg,184,,,,,,,,,0,184,184,184,,,,,,,,,,,,,,,21.298828125,12.83203125,0,0,1,0.68575501442,,,,,2015_Oct_24_1302,K,facesParametric,12,59.6459613197,
./stim/MorphF4_05_orig.jpg,185,,,,,,,,,0,185,185,185,,,,,,,,,,,,,,,21.2109375,12.83203125,0,0,1,0.820111036301,,,,,2015_Oct_24_1302,K,facesParametric,12,59.6459613197,
./stim/MorphM4_01_orig.jpg,186,,,,,,,,,0,186,186,186,,,,,,,,,,,,,,,21.15234375,12.7734375,0,0,1,0.75171995163,,,,,2015_Oct_24_1302,K,facesParametric,12,59.6459613197,
./stim/MorphM8_10_orig.jpg,187,,,,,,,,,0,187,187,187,,,,,,,,,,,,,,,21.2109375,12.7734375,1,0,0,0.836164951324,,,,,2015_Oct_24_1302,K,facesParametric,12,59.6459613197,
./stim/MorphM4_04_orig.jpg,188,,,,,,,,,0,188,188,188,,,,,,,,,,,,,,,21.2109375,12.7734375,1,0,0,1.22234296799,,,,,2015_Oct_24_1302,K,facesParametric,12,59.6459613197,
./stim/MorphF2_04_orig.jpg,189,,,,,,,,,0,189,189,189,,,,,,,,,,,,,,,21.15234375,12.802734375,1,0,0,1.0703151226,,,,,2015_Oct_24_1302,K,facesParametric,12,59.6459613197,
./stim/MorphF8_03_orig.jpg,190,,,,,,,,,0,190,190,190,,,,,,,,,,,,,,,21.357421875,12.59765625,0,0,1,0.902735948563,,,,,2015_Oct_24_1302,K,facesParametric,12,59.6459613197,
./stim/MorphM5_00_orig.jpg,191,,,,,,,,,0,191,191,191,,,,,,,,,,,,,,,21.416015625,12.5390625,0,0,1,0.88682103157,,,,,2015_Oct_24_1302,K,facesParametric,12,59.6459613197,
./stim/MorphM4_05_orig.jpg,192,,,,,,,,,0,192,192,192,,,,,,,,,,,,,,,21.416015625,12.421875,1,0,0,3.70268416405,,,,,2015_Oct_24_1302,K,facesParametric,12,59.6459613197,
./stim/MorphM1_01_orig.jpg,193,,,,,,,,,0,193,193,193,,,,,,,,,,,,,,,21.50390625,12.36328125,0,0,1,0.6863489151,,,,,2015_Oct_24_1302,K,facesParametric,12,59.6459613197,
./stim/MorphF7_07_orig.jpg,194,,,,,,,,,0,194,194,194,,,,,,,,,,,,,,,21.591796875,12.333984375,1,0,0,0.884723186493,,,,,2015_Oct_24_1302,K,facesParametric,12,59.6459613197,
./stim/MorphM10_10_orig.jpg,195,,,,,,,,,0,195,195,195,,,,,,,,,,,,,,,21.591796875,12.392578125,1,0,0,0.901566028595,,,,,2015_Oct_24_1302,K,facesParametric,12,59.6459613197,
./stim/MorphM9_00_orig.jpg,196,,,,,,,,,0,196,196,196,,,,,,,,,,,,,,,21.591796875,12.333984375,1,0,0,1.00429201126,,,,,2015_Oct_24_1302,K,facesParametric,12,59.6459613197,
./stim/MorphM8_02_orig.jpg,197,,,,,,,,,0,197,197,197,,,,,,,,,,,,,,,21.50390625,12.451171875,1,0,0,3.43435096741,,,,,2015_Oct_24_1302,K,facesParametric,12,59.6459613197,
./stim/MorphF9_05_orig.jpg,198,,,,,,,,,0,198,198,198,,,,,,,,,,,,,,,21.474609375,12.48046875,1,0,0,1.77510619164,,,,,2015_Oct_24_1302,K,facesParametric,12,59.6459613197,
./stim/MorphM7_03_orig.jpg,199,,,,,,,,,0,199,199,199,,,,,,,,,,,,,,,21.4453125,12.451171875,0,0,1,0.585309028625,,,,,2015_Oct_24_1302,K,facesParametric,12,59.6459613197,
./stim/MorphF8_04_orig.jpg,200,,,,,,,,,0,200,200,200,,,,,,,,,,,,,,,21.50390625,12.333984375,1,0,0,2.66321897507,,,,,2015_Oct_24_1302,K,facesParametric,12,59.6459613197,
./stim/MorphF2_03_orig.jpg,201,,,,,,,,,0,201,201,201,,,,,,,,,,,,,,,21.474609375,12.275390625,1,0,0,1.13857889175,,,,,2015_Oct_24_1302,K,facesParametric,12,59.6459613197,
./stim/MorphF9_00_orig.jpg,202,,,,,,,,,0,202,202,202,,,,,,,,,,,,,,,21.4453125,12.24609375,0,0,1,0.870106935501,,,,,2015_Oct_24_1302,K,facesParametric,12,59.6459613197,
./stim/MorphF10_00_orig.jpg,203,,,,,,,,,0,203,203,203,,,,,,,,,,,,,,,21.38671875,12.24609375,0,0,1,0.75283408165,,,,,2015_Oct_24_1302,K,facesParametric,12,59.6459613197,
./stim/MorphM3_04_orig.jpg,204,,,,,,,,,0,204,204,204,,,,,,,,,,,,,,,21.4453125,12.12890625,1,0,0,0.935972929001,,,,,2015_Oct_24_1302,K,facesParametric,12,59.6459613197,
./stim/MorphM9_03_orig.jpg,205,,,,,,,,,0,205,205,205,,,,,,,,,,,,,,,21.474609375,12.041015625,1,0,0,1.80869984627,,,,,2015_Oct_24_1302,K,facesParametric,12,59.6459613197,
./stim/MorphF6_03_orig.jpg,206,,,,,,,,,0,206,206,206,,,,,,,,,,,,,,,21.474609375,11.982421875,1,0,0,3.78670597076,,,,,2015_Oct_24_1302,K,facesParametric,12,59.6459613197,
./stim/MorphM10_03_orig.jpg,207,,,,,,,,,0,207,207,207,,,,,,,,,,,,,,,21.4453125,11.923828125,1,0,0,1.95937609673,,,,,2015_Oct_24_1302,K,facesParametric,12,59.6459613197,
./stim/MorphF2_05_orig.jpg,208,,,,,,,,,0,208,208,208,,,,,,,,,,,,,,,21.416015625,11.89453125,1,0,0,0.819912195206,,,,,2015_Oct_24_1302,K,facesParametric,12,59.6459613197,
./stim/MorphM2_00_orig.jpg,209,,,,,,,,,0,209,209,209,,,,,,,,,,,,,,,21.357421875,11.923828125,0,0,1,0.870079040527,,,,,2015_Oct_24_1302,K,facesParametric,12,59.6459613197,
./stim/MorphF7_05_orig.jpg,210,,,,,,,,,0,210,210,210,,,,,,,,,,,,,,,21.357421875,11.923828125,1,0,0,1.87605810165,,,,,2015_Oct_24_1302,K,facesParametric,12,59.6459613197,
./stim/MorphM6_05_orig.jpg,211,,,,,,,,,0,211,211,211,,,,,,,,,,,,,,,5.33203125,-11.513671875,1,0,0,4.79170417786,,,,,2015_Oct_24_1302,K,facesParametric,12,59.6459613197,
./stim/MorphF5_02_orig.jpg,212,,,,,,,,,0,212,212,212,,,,,,,,,,,,,,,5.244140625,-11.71875,0,0,1,0.952419996262,,,,,2015_Oct_24_1302,K,facesParametric,12,59.6459613197,
./stim/MorphF3_07_orig.jpg,213,,,,,,,,,0,213,213,213,,,,,,,,,,,,,,,5.33203125,-11.748046875,1,0,0,0.867478132248,,,,,2015_Oct_24_1302,K,facesParametric,12,59.6459613197,
./stim/MorphF5_10_orig.jpg,214,,,,,,,,,0,214,214,214,,,,,,,,,,,,,,,5.361328125,-11.513671875,1,0,0,1.28870916367,,,,,2015_Oct_24_1302,K,facesParametric,12,59.6459613197,
./stim/MorphF3_04_orig.jpg,215,,,,,,,,,0,215,215,215,,,,,,,,,,,,,,,5.390625,-11.513671875,1,0,0,1.37384009361,,,,,2015_Oct_24_1302,K,facesParametric,12,59.6459613197,
./stim/MorphF10_09_orig.jpg,216,,,,,,,,,0,216,216,216,,,,,,,,,,,,,,,5.390625,-11.455078125,1,0,0,0.901004076004,,,,,2015_Oct_24_1302,K,facesParametric,12,59.6459613197,
./stim/MorphF6_00_orig.jpg,217,,,,,,,,,0,217,217,217,,,,,,,,,,,,,,,5.419921875,-11.3671875,0,0,1,0.753211021423,,,,,2015_Oct_24_1302,K,facesParametric,12,59.6459613197,
./stim/MorphF1_05_orig.jpg,218,,,,,,,,,0,218,218,218,,,,,,,,,,,,,,,5.390625,-11.30859375,0,0,1,0.819082021713,,,,,2015_Oct_24_1302,K,facesParametric,12,59.6459613197,
./stim/MorphM3_10_orig.jpg,219,,,,,,,,,0,219,219,219,,,,,,,,,,,,,,,5.44921875,-11.3671875,1,0,0,0.73566198349,,,,,2015_Oct_24_1302,K,facesParametric,12,59.6459613197,
,,,,,,,,,,,,,,,,,,,,,,,,,,,,,,,,,,,,return,1.80182695389,2015_Oct_24_1302,K,facesParametric,12,59.6459613197,
