img,num,basicLoop.thisRepN,basicLoop.thisTrialN,basicLoop.thisN,basicLoop.thisIndex,trials.thisRepN,trials.thisTrialN,trials.thisN,trials.thisIndex,trials2.thisRepN,trials2.thisTrialN,trials2.thisN,trials2.thisIndex,key_resp_2.keys,key_resp_2.rt,basicRating1.response,basicRating1.rt,basicRating2.response,basicRating2.rt,basicRating3.response,basicRating3.rt,basicRating4.response,basicRating4.rt,key_resp_3.keys,key_resp_3.rt,key_resp_4.keys,key_resp_4.rt,mouseResp.x,mouseResp.y,mouseResp.leftButton,mouseResp.midButton,mouseResp.rightButton,mouseResp.time,key_resp_5.keys,key_resp_5.rt,key_resp_7.keys,key_resp_7.rt,date,group,expName,participant,frameRate,
,,,,,,,,,,,,,,return,108.478896856,,,,,,,,,,,,,,,,,,,,,,,2015_Oct_24_1337,K,facesParametric,13,59.6944333354,
./basicStim/09F_HA_O.jpg,,0,0,0,38,,,,,,,,,,,HAP,10.428,None,None,None,None,None,None,,,,,,,,,,,,,,,2015_Oct_24_1337,K,facesParametric,13,59.6944333354,
./basicStim/06F_HA_O.jpg,,0,1,1,24,,,,,,,,,,,None,None,None,None,SUP,14.338,None,None,,,,,,,,,,,,,,,2015_Oct_24_1337,K,facesParametric,13,59.6944333354,
./basicStim/21M_DI_O.jpg,,0,2,2,43,,,,,,,,,,,None,None,None,None,DIS,5.957,None,None,,,,,,,,,,,,,,,2015_Oct_24_1337,K,facesParametric,13,59.6944333354,
./basicStim/36M_SA_C.jpg,,0,3,3,81,,,,,,,,,,,SAD,13.011,None,None,None,None,None,None,,,,,,,,,,,,,,,2015_Oct_24_1337,K,facesParametric,13,59.6944333354,
./basicStim/03F_AN_O.jpg,,0,4,4,14,,,,,,,,,,,None,None,ANG,4.201,None,None,None,None,,,,,,,,,,,,,,,2015_Oct_24_1337,K,facesParametric,13,59.6944333354,
./basicStim/06F_FE_O.jpg,,0,5,5,23,,,,,,,,,,,None,None,None,None,SUP,11.714,None,None,,,,,,,,,,,,,,,2015_Oct_24_1337,K,facesParametric,13,59.6944333354,
./basicStim/07F_SP_O.jpg,,0,6,6,33,,,,,,,,,,,None,None,None,None,SUP,6.711,None,None,,,,,,,,,,,,,,,2015_Oct_24_1337,K,facesParametric,13,59.6944333354,
./basicStim/23M_AN_O.jpg,,0,7,7,49,,,,,,,,,,,None,None,ANG,4.059,None,None,None,None,,,,,,,,,,,,,,,2015_Oct_24_1337,K,facesParametric,13,59.6944333354,
./basicStim/34M_SA_C.jpg,,0,8,8,74,,,,,,,,,,,SAD,3.632,None,None,None,None,None,None,,,,,,,,,,,,,,,2015_Oct_24_1337,K,facesParametric,13,59.6944333354,
./basicStim/01F_NE_C.jpg,,0,9,9,6,,,,,,,,,,,None,None,FEA,9.52,None,None,None,None,,,,,,,,,,,,,,,2015_Oct_24_1337,K,facesParametric,13,59.6944333354,
./basicStim/23M_SA_C.jpg,,0,10,10,53,,,,,,,,,,,None,None,None,None,None,None,NTR,11.851,,,,,,,,,,,,,,,2015_Oct_24_1337,K,facesParametric,13,59.6944333354,
./basicStim/21M_SP_O.jpg,,0,11,11,47,,,,,,,,,,,None,None,None,None,SUP,9.605,None,None,,,,,,,,,,,,,,,2015_Oct_24_1337,K,facesParametric,13,59.6944333354,
./basicStim/06F_AN_O.jpg,,0,12,12,21,,,,,,,,,,,None,None,ANG,4.58,None,None,None,None,,,,,,,,,,,,,,,2015_Oct_24_1337,K,facesParametric,13,59.6944333354,
./basicStim/28M_SP_O.jpg,,0,13,13,68,,,,,,,,,,,None,None,None,None,SUP,8.269,None,None,,,,,,,,,,,,,,,2015_Oct_24_1337,K,facesParametric,13,59.6944333354,
./basicStim/28M_AN_O.jpg,,0,14,14,63,,,,,,,,,,,None,None,ANG,2.335,None,None,None,None,,,,,,,,,,,,,,,2015_Oct_24_1337,K,facesParametric,13,59.6944333354,
./basicStim/09F_NE_C.jpg,,0,15,15,41,,,,,,,,,,,SAD,10.161,None,None,None,None,None,None,,,,,,,,,,,,,,,2015_Oct_24_1337,K,facesParametric,13,59.6944333354,
./basicStim/07F_SA_C.jpg,,0,16,16,32,,,,,,,,,,,SAD,3.961,None,None,None,None,None,None,,,,,,,,,,,,,,,2015_Oct_24_1337,K,facesParametric,13,59.6944333354,
./basicStim/02F_HA_O.jpg,,0,17,17,10,,,,,,,,,,,HAP,4.214,None,None,None,None,None,None,,,,,,,,,,,,,,,2015_Oct_24_1337,K,facesParametric,13,59.6944333354,
./basicStim/06F_NE_C.jpg,,0,18,18,27,,,,,,,,,,,None,None,None,None,None,None,NTR,7.725,,,,,,,,,,,,,,,2015_Oct_24_1337,K,facesParametric,13,59.6944333354,
./basicStim/09F_DI_O.jpg,,0,19,19,36,,,,,,,,,,,None,None,None,None,DIS,2.516,None,None,,,,,,,,,,,,,,,2015_Oct_24_1337,K,facesParametric,13,59.6944333354,
./basicStim/36M_SP_O.jpg,,0,20,20,82,,,,,,,,,,,None,None,None,None,SUP,6.997,None,None,,,,,,,,,,,,,,,2015_Oct_24_1337,K,facesParametric,13,59.6944333354,
./basicStim/09F_AN_O.jpg,,0,21,21,35,,,,,,,,,,,None,None,ANG,4.598,None,None,None,None,,,,,,,,,,,,,,,2015_Oct_24_1337,K,facesParametric,13,59.6944333354,
./basicStim/21M_SA_C.jpg,,0,22,22,46,,,,,,,,,,,SAD,3.141,None,None,None,None,None,None,,,,,,,,,,,,,,,2015_Oct_24_1337,K,facesParametric,13,59.6944333354,
./basicStim/21M_NE_C.jpg,,0,23,23,48,,,,,,,,,,,None,None,None,None,None,None,NTR,3.42,,,,,,,,,,,,,,,2015_Oct_24_1337,K,facesParametric,13,59.6944333354,
./basicStim/24M_AN_O.jpg,,0,24,24,56,,,,,,,,,,,None,None,ANG,4.547,None,None,None,None,,,,,,,,,,,,,,,2015_Oct_24_1337,K,facesParametric,13,59.6944333354,
./basicStim/24M_HA_O.jpg,,0,25,25,59,,,,,,,,,,,HAP,4.552,None,None,None,None,None,None,,,,,,,,,,,,,,,2015_Oct_24_1337,K,facesParametric,13,59.6944333354,
./basicStim/07F_AN_O.jpg,,0,26,26,28,,,,,,,,,,,None,None,ANG,2.785,None,None,None,None,,,,,,,,,,,,,,,2015_Oct_24_1337,K,facesParametric,13,59.6944333354,
./basicStim/28M_NE_C.jpg,,0,27,27,69,,,,,,,,,,,None,None,None,None,SUP,5.185,None,None,,,,,,,,,,,,,,,2015_Oct_24_1337,K,facesParametric,13,59.6944333354,
./basicStim/24M_FE_O.jpg,,0,28,28,58,,,,,,,,,,,None,None,FEA,3.591,None,None,None,None,,,,,,,,,,,,,,,2015_Oct_24_1337,K,facesParametric,13,59.6944333354,
./basicStim/06F_SA_C.jpg,,0,29,29,25,,,,,,,,,,,SAD,3.289,None,None,None,None,None,None,,,,,,,,,,,,,,,2015_Oct_24_1337,K,facesParametric,13,59.6944333354,
./basicStim/02F_DI_O.jpg,,0,30,30,8,,,,,,,,,,,None,None,ANG,1.982,None,None,None,None,,,,,,,,,,,,,,,2015_Oct_24_1337,K,facesParametric,13,59.6944333354,
./basicStim/09F_SP_O.jpg,,0,31,31,40,,,,,,,,,,,None,None,None,None,SUP,2.398,None,None,,,,,,,,,,,,,,,2015_Oct_24_1337,K,facesParametric,13,59.6944333354,
./basicStim/36M_FE_O.jpg,,0,32,32,79,,,,,,,,,,,None,None,FEA,6.509,None,None,None,None,,,,,,,,,,,,,,,2015_Oct_24_1337,K,facesParametric,13,59.6944333354,
./basicStim/09F_FE_O.jpg,,0,33,33,37,,,,,,,,,,,None,None,ANG,6.191,None,None,None,None,,,,,,,,,,,,,,,2015_Oct_24_1337,K,facesParametric,13,59.6944333354,
./basicStim/23M_SP_O.jpg,,0,34,34,54,,,,,,,,,,,None,None,None,None,SUP,5.042,None,None,,,,,,,,,,,,,,,2015_Oct_24_1337,K,facesParametric,13,59.6944333354,
./basicStim/28M_DI_O.jpg,,0,35,35,64,,,,,,,,,,,None,None,None,None,DIS,2.949,None,None,,,,,,,,,,,,,,,2015_Oct_24_1337,K,facesParametric,13,59.6944333354,
./basicStim/28M_FE_O.jpg,,0,36,36,65,,,,,,,,,,,None,None,FEA,3.546,None,None,None,None,,,,,,,,,,,,,,,2015_Oct_24_1337,K,facesParametric,13,59.6944333354,
./basicStim/21M_FE_O.jpg,,0,37,37,44,,,,,,,,,,,None,None,FEA,5.032,None,None,None,None,,,,,,,,,,,,,,,2015_Oct_24_1337,K,facesParametric,13,59.6944333354,
./basicStim/34M_SP_O.jpg,,0,38,38,75,,,,,,,,,,,None,None,None,None,SUP,3.554,None,None,,,,,,,,,,,,,,,2015_Oct_24_1337,K,facesParametric,13,59.6944333354,
./basicStim/24M_SA_C.jpg,,0,39,39,60,,,,,,,,,,,None,None,None,None,DIS,11.958,None,None,,,,,,,,,,,,,,,2015_Oct_24_1337,K,facesParametric,13,59.6944333354,
./basicStim/23M_HA_O.jpg,,0,40,40,52,,,,,,,,,,,HAP,3.106,None,None,None,None,None,None,,,,,,,,,,,,,,,2015_Oct_24_1337,K,facesParametric,13,59.6944333354,
./basicStim/23M_FE_O.jpg,,0,41,41,51,,,,,,,,,,,None,None,FEA,5.321,None,None,None,None,,,,,,,,,,,,,,,2015_Oct_24_1337,K,facesParametric,13,59.6944333354,
./basicStim/01F_AN_O.jpg,,0,42,42,0,,,,,,,,,,,None,None,ANG,2.197,None,None,None,None,,,,,,,,,,,,,,,2015_Oct_24_1337,K,facesParametric,13,59.6944333354,
./basicStim/01F_DI_O.jpg,,0,43,43,1,,,,,,,,,,,None,None,None,None,DIS,2.393,None,None,,,,,,,,,,,,,,,2015_Oct_24_1337,K,facesParametric,13,59.6944333354,
./basicStim/28M_SA_C.jpg,,0,44,44,67,,,,,,,,,,,None,None,None,None,None,None,NTR,3.289,,,,,,,,,,,,,,,2015_Oct_24_1337,K,facesParametric,13,59.6944333354,
./basicStim/34M_DI_O.jpg,,0,45,45,71,,,,,,,,,,,None,None,None,None,DIS,2.327,None,None,,,,,,,,,,,,,,,2015_Oct_24_1337,K,facesParametric,13,59.6944333354,
./basicStim/02F_SP_O.jpg,,0,46,46,12,,,,,,,,,,,None,None,None,None,SUP,2.733,None,None,,,,,,,,,,,,,,,2015_Oct_24_1337,K,facesParametric,13,59.6944333354,
./basicStim/36M_AN_O.jpg,,0,47,47,77,,,,,,,,,,,SAD,13.229,None,None,None,None,None,None,,,,,,,,,,,,,,,2015_Oct_24_1337,K,facesParametric,13,59.6944333354,
./basicStim/07F_FE_O.jpg,,0,48,48,30,,,,,,,,,,,None,None,ANG,9.293,None,None,None,None,,,,,,,,,,,,,,,2015_Oct_24_1337,K,facesParametric,13,59.6944333354,
./basicStim/03F_FE_O.jpg,,0,49,49,16,,,,,,,,,,,None,None,FEA,4.008,None,None,None,None,,,,,,,,,,,,,,,2015_Oct_24_1337,K,facesParametric,13,59.6944333354,
./basicStim/01F_SA_C.jpg,,0,50,50,4,,,,,,,,,,,SAD,2.2,None,None,None,None,None,None,,,,,,,,,,,,,,,2015_Oct_24_1337,K,facesParametric,13,59.6944333354,
./basicStim/03F_NE_C.jpg,,0,51,51,20,,,,,,,,,,,None,None,None,None,None,None,NTR,2.169,,,,,,,,,,,,,,,2015_Oct_24_1337,K,facesParametric,13,59.6944333354,
./basicStim/34M_HA_O.jpg,,0,52,52,73,,,,,,,,,,,HAP,2.205,None,None,None,None,None,None,,,,,,,,,,,,,,,2015_Oct_24_1337,K,facesParametric,13,59.6944333354,
./basicStim/07F_DI_O.jpg,,0,53,53,29,,,,,,,,,,,None,None,None,None,DIS,2.755,None,None,,,,,,,,,,,,,,,2015_Oct_24_1337,K,facesParametric,13,59.6944333354,
./basicStim/03F_HA_O.jpg,,0,54,54,17,,,,,,,,,,,SAD,4.076,None,None,None,None,None,None,,,,,,,,,,,,,,,2015_Oct_24_1337,K,facesParametric,13,59.6944333354,
./basicStim/09F_SA_C.jpg,,0,55,55,39,,,,,,,,,,,SAD,4.111,None,None,None,None,None,None,,,,,,,,,,,,,,,2015_Oct_24_1337,K,facesParametric,13,59.6944333354,
./basicStim/03F_SA_C.jpg,,0,56,56,18,,,,,,,,,,,SAD,3.592,None,None,None,None,None,None,,,,,,,,,,,,,,,2015_Oct_24_1337,K,facesParametric,13,59.6944333354,
./basicStim/03F_DI_O.jpg,,0,57,57,15,,,,,,,,,,,None,None,None,None,DIS,2.098,None,None,,,,,,,,,,,,,,,2015_Oct_24_1337,K,facesParametric,13,59.6944333354,
./basicStim/02F_NE_C.jpg,,0,58,58,13,,,,,,,,,,,None,None,None,None,None,None,NTR,2.31,,,,,,,,,,,,,,,2015_Oct_24_1337,K,facesParametric,13,59.6944333354,
./basicStim/01F_HA_O.jpg,,0,59,59,3,,,,,,,,,,,HAP,2.0,None,None,None,None,None,None,,,,,,,,,,,,,,,2015_Oct_24_1337,K,facesParametric,13,59.6944333354,
./basicStim/23M_DI_O.jpg,,0,60,60,50,,,,,,,,,,,SAD,4.767,None,None,None,None,None,None,,,,,,,,,,,,,,,2015_Oct_24_1337,K,facesParametric,13,59.6944333354,
./basicStim/36M_NE_C.jpg,,0,61,61,83,,,,,,,,,,,None,None,None,None,None,None,NTR,1.968,,,,,,,,,,,,,,,2015_Oct_24_1337,K,facesParametric,13,59.6944333354,
./basicStim/02F_AN_O.jpg,,0,62,62,7,,,,,,,,,,,None,None,ANG,2.295,None,None,None,None,,,,,,,,,,,,,,,2015_Oct_24_1337,K,facesParametric,13,59.6944333354,
./basicStim/01F_SP_O.jpg,,0,63,63,5,,,,,,,,,,,None,None,None,None,SUP,3.808,None,None,,,,,,,,,,,,,,,2015_Oct_24_1337,K,facesParametric,13,59.6944333354,
./basicStim/03F_SP_O.jpg,,0,64,64,19,,,,,,,,,,,None,None,None,None,SUP,4.886,None,None,,,,,,,,,,,,,,,2015_Oct_24_1337,K,facesParametric,13,59.6944333354,
./basicStim/24M_SP_O.jpg,,0,65,65,61,,,,,,,,,,,None,None,None,None,SUP,5.514,None,None,,,,,,,,,,,,,,,2015_Oct_24_1337,K,facesParametric,13,59.6944333354,
./basicStim/07F_HA_O.jpg,,0,66,66,31,,,,,,,,,,,HAP,2.252,None,None,None,None,None,None,,,,,,,,,,,,,,,2015_Oct_24_1337,K,facesParametric,13,59.6944333354,
./basicStim/21M_HA_O.jpg,,0,67,67,45,,,,,,,,,,,HAP,1.517,None,None,None,None,None,None,,,,,,,,,,,,,,,2015_Oct_24_1337,K,facesParametric,13,59.6944333354,
./basicStim/02F_FE_O.jpg,,0,68,68,9,,,,,,,,,,,None,None,FEA,5.937,None,None,None,None,,,,,,,,,,,,,,,2015_Oct_24_1337,K,facesParametric,13,59.6944333354,
./basicStim/24M_DI_O.jpg,,0,69,69,57,,,,,,,,,,,SAD,2.249,None,None,None,None,None,None,,,,,,,,,,,,,,,2015_Oct_24_1337,K,facesParametric,13,59.6944333354,
./basicStim/21M_AN_O.jpg,,0,70,70,42,,,,,,,,,,,None,None,ANG,1.486,None,None,None,None,,,,,,,,,,,,,,,2015_Oct_24_1337,K,facesParametric,13,59.6944333354,
./basicStim/23M_NE_C.jpg,,0,71,71,55,,,,,,,,,,,None,None,None,None,None,None,NTR,1.978,,,,,,,,,,,,,,,2015_Oct_24_1337,K,facesParametric,13,59.6944333354,
./basicStim/06F_DI_O.jpg,,0,72,72,22,,,,,,,,,,,None,None,None,None,DIS,1.847,None,None,,,,,,,,,,,,,,,2015_Oct_24_1337,K,facesParametric,13,59.6944333354,
./basicStim/34M_FE_O.jpg,,0,73,73,72,,,,,,,,,,,None,None,FEA,9.828,None,None,None,None,,,,,,,,,,,,,,,2015_Oct_24_1337,K,facesParametric,13,59.6944333354,
./basicStim/06F_SP_O.jpg,,0,74,74,26,,,,,,,,,,,None,None,FEA,6.88,None,None,None,None,,,,,,,,,,,,,,,2015_Oct_24_1337,K,facesParametric,13,59.6944333354,
./basicStim/28M_HA_O.jpg,,0,75,75,66,,,,,,,,,,,HAP,2.234,None,None,None,None,None,None,,,,,,,,,,,,,,,2015_Oct_24_1337,K,facesParametric,13,59.6944333354,
./basicStim/02F_SA_C.jpg,,0,76,76,11,,,,,,,,,,,SAD,3.029,None,None,None,None,None,None,,,,,,,,,,,,,,,2015_Oct_24_1337,K,facesParametric,13,59.6944333354,
./basicStim/34M_NE_C.jpg,,0,77,77,76,,,,,,,,,,,None,None,None,None,None,None,NTR,1.427,,,,,,,,,,,,,,,2015_Oct_24_1337,K,facesParametric,13,59.6944333354,
./basicStim/36M_HA_O.jpg,,0,78,78,80,,,,,,,,,,,HAP,1.734,None,None,None,None,None,None,,,,,,,,,,,,,,,2015_Oct_24_1337,K,facesParametric,13,59.6944333354,
./basicStim/34M_AN_O.jpg,,0,79,79,70,,,,,,,,,,,None,None,ANG,2.25,None,None,None,None,,,,,,,,,,,,,,,2015_Oct_24_1337,K,facesParametric,13,59.6944333354,
./basicStim/24M_NE_C.jpg,,0,80,80,62,,,,,,,,,,,None,None,None,None,None,None,NTR,2.461,,,,,,,,,,,,,,,2015_Oct_24_1337,K,facesParametric,13,59.6944333354,
./basicStim/36M_DI_O.jpg,,0,81,81,78,,,,,,,,,,,None,None,None,None,DIS,1.763,None,None,,,,,,,,,,,,,,,2015_Oct_24_1337,K,facesParametric,13,59.6944333354,
./basicStim/07F_NE_C.jpg,,0,82,82,34,,,,,,,,,,,None,None,None,None,None,None,NTR,2.116,,,,,,,,,,,,,,,2015_Oct_24_1337,K,facesParametric,13,59.6944333354,
./basicStim/01F_FE_O.jpg,,0,83,83,2,,,,,,,,,,,None,None,ANG,5.657,None,None,None,None,,,,,,,,,,,,,,,2015_Oct_24_1337,K,facesParametric,13,59.6944333354,
,,,,,,,,,,,,,,,,,,,,,,,,return,11.6292700768,,,,,,,,,,,,,2015_Oct_24_1337,K,facesParametric,13,59.6944333354,
,,,,,,,,,,,,,,return,38.194491148,,,,,,,,,,,,,,,,,,,,,,,2015_Oct_24_1337,K,facesParametric,13,59.6944333354,
,,,,,,,,,,,,,,,,,,,,,,,,return,2.56421899796,,,,,,,,,,,,,2015_Oct_24_1337,K,facesParametric,13,59.6944333354,
,,,,,,,,,,,,,,,,,,,,,,,,,,return,2.53044509888,,,,,,,,,,,2015_Oct_24_1337,K,facesParametric,13,59.6944333354,
./stim/MorphM9_09_orig.jpg,0,,,,,0,0,0,0,,,,,,,,,,,,,,,,,,,13.564453125,13.125,1,0,0,13.9693889618,,,,,2015_Oct_24_1337,K,facesParametric,13,59.6944333354,
./stim/MorphM4_08_orig.jpg,1,,,,,0,1,1,1,,,,,,,,,,,,,,,,,,,13.037109375,13.18359375,0,0,1,2.29227590561,,,,,2015_Oct_24_1337,K,facesParametric,13,59.6944333354,
./stim/MorphF9_06_orig.jpg,2,,,,,0,2,2,2,,,,,,,,,,,,,,,,,,,12.421875,13.095703125,1,0,0,3.09961390495,,,,,2015_Oct_24_1337,K,facesParametric,13,59.6944333354,
./stim/MorphF7_10_orig.jpg,3,,,,,0,3,3,3,,,,,,,,,,,,,,,,,,,10.458984375,13.18359375,0,0,1,1.3711180687,,,,,2015_Oct_24_1337,K,facesParametric,13,59.6944333354,
./stim/MorphM3_04_orig.jpg,4,,,,,0,4,4,4,,,,,,,,,,,,,,,,,,,9.873046875,13.18359375,1,0,0,1.92643594742,,,,,2015_Oct_24_1337,K,facesParametric,13,59.6944333354,
./stim/MorphF1_10_orig.jpg,5,,,,,0,5,5,5,,,,,,,,,,,,,,,,,,,9.873046875,13.18359375,1,0,0,1.9425778389,,,,,2015_Oct_24_1337,K,facesParametric,13,59.6944333354,
./stim/MorphM4_06_orig.jpg,6,,,,,0,6,6,6,,,,,,,,,,,,,,,,,,,9.84375,13.18359375,0,0,1,1.25560903549,,,,,2015_Oct_24_1337,K,facesParametric,13,59.6944333354,
./stim/MorphF7_02_orig.jpg,7,,,,,0,7,7,7,,,,,,,,,,,,,,,,,,,9.84375,13.18359375,1,0,0,2.5127260685,,,,,2015_Oct_24_1337,K,facesParametric,13,59.6944333354,
./stim/MorphM3_00_orig.jpg,8,,,,,0,8,8,8,,,,,,,,,,,,,,,,,,,9.84375,13.18359375,1,0,0,3.93549180031,,,,,2015_Oct_24_1337,K,facesParametric,13,59.6944333354,
./stim/MorphM1_02_orig.jpg,9,,,,,0,9,9,9,,,,,,,,,,,,,,,,,,,9.84375,13.18359375,1,0,0,2.98126196861,,,,,2015_Oct_24_1337,K,facesParametric,13,59.6944333354,
./stim/MorphM6_03_orig.jpg,10,,,,,0,10,10,10,,,,,,,,,,,,,,,,,,,9.84375,13.18359375,1,0,0,1.65815901756,,,,,2015_Oct_24_1337,K,facesParametric,13,59.6944333354,
./stim/MorphM7_01_orig.jpg,11,,,,,0,11,11,11,,,,,,,,,,,,,,,,,,,9.814453125,13.18359375,0,0,1,3.4680390358,,,,,2015_Oct_24_1337,K,facesParametric,13,59.6944333354,
./stim/MorphM5_02_orig.jpg,12,,,,,0,12,12,12,,,,,,,,,,,,,,,,,,,9.814453125,13.18359375,0,0,1,4.42333483696,,,,,2015_Oct_24_1337,K,facesParametric,13,59.6944333354,
./stim/MorphF5_09_orig.jpg,13,,,,,0,13,13,13,,,,,,,,,,,,,,,,,,,9.814453125,13.18359375,0,0,1,1.57355713844,,,,,2015_Oct_24_1337,K,facesParametric,13,59.6944333354,
./stim/MorphF10_04_orig.jpg,14,,,,,0,14,14,14,,,,,,,,,,,,,,,,,,,9.78515625,13.18359375,0,0,1,3.92031288147,,,,,2015_Oct_24_1337,K,facesParametric,13,59.6944333354,
./stim/MorphM5_00_orig.jpg,15,,,,,0,15,15,15,,,,,,,,,,,,,,,,,,,9.7265625,13.18359375,1,0,0,1.70820713043,,,,,2015_Oct_24_1337,K,facesParametric,13,59.6944333354,
./stim/MorphF8_08_orig.jpg,16,,,,,0,16,16,16,,,,,,,,,,,,,,,,,,,9.7265625,13.18359375,0,0,1,1.82557201385,,,,,2015_Oct_24_1337,K,facesParametric,13,59.6944333354,
./stim/MorphF9_04_orig.jpg,17,,,,,0,17,17,17,,,,,,,,,,,,,,,,,,,9.7265625,13.18359375,1,0,0,2.19379901886,,,,,2015_Oct_24_1337,K,facesParametric,13,59.6944333354,
./stim/MorphM5_09_orig.jpg,18,,,,,0,18,18,18,,,,,,,,,,,,,,,,,,,9.697265625,13.18359375,1,0,0,1.77291703224,,,,,2015_Oct_24_1337,K,facesParametric,13,59.6944333354,
./stim/MorphF8_00_orig.jpg,19,,,,,0,19,19,19,,,,,,,,,,,,,,,,,,,9.697265625,13.18359375,1,0,0,2.07719302177,,,,,2015_Oct_24_1337,K,facesParametric,13,59.6944333354,
./stim/MorphM2_05_orig.jpg,20,,,,,0,20,20,20,,,,,,,,,,,,,,,,,,,9.697265625,13.18359375,1,0,0,3.16557002068,,,,,2015_Oct_24_1337,K,facesParametric,13,59.6944333354,
./stim/MorphF10_05_orig.jpg,21,,,,,0,21,21,21,,,,,,,,,,,,,,,,,,,9.697265625,13.18359375,0,0,1,1.59125900269,,,,,2015_Oct_24_1337,K,facesParametric,13,59.6944333354,
./stim/MorphF6_00_orig.jpg,22,,,,,0,22,22,22,,,,,,,,,,,,,,,,,,,9.7265625,13.18359375,1,0,0,1.59093809128,,,,,2015_Oct_24_1337,K,facesParametric,13,59.6944333354,
./stim/MorphF10_01_orig.jpg,23,,,,,0,23,23,23,,,,,,,,,,,,,,,,,,,9.697265625,13.18359375,0,0,1,2.69783306122,,,,,2015_Oct_24_1337,K,facesParametric,13,59.6944333354,
./stim/MorphM1_00_orig.jpg,24,,,,,0,24,24,24,,,,,,,,,,,,,,,,,,,9.697265625,13.18359375,1,0,0,1.47254014015,,,,,2015_Oct_24_1337,K,facesParametric,13,59.6944333354,
./stim/MorphF3_05_orig.jpg,25,,,,,0,25,25,25,,,,,,,,,,,,,,,,,,,9.66796875,13.18359375,1,0,0,2.10819602013,,,,,2015_Oct_24_1337,K,facesParametric,13,59.6944333354,
./stim/MorphF2_00_orig.jpg,26,,,,,0,26,26,26,,,,,,,,,,,,,,,,,,,9.66796875,13.18359375,1,0,0,3.9355340004,,,,,2015_Oct_24_1337,K,facesParametric,13,59.6944333354,
./stim/MorphF4_02_orig.jpg,27,,,,,0,27,27,27,,,,,,,,,,,,,,,,,,,9.66796875,13.18359375,1,0,0,1.4399330616,,,,,2015_Oct_24_1337,K,facesParametric,13,59.6944333354,
./stim/MorphM6_05_orig.jpg,28,,,,,0,28,28,28,,,,,,,,,,,,,,,,,,,9.609375,13.095703125,1,0,0,3.93572807312,,,,,2015_Oct_24_1337,K,facesParametric,13,59.6944333354,
./stim/MorphF7_07_orig.jpg,29,,,,,0,29,29,29,,,,,,,,,,,,,,,,,,,9.609375,13.095703125,0,0,1,2.7473089695,,,,,2015_Oct_24_1337,K,facesParametric,13,59.6944333354,
./stim/MorphF8_03_orig.jpg,30,,,,,0,30,30,30,,,,,,,,,,,,,,,,,,,9.609375,13.095703125,1,0,0,1.40663003922,,,,,2015_Oct_24_1337,K,facesParametric,13,59.6944333354,
./stim/MorphM5_03_orig.jpg,31,,,,,0,31,31,31,,,,,,,,,,,,,,,,,,,9.580078125,13.06640625,0,0,1,10.607614994,,,,,2015_Oct_24_1337,K,facesParametric,13,59.6944333354,
./stim/MorphF4_10_orig.jpg,32,,,,,0,32,32,32,,,,,,,,,,,,,,,,,,,9.580078125,13.06640625,0,0,1,1.69148015976,,,,,2015_Oct_24_1337,K,facesParametric,13,59.6944333354,
./stim/MorphM8_03_orig.jpg,33,,,,,0,33,33,33,,,,,,,,,,,,,,,,,,,9.580078125,13.037109375,0,0,1,7.80578517914,,,,,2015_Oct_24_1337,K,facesParametric,13,59.6944333354,
./stim/MorphF8_05_orig.jpg,34,,,,,0,34,34,34,,,,,,,,,,,,,,,,,,,9.580078125,13.037109375,0,0,1,5.26105189323,,,,,2015_Oct_24_1337,K,facesParametric,13,59.6944333354,
./stim/MorphF9_09_orig.jpg,35,,,,,0,35,35,35,,,,,,,,,,,,,,,,,,,9.580078125,13.037109375,0,0,1,2.27865600586,,,,,2015_Oct_24_1337,K,facesParametric,13,59.6944333354,
./stim/MorphM1_05_orig.jpg,36,,,,,0,36,36,36,,,,,,,,,,,,,,,,,,,9.31640625,13.18359375,0,0,1,15.012706995,,,,,2015_Oct_24_1337,K,facesParametric,13,59.6944333354,
./stim/MorphF6_06_orig.jpg,37,,,,,0,37,37,37,,,,,,,,,,,,,,,,,,,9.287109375,13.154296875,0,0,1,2.16074109077,,,,,2015_Oct_24_1337,K,facesParametric,13,59.6944333354,
./stim/MorphF3_06_orig.jpg,38,,,,,0,38,38,38,,,,,,,,,,,,,,,,,,,9.2578125,13.125,1,0,0,1.77533102036,,,,,2015_Oct_24_1337,K,facesParametric,13,59.6944333354,
./stim/MorphF6_08_orig.jpg,39,,,,,0,39,39,39,,,,,,,,,,,,,,,,,,,9.140625,13.06640625,0,0,1,3.28378605843,,,,,2015_Oct_24_1337,K,facesParametric,13,59.6944333354,
./stim/MorphF3_07_orig.jpg,40,,,,,0,40,40,40,,,,,,,,,,,,,,,,,,,9.08203125,13.0078125,1,0,0,1.6219599247,,,,,2015_Oct_24_1337,K,facesParametric,13,59.6944333354,
./stim/MorphF1_06_orig.jpg,41,,,,,0,41,41,41,,,,,,,,,,,,,,,,,,,9.0234375,12.978515625,1,0,0,3.25019407272,,,,,2015_Oct_24_1337,K,facesParametric,13,59.6944333354,
./stim/MorphM4_04_orig.jpg,42,,,,,0,42,42,42,,,,,,,,,,,,,,,,,,,8.96484375,12.890625,0,0,1,2.46203804016,,,,,2015_Oct_24_1337,K,facesParametric,13,59.6944333354,
./stim/MorphM3_01_orig.jpg,43,,,,,0,43,43,43,,,,,,,,,,,,,,,,,,,8.583984375,12.802734375,0,0,1,10.8420360088,,,,,2015_Oct_24_1337,K,facesParametric,13,59.6944333354,
./stim/MorphF4_08_orig.jpg,44,,,,,0,44,44,44,,,,,,,,,,,,,,,,,,,8.583984375,12.802734375,0,0,1,2.66348981857,,,,,2015_Oct_24_1337,K,facesParametric,13,59.6944333354,
./stim/MorphM3_02_orig.jpg,45,,,,,0,45,45,45,,,,,,,,,,,,,,,,,,,8.583984375,12.802734375,0,0,1,5.02656817436,,,,,2015_Oct_24_1337,K,facesParametric,13,59.6944333354,
./stim/MorphM7_07_orig.jpg,46,,,,,0,46,46,46,,,,,,,,,,,,,,,,,,,8.5546875,12.802734375,0,0,1,3.31723189354,,,,,2015_Oct_24_1337,K,facesParametric,13,59.6944333354,
./stim/MorphM2_04_orig.jpg,47,,,,,0,47,47,47,,,,,,,,,,,,,,,,,,,8.5546875,12.802734375,1,0,0,2.89629602432,,,,,2015_Oct_24_1337,K,facesParametric,13,59.6944333354,
./stim/MorphM3_06_orig.jpg,48,,,,,0,48,48,48,,,,,,,,,,,,,,,,,,,8.525390625,12.7734375,0,0,1,5.17739701271,,,,,2015_Oct_24_1337,K,facesParametric,13,59.6944333354,
./stim/MorphM1_01_orig.jpg,49,,,,,0,49,49,49,,,,,,,,,,,,,,,,,,,8.525390625,12.7734375,0,0,1,7.13844490051,,,,,2015_Oct_24_1337,K,facesParametric,13,59.6944333354,
./stim/MorphM4_02_orig.jpg,50,,,,,0,50,50,50,,,,,,,,,,,,,,,,,,,8.466796875,12.802734375,0,0,1,2.98229908943,,,,,2015_Oct_24_1337,K,facesParametric,13,59.6944333354,
./stim/MorphM7_02_orig.jpg,51,,,,,0,51,51,51,,,,,,,,,,,,,,,,,,,8.466796875,12.802734375,0,0,1,2.61310386658,,,,,2015_Oct_24_1337,K,facesParametric,13,59.6944333354,
./stim/MorphM1_09_orig.jpg,52,,,,,0,52,52,52,,,,,,,,,,,,,,,,,,,8.466796875,12.802734375,0,0,1,1.60778307915,,,,,2015_Oct_24_1337,K,facesParametric,13,59.6944333354,
./stim/MorphM5_05_orig.jpg,53,,,,,0,53,53,53,,,,,,,,,,,,,,,,,,,8.466796875,12.802734375,0,0,1,1.99217891693,,,,,2015_Oct_24_1337,K,facesParametric,13,59.6944333354,
./stim/MorphM7_10_orig.jpg,54,,,,,0,54,54,54,,,,,,,,,,,,,,,,,,,8.349609375,12.890625,0,0,1,1.62399816513,,,,,2015_Oct_24_1337,K,facesParametric,13,59.6944333354,
./stim/MorphF4_05_orig.jpg,55,,,,,0,55,55,55,,,,,,,,,,,,,,,,,,,8.349609375,12.890625,1,0,0,2.29320001602,,,,,2015_Oct_24_1337,K,facesParametric,13,59.6944333354,
./stim/MorphF1_07_orig.jpg,56,,,,,0,56,56,56,,,,,,,,,,,,,,,,,,,8.349609375,12.890625,1,0,0,1.95753884315,,,,,2015_Oct_24_1337,K,facesParametric,13,59.6944333354,
./stim/MorphM10_09_orig.jpg,57,,,,,0,57,57,57,,,,,,,,,,,,,,,,,,,8.3203125,12.919921875,0,0,1,1.40665411949,,,,,2015_Oct_24_1337,K,facesParametric,13,59.6944333354,
./stim/MorphM9_08_orig.jpg,58,,,,,0,58,58,58,,,,,,,,,,,,,,,,,,,8.3203125,12.919921875,0,0,1,4.85908102989,,,,,2015_Oct_24_1337,K,facesParametric,13,59.6944333354,
./stim/MorphM4_00_orig.jpg,59,,,,,0,59,59,59,,,,,,,,,,,,,,,,,,,7.55859375,12.744140625,0,0,1,4.65809202194,,,,,2015_Oct_24_1337,K,facesParametric,13,59.6944333354,
./stim/MorphM10_01_orig.jpg,60,,,,,0,60,60,60,,,,,,,,,,,,,,,,,,,7.5,12.7734375,1,0,0,3.8534090519,,,,,2015_Oct_24_1337,K,facesParametric,13,59.6944333354,
./stim/MorphF1_08_orig.jpg,61,,,,,0,61,61,61,,,,,,,,,,,,,,,,,,,7.5,12.7734375,0,0,1,6.23206400871,,,,,2015_Oct_24_1337,K,facesParametric,13,59.6944333354,
./stim/MorphM9_03_orig.jpg,62,,,,,0,62,62,62,,,,,,,,,,,,,,,,,,,7.5,12.7734375,1,0,0,2.63016200066,,,,,2015_Oct_24_1337,K,facesParametric,13,59.6944333354,
./stim/MorphF3_03_orig.jpg,63,,,,,0,63,63,63,,,,,,,,,,,,,,,,,,,7.5,12.7734375,1,0,0,2.043612957,,,,,2015_Oct_24_1337,K,facesParametric,13,59.6944333354,
./stim/MorphM2_01_orig.jpg,64,,,,,0,64,64,64,,,,,,,,,,,,,,,,,,,7.5,12.7734375,1,0,0,2.6637570858,,,,,2015_Oct_24_1337,K,facesParametric,13,59.6944333354,
./stim/MorphM6_08_orig.jpg,65,,,,,0,65,65,65,,,,,,,,,,,,,,,,,,,7.470703125,12.744140625,0,0,1,1.32245588303,,,,,2015_Oct_24_1337,K,facesParametric,13,59.6944333354,
./stim/MorphF1_09_orig.jpg,66,,,,,0,66,66,66,,,,,,,,,,,,,,,,,,,7.470703125,12.744140625,1,0,0,6.40126395226,,,,,2015_Oct_24_1337,K,facesParametric,13,59.6944333354,
./stim/MorphM9_02_orig.jpg,67,,,,,0,67,67,67,,,,,,,,,,,,,,,,,,,7.470703125,12.744140625,1,0,0,1.52337598801,,,,,2015_Oct_24_1337,K,facesParametric,13,59.6944333354,
./stim/MorphM10_07_orig.jpg,68,,,,,0,68,68,68,,,,,,,,,,,,,,,,,,,7.470703125,12.744140625,0,0,1,1.30579590797,,,,,2015_Oct_24_1337,K,facesParametric,13,59.6944333354,
./stim/MorphM8_04_orig.jpg,69,,,,,0,69,69,69,,,,,,,,,,,,,,,,,,,7.470703125,12.744140625,0,0,1,2.56266999245,,,,,2015_Oct_24_1337,K,facesParametric,13,59.6944333354,
./stim/MorphF3_04_orig.jpg,70,,,,,0,70,70,70,,,,,,,,,,,,,,,,,,,7.470703125,12.744140625,1,0,0,1.50720095634,,,,,2015_Oct_24_1337,K,facesParametric,13,59.6944333354,
./stim/MorphM7_05_orig.jpg,71,,,,,0,71,71,71,,,,,,,,,,,,,,,,,,,7.470703125,12.744140625,0,0,1,1.80901193619,,,,,2015_Oct_24_1337,K,facesParametric,13,59.6944333354,
./stim/MorphM10_04_orig.jpg,72,,,,,0,72,72,72,,,,,,,,,,,,,,,,,,,7.470703125,12.744140625,0,0,1,1.99175000191,,,,,2015_Oct_24_1337,K,facesParametric,13,59.6944333354,
./stim/MorphM3_05_orig.jpg,73,,,,,0,73,73,73,,,,,,,,,,,,,,,,,,,7.529296875,12.71484375,1,0,0,11.9981608391,,,,,2015_Oct_24_1337,K,facesParametric,13,59.6944333354,
./stim/MorphM7_08_orig.jpg,74,,,,,0,74,74,74,,,,,,,,,,,,,,,,,,,7.529296875,12.71484375,0,0,1,1.03800106049,,,,,2015_Oct_24_1337,K,facesParametric,13,59.6944333354,
./stim/MorphM9_07_orig.jpg,75,,,,,0,75,75,75,,,,,,,,,,,,,,,,,,,7.529296875,12.685546875,1,0,0,3.30040383339,,,,,2015_Oct_24_1337,K,facesParametric,13,59.6944333354,
./stim/MorphM8_07_orig.jpg,76,,,,,0,76,76,76,,,,,,,,,,,,,,,,,,,7.529296875,12.685546875,0,0,1,2.47817587852,,,,,2015_Oct_24_1337,K,facesParametric,13,59.6944333354,
./stim/MorphF8_01_orig.jpg,77,,,,,0,77,77,77,,,,,,,,,,,,,,,,,,,7.529296875,12.685546875,1,0,0,2.47886800766,,,,,2015_Oct_24_1337,K,facesParametric,13,59.6944333354,
./stim/MorphF5_01_orig.jpg,78,,,,,0,78,78,78,,,,,,,,,,,,,,,,,,,7.529296875,12.685546875,1,0,0,14.1586000919,,,,,2015_Oct_24_1337,K,facesParametric,13,59.6944333354,
./stim/MorphF4_09_orig.jpg,79,,,,,0,79,79,79,,,,,,,,,,,,,,,,,,,7.529296875,12.685546875,0,0,1,2.02661395073,,,,,2015_Oct_24_1337,K,facesParametric,13,59.6944333354,
./stim/MorphM10_08_orig.jpg,80,,,,,0,80,80,80,,,,,,,,,,,,,,,,,,,7.529296875,12.685546875,0,0,1,1.27189421654,,,,,2015_Oct_24_1337,K,facesParametric,13,59.6944333354,
./stim/MorphF6_01_orig.jpg,81,,,,,0,81,81,81,,,,,,,,,,,,,,,,,,,7.529296875,12.685546875,1,0,0,2.07629704475,,,,,2015_Oct_24_1337,K,facesParametric,13,59.6944333354,
./stim/MorphM8_00_orig.jpg,82,,,,,0,82,82,82,,,,,,,,,,,,,,,,,,,7.529296875,12.685546875,1,0,0,4.30601716042,,,,,2015_Oct_24_1337,K,facesParametric,13,59.6944333354,
./stim/MorphM1_08_orig.jpg,83,,,,,0,83,83,83,,,,,,,,,,,,,,,,,,,7.529296875,12.685546875,0,0,1,1.37270498276,,,,,2015_Oct_24_1337,K,facesParametric,13,59.6944333354,
./stim/MorphF6_02_orig.jpg,84,,,,,0,84,84,84,,,,,,,,,,,,,,,,,,,7.529296875,12.685546875,1,0,0,1.48973989487,,,,,2015_Oct_24_1337,K,facesParametric,13,59.6944333354,
./stim/MorphF5_10_orig.jpg,85,,,,,0,85,85,85,,,,,,,,,,,,,,,,,,,7.529296875,12.685546875,0,0,1,1.72439098358,,,,,2015_Oct_24_1337,K,facesParametric,13,59.6944333354,
./stim/MorphM9_00_orig.jpg,86,,,,,0,86,86,86,,,,,,,,,,,,,,,,,,,7.529296875,12.685546875,1,0,0,2.33025407791,,,,,2015_Oct_24_1337,K,facesParametric,13,59.6944333354,
./stim/MorphM3_10_orig.jpg,87,,,,,0,87,87,87,,,,,,,,,,,,,,,,,,,7.55859375,12.65625,0,0,1,2.09028697014,,,,,2015_Oct_24_1337,K,facesParametric,13,59.6944333354,
./stim/MorphF10_07_orig.jpg,88,,,,,0,88,88,88,,,,,,,,,,,,,,,,,,,7.55859375,12.65625,0,0,1,1.32276415825,,,,,2015_Oct_24_1337,K,facesParametric,13,59.6944333354,
./stim/MorphM4_07_orig.jpg,89,,,,,0,89,89,89,,,,,,,,,,,,,,,,,,,7.55859375,12.65625,0,0,1,1.33937382698,,,,,2015_Oct_24_1337,K,facesParametric,13,59.6944333354,
./stim/MorphM9_04_orig.jpg,90,,,,,0,90,90,90,,,,,,,,,,,,,,,,,,,7.55859375,12.65625,1,0,0,1.80878305435,,,,,2015_Oct_24_1337,K,facesParametric,13,59.6944333354,
./stim/MorphM6_09_orig.jpg,91,,,,,0,91,91,91,,,,,,,,,,,,,,,,,,,7.55859375,12.65625,0,0,1,2.07641792297,,,,,2015_Oct_24_1337,K,facesParametric,13,59.6944333354,
./stim/MorphF10_00_orig.jpg,92,,,,,0,92,92,92,,,,,,,,,,,,,,,,,,,7.55859375,12.65625,0,0,1,3.68603301048,,,,,2015_Oct_24_1337,K,facesParametric,13,59.6944333354,
./stim/MorphM8_10_orig.jpg,93,,,,,0,93,93,93,,,,,,,,,,,,,,,,,,,7.529296875,12.685546875,0,0,1,1.22212195396,,,,,2015_Oct_24_1337,K,facesParametric,13,59.6944333354,
./stim/MorphM7_04_orig.jpg,94,,,,,0,94,94,94,,,,,,,,,,,,,,,,,,,7.55859375,12.65625,0,0,1,1.15530586243,,,,,2015_Oct_24_1337,K,facesParametric,13,59.6944333354,
./stim/MorphF10_08_orig.jpg,95,,,,,0,95,95,95,,,,,,,,,,,,,,,,,,,7.55859375,12.65625,0,0,1,0.953803062439,,,,,2015_Oct_24_1337,K,facesParametric,13,59.6944333354,
./stim/MorphF5_00_orig.jpg,96,,,,,0,96,96,96,,,,,,,,,,,,,,,,,,,7.5,12.59765625,1,0,0,6.30086398125,,,,,2015_Oct_24_1337,K,facesParametric,13,59.6944333354,
./stim/MorphM10_03_orig.jpg,97,,,,,0,97,97,97,,,,,,,,,,,,,,,,,,,7.412109375,12.48046875,1,0,0,11.6629889011,,,,,2015_Oct_24_1337,K,facesParametric,13,59.6944333354,
./stim/MorphF8_04_orig.jpg,98,,,,,0,98,98,98,,,,,,,,,,,,,,,,,,,7.3828125,12.421875,1,0,0,2.04228496552,,,,,2015_Oct_24_1337,K,facesParametric,13,59.6944333354,
./stim/MorphF9_00_orig.jpg,99,,,,,0,99,99,99,,,,,,,,,,,,,,,,,,,7.3828125,12.421875,1,0,0,1.32087612152,,,,,2015_Oct_24_1337,K,facesParametric,13,59.6944333354,
./stim/MorphF2_06_orig.jpg,100,,,,,0,100,100,100,,,,,,,,,,,,,,,,,,,7.3828125,12.421875,0,0,1,1.55512213707,,,,,2015_Oct_24_1337,K,facesParametric,13,59.6944333354,
./stim/MorphF7_06_orig.jpg,101,,,,,0,101,101,101,,,,,,,,,,,,,,,,,,,7.3828125,12.421875,0,0,1,1.34078097343,,,,,2015_Oct_24_1337,K,facesParametric,13,59.6944333354,
./stim/MorphF5_08_orig.jpg,102,,,,,0,102,102,102,,,,,,,,,,,,,,,,,,,7.3828125,12.421875,0,0,1,1.05229091644,,,,,2015_Oct_24_1337,K,facesParametric,13,59.6944333354,
./stim/MorphF3_10_orig.jpg,103,,,,,0,103,103,103,,,,,,,,,,,,,,,,,,,7.3828125,12.421875,0,0,1,2.9620411396,,,,,2015_Oct_24_1337,K,facesParametric,13,59.6944333354,
./stim/MorphF2_02_orig.jpg,104,,,,,0,104,104,104,,,,,,,,,,,,,,,,,,,7.3828125,12.421875,1,0,0,1.70809793472,,,,,2015_Oct_24_1337,K,facesParametric,13,59.6944333354,
./stim/MorphF3_02_orig.jpg,105,,,,,0,105,105,105,,,,,,,,,,,,,,,,,,,7.353515625,12.392578125,1,0,0,1.40671610832,,,,,2015_Oct_24_1337,K,facesParametric,13,59.6944333354,
./stim/MorphM8_05_orig.jpg,106,,,,,0,106,106,106,,,,,,,,,,,,,,,,,,,7.353515625,12.392578125,1,0,0,2.61249709129,,,,,2015_Oct_24_1337,K,facesParametric,13,59.6944333354,
./stim/MorphF1_04_orig.jpg,107,,,,,0,107,107,107,,,,,,,,,,,,,,,,,,,7.353515625,12.392578125,1,0,0,1.64162111282,,,,,2015_Oct_24_1337,K,facesParametric,13,59.6944333354,
./stim/MorphM5_01_orig.jpg,108,,,,,0,108,108,108,,,,,,,,,,,,,,,,,,,7.353515625,12.392578125,0,0,1,4.03556609154,,,,,2015_Oct_24_1337,K,facesParametric,13,59.6944333354,
./stim/MorphM3_08_orig.jpg,109,,,,,0,109,109,109,,,,,,,,,,,,,,,,,,,7.353515625,12.392578125,0,0,1,1.52363586426,,,,,2015_Oct_24_1337,K,facesParametric,13,59.6944333354,
./stim/MorphF8_06_orig.jpg,110,,,,,0,110,110,110,,,,,,,,,,,,,,,,,,,7.3828125,12.421875,0,0,1,2.42683982849,,,,,2015_Oct_24_1337,K,facesParametric,13,59.6944333354,
./stim/MorphM6_01_orig.jpg,111,,,,,0,111,111,111,,,,,,,,,,,,,,,,,,,7.3828125,12.421875,1,0,0,2.66388297081,,,,,2015_Oct_24_1337,K,facesParametric,13,59.6944333354,
./stim/MorphM2_00_orig.jpg,112,,,,,0,112,112,112,,,,,,,,,,,,,,,,,,,7.353515625,12.451171875,1,0,0,1.37058615685,,,,,2015_Oct_24_1337,K,facesParametric,13,59.6944333354,
./stim/MorphM1_03_orig.jpg,113,,,,,0,113,113,113,,,,,,,,,,,,,,,,,,,7.470703125,12.421875,1,0,0,2.98159003258,,,,,2015_Oct_24_1337,K,facesParametric,13,59.6944333354,
./stim/MorphM6_07_orig.jpg,114,,,,,0,114,114,114,,,,,,,,,,,,,,,,,,,7.44140625,12.392578125,1,0,0,2.71406602859,,,,,2015_Oct_24_1337,K,facesParametric,13,59.6944333354,
./stim/MorphF5_07_orig.jpg,115,,,,,0,115,115,115,,,,,,,,,,,,,,,,,,,7.44140625,12.392578125,0,0,1,1.20355415344,,,,,2015_Oct_24_1337,K,facesParametric,13,59.6944333354,
./stim/MorphM9_05_orig.jpg,116,,,,,0,116,116,116,,,,,,,,,,,,,,,,,,,7.5,12.48046875,1,0,0,1.90937781334,,,,,2015_Oct_24_1337,K,facesParametric,13,59.6944333354,
./stim/MorphM5_08_orig.jpg,117,,,,,0,117,117,117,,,,,,,,,,,,,,,,,,,7.470703125,12.509765625,0,0,1,1.30584192276,,,,,2015_Oct_24_1337,K,facesParametric,13,59.6944333354,
./stim/MorphF7_04_orig.jpg,118,,,,,0,118,118,118,,,,,,,,,,,,,,,,,,,7.44140625,12.59765625,1,0,0,4.20450806618,,,,,2015_Oct_24_1337,K,facesParametric,13,59.6944333354,
./stim/MorphF3_01_orig.jpg,119,,,,,0,119,119,119,,,,,,,,,,,,,,,,,,,7.412109375,12.626953125,1,0,0,1.35296106339,,,,,2015_Oct_24_1337,K,facesParametric,13,59.6944333354,
./stim/MorphM2_02_orig.jpg,120,,,,,0,120,120,120,,,,,,,,,,,,,,,,,,,7.412109375,12.626953125,1,0,0,4.52370285988,,,,,2015_Oct_24_1337,K,facesParametric,13,59.6944333354,
./stim/MorphM8_01_orig.jpg,121,,,,,0,121,121,121,,,,,,,,,,,,,,,,,,,7.265625,12.626953125,0,0,1,7.47387719154,,,,,2015_Oct_24_1337,K,facesParametric,13,59.6944333354,
./stim/MorphF10_09_orig.jpg,122,,,,,0,122,122,122,,,,,,,,,,,,,,,,,,,7.1484375,12.65625,0,0,1,0.786303043365,,,,,2015_Oct_24_1337,K,facesParametric,13,59.6944333354,
./stim/MorphF6_04_orig.jpg,123,,,,,0,123,123,123,,,,,,,,,,,,,,,,,,,6.6796875,12.5390625,1,0,0,10.8070850372,,,,,2015_Oct_24_1337,K,facesParametric,13,59.6944333354,
./stim/MorphM5_04_orig.jpg,124,,,,,0,124,124,124,,,,,,,,,,,,,,,,,,,6.708984375,12.451171875,0,0,1,1.18873000145,,,,,2015_Oct_24_1337,K,facesParametric,13,59.6944333354,
./stim/MorphM2_07_orig.jpg,125,,,,,0,125,125,125,,,,,,,,,,,,,,,,,,,6.62109375,12.421875,0,0,1,1.37068796158,,,,,2015_Oct_24_1337,K,facesParametric,13,59.6944333354,
./stim/MorphF10_02_orig.jpg,126,,,,,0,126,126,126,,,,,,,,,,,,,,,,,,,6.591796875,12.421875,0,0,1,2.74757504463,,,,,2015_Oct_24_1337,K,facesParametric,13,59.6944333354,
./stim/MorphF5_02_orig.jpg,127,,,,,0,127,127,127,,,,,,,,,,,,,,,,,,,6.09375,12.919921875,1,0,0,10.2883009911,,,,,2015_Oct_24_1337,K,facesParametric,13,59.6944333354,
./stim/MorphM4_01_orig.jpg,128,,,,,0,128,128,128,,,,,,,,,,,,,,,,,,,6.005859375,13.037109375,0,0,1,2.11012291908,,,,,2015_Oct_24_1337,K,facesParametric,13,59.6944333354,
./stim/MorphM9_10_orig.jpg,129,,,,,0,129,129,129,,,,,,,,,,,,,,,,,,,5.888671875,13.06640625,0,0,1,1.35617089272,,,,,2015_Oct_24_1337,K,facesParametric,13,59.6944333354,
./stim/MorphM1_06_orig.jpg,130,,,,,0,130,130,130,,,,,,,,,,,,,,,,,,,5.80078125,13.125,0,0,1,1.74145507812,,,,,2015_Oct_24_1337,K,facesParametric,13,59.6944333354,
./stim/MorphF6_10_orig.jpg,131,,,,,0,131,131,131,,,,,,,,,,,,,,,,,,,5.80078125,13.125,0,0,1,1.79233789444,,,,,2015_Oct_24_1337,K,facesParametric,13,59.6944333354,
./stim/MorphF9_10_orig.jpg,132,,,,,0,132,132,132,,,,,,,,,,,,,,,,,,,5.830078125,13.095703125,0,0,1,1.3890440464,,,,,2015_Oct_24_1337,K,facesParametric,13,59.6944333354,
./stim/MorphM4_10_orig.jpg,133,,,,,0,133,133,133,,,,,,,,,,,,,,,,,,,5.830078125,13.095703125,0,0,1,2.47934103012,,,,,2015_Oct_24_1337,K,facesParametric,13,59.6944333354,
./stim/MorphF2_04_orig.jpg,134,,,,,0,134,134,134,,,,,,,,,,,,,,,,,,,5.7421875,13.125,1,0,0,1.87538480759,,,,,2015_Oct_24_1337,K,facesParametric,13,59.6944333354,
./stim/MorphF10_06_orig.jpg,135,,,,,0,135,135,135,,,,,,,,,,,,,,,,,,,5.771484375,13.06640625,0,0,1,1.02018618584,,,,,2015_Oct_24_1337,K,facesParametric,13,59.6944333354,
./stim/MorphM7_06_orig.jpg,136,,,,,0,136,136,136,,,,,,,,,,,,,,,,,,,5.771484375,13.06640625,0,0,1,1.03811597824,,,,,2015_Oct_24_1337,K,facesParametric,13,59.6944333354,
./stim/MorphF1_05_orig.jpg,137,,,,,0,137,137,137,,,,,,,,,,,,,,,,,,,5.771484375,13.06640625,1,0,0,2.6127679348,,,,,2015_Oct_24_1337,K,facesParametric,13,59.6944333354,
./stim/MorphF4_01_orig.jpg,138,,,,,0,138,138,138,,,,,,,,,,,,,,,,,,,5.7421875,13.037109375,1,0,0,2.41153812408,,,,,2015_Oct_24_1337,K,facesParametric,13,59.6944333354,
./stim/MorphM6_06_orig.jpg,139,,,,,0,139,139,139,,,,,,,,,,,,,,,,,,,5.625,13.06640625,1,0,0,2.93216490746,,,,,2015_Oct_24_1337,K,facesParametric,13,59.6944333354,
./stim/MorphF4_00_orig.jpg,140,,,,,0,140,140,140,,,,,,,,,,,,,,,,,,,5.625,13.06640625,1,0,0,1.32276511192,,,,,2015_Oct_24_1337,K,facesParametric,13,59.6944333354,
./stim/MorphM8_06_orig.jpg,141,,,,,0,141,141,141,,,,,,,,,,,,,,,,,,,5.595703125,13.037109375,0,0,1,2.07656097412,,,,,2015_Oct_24_1337,K,facesParametric,13,59.6944333354,
./stim/MorphM7_09_orig.jpg,142,,,,,0,142,142,142,,,,,,,,,,,,,,,,,,,5.5078125,12.919921875,0,0,1,1.23766207695,,,,,2015_Oct_24_1337,K,facesParametric,13,59.6944333354,
./stim/MorphF6_07_orig.jpg,143,,,,,0,143,143,143,,,,,,,,,,,,,,,,,,,5.44921875,12.919921875,0,0,1,1.28679990768,,,,,2015_Oct_24_1337,K,facesParametric,13,59.6944333354,
./stim/MorphM6_00_orig.jpg,144,,,,,0,144,144,144,,,,,,,,,,,,,,,,,,,5.419921875,12.919921875,1,0,0,3.6692340374,,,,,2015_Oct_24_1337,K,facesParametric,13,59.6944333354,
./stim/MorphM2_03_orig.jpg,145,,,,,0,145,145,145,,,,,,,,,,,,,,,,,,,5.44921875,12.919921875,1,0,0,1.40631604195,,,,,2015_Oct_24_1337,K,facesParametric,13,59.6944333354,
./stim/MorphF4_07_orig.jpg,146,,,,,0,146,146,146,,,,,,,,,,,,,,,,,,,5.56640625,12.83203125,0,0,1,2.61294913292,,,,,2015_Oct_24_1337,K,facesParametric,13,59.6944333354,
./stim/MorphF5_05_orig.jpg,147,,,,,0,147,147,147,,,,,,,,,,,,,,,,,,,5.625,12.7734375,0,0,1,1.92527699471,,,,,2015_Oct_24_1337,K,facesParametric,13,59.6944333354,
./stim/MorphF2_03_orig.jpg,148,,,,,0,148,148,148,,,,,,,,,,,,,,,,,,,5.68359375,12.802734375,1,0,0,3.63487100601,,,,,2015_Oct_24_1337,K,facesParametric,13,59.6944333354,
./stim/MorphM10_00_orig.jpg,149,,,,,0,149,149,149,,,,,,,,,,,,,,,,,,,5.80078125,12.890625,1,0,0,2.83065891266,,,,,2015_Oct_24_1337,K,facesParametric,13,59.6944333354,
./stim/MorphF10_03_orig.jpg,150,,,,,0,150,150,150,,,,,,,,,,,,,,,,,,,5.80078125,12.802734375,0,0,1,1.28807401657,,,,,2015_Oct_24_1337,K,facesParametric,13,59.6944333354,
./stim/MorphF4_06_orig.jpg,151,,,,,0,151,151,151,,,,,,,,,,,,,,,,,,,5.771484375,12.7734375,0,0,1,1.74046397209,,,,,2015_Oct_24_1337,K,facesParametric,13,59.6944333354,
./stim/MorphF7_05_orig.jpg,152,,,,,0,152,152,152,,,,,,,,,,,,,,,,,,,5.68359375,12.83203125,0,0,1,2.69694209099,,,,,2015_Oct_24_1337,K,facesParametric,13,59.6944333354,
./stim/MorphM3_03_orig.jpg,153,,,,,0,153,153,153,,,,,,,,,,,,,,,,,,,5.68359375,12.890625,0,0,1,1.72443079948,,,,,2015_Oct_24_1337,K,facesParametric,13,59.6944333354,
./stim/MorphM4_09_orig.jpg,154,,,,,0,154,154,154,,,,,,,,,,,,,,,,,,,5.595703125,12.83203125,0,0,1,1.7073469162,,,,,2015_Oct_24_1337,K,facesParametric,13,59.6944333354,
./stim/MorphF7_09_orig.jpg,155,,,,,0,155,155,155,,,,,,,,,,,,,,,,,,,5.68359375,12.919921875,0,0,1,1.45524287224,,,,,2015_Oct_24_1337,K,facesParametric,13,59.6944333354,
./stim/MorphF1_00_orig.jpg,156,,,,,0,156,156,156,,,,,,,,,,,,,,,,,,,5.80078125,12.451171875,1,0,0,5.07657909393,,,,,2015_Oct_24_1337,K,facesParametric,13,59.6944333354,
./stim/MorphF9_05_orig.jpg,157,,,,,0,157,157,157,,,,,,,,,,,,,,,,,,,5.830078125,12.216796875,1,0,0,4.27089214325,,,,,2015_Oct_24_1337,K,facesParametric,13,59.6944333354,
./stim/MorphF8_10_orig.jpg,158,,,,,0,158,158,158,,,,,,,,,,,,,,,,,,,5.7421875,12.0703125,0,0,1,1.32207083702,,,,,2015_Oct_24_1337,K,facesParametric,13,59.6944333354,
./stim/MorphM10_05_orig.jpg,159,,,,,0,159,159,159,,,,,,,,,,,,,,,,,,,5.80078125,12.01171875,0,0,1,1.28873586655,,,,,2015_Oct_24_1337,K,facesParametric,13,59.6944333354,
./stim/MorphM2_08_orig.jpg,160,,,,,0,160,160,160,,,,,,,,,,,,,,,,,,,5.830078125,12.12890625,0,0,1,1.72299814224,,,,,2015_Oct_24_1337,K,facesParametric,13,59.6944333354,
./stim/MorphM6_02_orig.jpg,161,,,,,0,161,161,161,,,,,,,,,,,,,,,,,,,5.361328125,12.158203125,1,0,0,9.95345520973,,,,,2015_Oct_24_1337,K,facesParametric,13,59.6944333354,
./stim/MorphF5_06_orig.jpg,162,,,,,0,162,162,162,,,,,,,,,,,,,,,,,,,5.33203125,12.275390625,0,0,1,0.902272939682,,,,,2015_Oct_24_1337,K,facesParametric,13,59.6944333354,
./stim/MorphF10_10_orig.jpg,163,,,,,0,163,163,163,,,,,,,,,,,,,,,,,,,5.21484375,11.89453125,0,0,1,1.15541815758,,,,,2015_Oct_24_1337,K,facesParametric,13,59.6944333354,
./stim/MorphF9_02_orig.jpg,164,,,,,0,164,164,164,,,,,,,,,,,,,,,,,,,5.244140625,12.158203125,1,0,0,2.93136405945,,,,,2015_Oct_24_1337,K,facesParametric,13,59.6944333354,
./stim/MorphM2_06_orig.jpg,165,,,,,0,165,165,165,,,,,,,,,,,,,,,,,,,5.44921875,12.216796875,0,0,1,1.28657889366,,,,,2015_Oct_24_1337,K,facesParametric,13,59.6944333354,
./stim/MorphM8_08_orig.jpg,166,,,,,0,166,166,166,,,,,,,,,,,,,,,,,,,5.244140625,12.421875,0,0,1,1.22230696678,,,,,2015_Oct_24_1337,K,facesParametric,13,59.6944333354,
./stim/MorphM10_02_orig.jpg,167,,,,,0,167,167,167,,,,,,,,,,,,,,,,,,,5.185546875,12.59765625,1,0,0,6.87023711205,,,,,2015_Oct_24_1337,K,facesParametric,13,59.6944333354,
./stim/MorphM8_09_orig.jpg,168,,,,,0,168,168,168,,,,,,,,,,,,,,,,,,,5.361328125,12.451171875,0,0,1,1.44024991989,,,,,2015_Oct_24_1337,K,facesParametric,13,59.6944333354,
./stim/MorphF9_01_orig.jpg,169,,,,,0,169,169,169,,,,,,,,,,,,,,,,,,,5.33203125,12.451171875,1,0,0,2.46231198311,,,,,2015_Oct_24_1337,K,facesParametric,13,59.6944333354,
./stim/MorphM7_00_orig.jpg,170,,,,,0,170,170,170,,,,,,,,,,,,,,,,,,,5.21484375,12.392578125,0,0,1,2.32822489738,,,,,2015_Oct_24_1337,K,facesParametric,13,59.6944333354,
./stim/MorphM2_10_orig.jpg,171,,,,,0,171,171,171,,,,,,,,,,,,,,,,,,,5.15625,12.451171875,0,0,1,1.05299782753,,,,,2015_Oct_24_1337,K,facesParametric,13,59.6944333354,
./stim/MorphF2_07_orig.jpg,172,,,,,0,172,172,172,,,,,,,,,,,,,,,,,,,5.15625,12.48046875,0,0,1,1.27044892311,,,,,2015_Oct_24_1337,K,facesParametric,13,59.6944333354,
./stim/MorphF5_04_orig.jpg,173,,,,,0,173,173,173,,,,,,,,,,,,,,,,,,,5.0390625,12.59765625,0,0,1,1.23981499672,,,,,2015_Oct_24_1337,K,facesParametric,13,59.6944333354,
./stim/MorphF3_08_orig.jpg,174,,,,,0,174,174,174,,,,,,,,,,,,,,,,,,,4.892578125,12.48046875,1,0,0,3.66851305962,,,,,2015_Oct_24_1337,K,facesParametric,13,59.6944333354,
./stim/MorphF1_02_orig.jpg,175,,,,,0,175,175,175,,,,,,,,,,,,,,,,,,,4.892578125,12.275390625,1,0,0,1.23658704758,,,,,2015_Oct_24_1337,K,facesParametric,13,59.6944333354,
./stim/MorphM5_06_orig.jpg,176,,,,,0,176,176,176,,,,,,,,,,,,,,,,,,,4.74609375,12.158203125,0,0,1,1.94069194794,,,,,2015_Oct_24_1337,K,facesParametric,13,59.6944333354,
./stim/MorphF1_01_orig.jpg,177,,,,,0,177,177,177,,,,,,,,,,,,,,,,,,,4.6875,12.3046875,1,0,0,1.4570119381,,,,,2015_Oct_24_1337,K,facesParametric,13,59.6944333354,
./stim/MorphF4_03_orig.jpg,178,,,,,0,178,178,178,,,,,,,,,,,,,,,,,,,4.716796875,12.24609375,1,0,0,2.93099188805,,,,,2015_Oct_24_1337,K,facesParametric,13,59.6944333354,
./stim/MorphF3_00_orig.jpg,179,,,,,0,179,179,179,,,,,,,,,,,,,,,,,,,4.833984375,12.24609375,1,0,0,1.67295908928,,,,,2015_Oct_24_1337,K,facesParametric,13,59.6944333354,
./stim/MorphF6_09_orig.jpg,180,,,,,0,180,180,180,,,,,,,,,,,,,,,,,,,4.658203125,12.333984375,0,0,1,1.17010092735,,,,,2015_Oct_24_1337,K,facesParametric,13,59.6944333354,
./stim/MorphF2_08_orig.jpg,181,,,,,0,181,181,181,,,,,,,,,,,,,,,,,,,4.541015625,12.421875,0,0,1,1.0543680191,,,,,2015_Oct_24_1337,K,facesParametric,13,59.6944333354,
./stim/MorphM6_04_orig.jpg,182,,,,,0,182,182,182,,,,,,,,,,,,,,,,,,,4.541015625,12.421875,1,0,0,3.40106987953,,,,,2015_Oct_24_1337,K,facesParametric,13,59.6944333354,
./stim/MorphF8_02_orig.jpg,183,,,,,0,183,183,183,,,,,,,,,,,,,,,,,,,4.8046875,12.65625,1,0,0,1.95984506607,,,,,2015_Oct_24_1337,K,facesParametric,13,59.6944333354,
./stim/MorphF7_01_orig.jpg,184,,,,,0,184,184,184,,,,,,,,,,,,,,,,,,,4.98046875,12.890625,1,0,0,1.63958096504,,,,,2015_Oct_24_1337,K,facesParametric,13,59.6944333354,
./stim/MorphM3_07_orig.jpg,185,,,,,0,185,185,185,,,,,,,,,,,,,,,,,,,5.068359375,12.919921875,0,0,1,1.49006199837,,,,,2015_Oct_24_1337,K,facesParametric,13,59.6944333354,
./stim/MorphM1_04_orig.jpg,186,,,,,0,186,186,186,,,,,,,,,,,,,,,,,,,5.244140625,12.65625,0,0,1,6.63585305214,,,,,2015_Oct_24_1337,K,facesParametric,13,59.6944333354,
./stim/MorphM8_02_orig.jpg,187,,,,,0,187,187,187,,,,,,,,,,,,,,,,,,,4.8046875,13.0078125,1,0,0,2.86459779739,,,,,2015_Oct_24_1337,K,facesParametric,13,59.6944333354,
./stim/MorphF4_04_orig.jpg,188,,,,,0,188,188,188,,,,,,,,,,,,,,,,,,,4.892578125,13.037109375,1,0,0,2.21118712425,,,,,2015_Oct_24_1337,K,facesParametric,13,59.6944333354,
./stim/MorphF3_09_orig.jpg,189,,,,,0,189,189,189,,,,,,,,,,,,,,,,,,,4.833984375,13.125,0,0,1,3.09924793243,,,,,2015_Oct_24_1337,K,facesParametric,13,59.6944333354,
./stim/MorphM6_10_orig.jpg,190,,,,,0,190,190,190,,,,,,,,,,,,,,,,,,,4.892578125,13.0078125,0,0,1,1.15477180481,,,,,2015_Oct_24_1337,K,facesParametric,13,59.6944333354,
./stim/MorphF5_03_orig.jpg,191,,,,,0,191,191,191,,,,,,,,,,,,,,,,,,,4.716796875,12.65625,1,0,0,1.80876207352,,,,,2015_Oct_24_1337,K,facesParametric,13,59.6944333354,
./stim/MorphF6_05_orig.jpg,192,,,,,0,192,192,192,,,,,,,,,,,,,,,,,,,4.599609375,13.037109375,0,0,1,3.03076505661,,,,,2015_Oct_24_1337,K,facesParametric,13,59.6944333354,
./stim/MorphM7_03_orig.jpg,193,,,,,0,193,193,193,,,,,,,,,,,,,,,,,,,4.453125,12.802734375,0,0,1,1.92594599724,,,,,2015_Oct_24_1337,K,facesParametric,13,59.6944333354,
./stim/MorphF6_03_orig.jpg,194,,,,,0,194,194,194,,,,,,,,,,,,,,,,,,,4.130859375,12.421875,1,0,0,3.88657593727,,,,,2015_Oct_24_1337,K,facesParametric,13,59.6944333354,
./stim/MorphM10_10_orig.jpg,195,,,,,0,195,195,195,,,,,,,,,,,,,,,,,,,4.5703125,12.451171875,0,0,1,2.05978703499,,,,,2015_Oct_24_1337,K,facesParametric,13,59.6944333354,
./stim/MorphM2_09_orig.jpg,196,,,,,0,196,196,196,,,,,,,,,,,,,,,,,,,4.013671875,12.861328125,0,0,1,1.70814585686,,,,,2015_Oct_24_1337,K,facesParametric,13,59.6944333354,
./stim/MorphF8_09_orig.jpg,197,,,,,0,197,197,197,,,,,,,,,,,,,,,,,,,4.013671875,13.06640625,0,0,1,1.08694005013,,,,,2015_Oct_24_1337,K,facesParametric,13,59.6944333354,
./stim/MorphM4_05_orig.jpg,198,,,,,0,198,198,198,,,,,,,,,,,,,,,,,,,4.013671875,12.802734375,0,0,1,4.65729308128,,,,,2015_Oct_24_1337,K,facesParametric,13,59.6944333354,
./stim/MorphM5_07_orig.jpg,199,,,,,0,199,199,199,,,,,,,,,,,,,,,,,,,4.072265625,12.802734375,0,0,1,1.23917508125,,,,,2015_Oct_24_1337,K,facesParametric,13,59.6944333354,
./stim/MorphF2_10_orig.jpg,200,,,,,0,200,200,200,,,,,,,,,,,,,,,,,,,3.92578125,12.71484375,0,0,1,3.61871790886,,,,,2015_Oct_24_1337,K,facesParametric,13,59.6944333354,
./stim/MorphM1_10_orig.jpg,201,,,,,0,201,201,201,,,,,,,,,,,,,,,,,,,3.984375,12.568359375,0,0,1,1.23930215836,,,,,2015_Oct_24_1337,K,facesParametric,13,59.6944333354,
./stim/MorphF7_00_orig.jpg,202,,,,,0,202,202,202,,,,,,,,,,,,,,,,,,,3.92578125,12.65625,1,0,0,2.22771310806,,,,,2015_Oct_24_1337,K,facesParametric,13,59.6944333354,
./stim/MorphF2_05_orig.jpg,203,,,,,0,203,203,203,,,,,,,,,,,,,,,,,,,4.013671875,12.333984375,0,0,1,1.43986916542,,,,,2015_Oct_24_1337,K,facesParametric,13,59.6944333354,
./stim/MorphF9_03_orig.jpg,204,,,,,0,204,204,204,,,,,,,,,,,,,,,,,,,4.16015625,12.509765625,1,0,0,3.26551914215,,,,,2015_Oct_24_1337,K,facesParametric,13,59.6944333354,
./stim/MorphM9_06_orig.jpg,205,,,,,0,205,205,205,,,,,,,,,,,,,,,,,,,4.04296875,12.392578125,1,0,0,6.43303084373,,,,,2015_Oct_24_1337,K,facesParametric,13,59.6944333354,
./stim/MorphM10_06_orig.jpg,206,,,,,0,206,206,206,,,,,,,,,,,,,,,,,,,4.072265625,11.953125,0,0,1,0.987265110016,,,,,2015_Oct_24_1337,K,facesParametric,13,59.6944333354,
./stim/MorphF1_03_orig.jpg,207,,,,,0,207,207,207,,,,,,,,,,,,,,,,,,,3.896484375,11.8359375,1,0,0,1.06865692139,,,,,2015_Oct_24_1337,K,facesParametric,13,59.6944333354,
./stim/MorphM9_01_orig.jpg,208,,,,,0,208,208,208,,,,,,,,,,,,,,,,,,,3.544921875,11.982421875,1,0,0,2.93173098564,,,,,2015_Oct_24_1337,K,facesParametric,13,59.6944333354,
./stim/MorphM4_03_orig.jpg,209,,,,,0,209,209,209,,,,,,,,,,,,,,,,,,,3.69140625,12.12890625,0,0,1,3.36735892296,,,,,2015_Oct_24_1337,K,facesParametric,13,59.6944333354,
./stim/MorphM1_07_orig.jpg,210,,,,,0,210,210,210,,,,,,,,,,,,,,,,,,,3.69140625,13.18359375,0,0,1,1.18928003311,,,,,2015_Oct_24_1337,K,facesParametric,13,59.6944333354,
./stim/MorphM5_10_orig.jpg,211,,,,,0,211,211,211,,,,,,,,,,,,,,,,,,,3.837890625,12.3046875,0,0,1,2.50988197327,,,,,2015_Oct_24_1337,K,facesParametric,13,59.6944333354,
./stim/MorphF9_08_orig.jpg,212,,,,,0,212,212,212,,,,,,,,,,,,,,,,,,,3.92578125,12.392578125,0,0,1,1.10524201393,,,,,2015_Oct_24_1337,K,facesParametric,13,59.6944333354,
./stim/MorphF2_09_orig.jpg,213,,,,,0,213,213,213,,,,,,,,,,,,,,,,,,,3.896484375,12.5390625,0,0,1,1.12145900726,,,,,2015_Oct_24_1337,K,facesParametric,13,59.6944333354,
./stim/MorphM3_09_orig.jpg,214,,,,,0,214,214,214,,,,,,,,,,,,,,,,,,,4.16015625,12.48046875,0,0,1,1.03638219833,,,,,2015_Oct_24_1337,K,facesParametric,13,59.6944333354,
./stim/MorphF9_07_orig.jpg,215,,,,,0,215,215,215,,,,,,,,,,,,,,,,,,,4.27734375,12.59765625,0,0,1,4.28904008865,,,,,2015_Oct_24_1337,K,facesParametric,13,59.6944333354,
./stim/MorphF7_08_orig.jpg,216,,,,,0,216,216,216,,,,,,,,,,,,,,,,,,,4.16015625,12.3046875,0,0,1,1.22225499153,,,,,2015_Oct_24_1337,K,facesParametric,13,59.6944333354,
./stim/MorphF8_07_orig.jpg,217,,,,,0,217,217,217,,,,,,,,,,,,,,,,,,,4.04296875,12.216796875,0,0,1,1.38959503174,,,,,2015_Oct_24_1337,K,facesParametric,13,59.6944333354,
./stim/MorphF7_03_orig.jpg,218,,,,,0,218,218,218,,,,,,,,,,,,,,,,,,,4.189453125,11.923828125,1,0,0,1.97554206848,,,,,2015_Oct_24_1337,K,facesParametric,13,59.6944333354,
./stim/MorphF2_01_orig.jpg,219,,,,,0,219,219,219,,,,,,,,,,,,,,,,,,,4.306640625,12.0703125,1,0,0,1.6244468689,,,,,2015_Oct_24_1337,K,facesParametric,13,59.6944333354,
,,,,,,,,,,,,,,,,,,,,,,,,,,,,,,,,,,return,8.74906587601,,,2015_Oct_24_1337,K,facesParametric,13,59.6944333354,
./stim/MorphM1_05_orig.jpg,0,,,,,,,,,0,0,0,0,,,,,,,,,,,,,,,23.408203125,13.18359375,0,0,1,3.69229412079,,,,,2015_Oct_24_1337,K,facesParametric,13,59.6944333354,
./stim/MorphM8_05_orig.jpg,1,,,,,,,,,0,1,1,1,,,,,,,,,,,,,,,23.3203125,13.18359375,1,0,0,22.9241278172,,,,,2015_Oct_24_1337,K,facesParametric,13,59.6944333354,
./stim/MorphF1_05_orig.jpg,2,,,,,,,,,0,2,2,2,,,,,,,,,,,,,,,22.55859375,12.65625,1,0,0,16.9599380493,,,,,2015_Oct_24_1337,K,facesParametric,13,59.6944333354,
./stim/MorphM5_03_orig.jpg,3,,,,,,,,,0,3,3,3,,,,,,,,,,,,,,,22.646484375,12.71484375,0,0,1,2.56242084503,,,,,2015_Oct_24_1337,K,facesParametric,13,59.6944333354,
./stim/MorphF2_10_orig.jpg,4,,,,,,,,,0,4,4,4,,,,,,,,,,,,,,,22.587890625,12.626953125,0,0,1,5.67866802216,,,,,2015_Oct_24_1337,K,facesParametric,13,59.6944333354,
./stim/MorphM3_04_orig.jpg,5,,,,,,,,,0,5,5,5,,,,,,,,,,,,,,,22.55859375,12.5390625,0,0,1,1.47341609001,,,,,2015_Oct_24_1337,K,facesParametric,13,59.6944333354,
./stim/MorphF9_08_orig.jpg,6,,,,,,,,,0,6,6,6,,,,,,,,,,,,,,,23.232421875,13.06640625,0,0,1,11.7288279533,,,,,2015_Oct_24_1337,K,facesParametric,13,59.6944333354,
./stim/MorphF3_07_orig.jpg,7,,,,,,,,,0,7,7,7,,,,,,,,,,,,,,,23.203125,12.861328125,1,0,0,4.25453710556,,,,,2015_Oct_24_1337,K,facesParametric,13,59.6944333354,
./stim/MorphF8_01_orig.jpg,8,,,,,,,,,0,8,8,8,,,,,,,,,,,,,,,23.115234375,12.802734375,1,0,0,3.66850590706,,,,,2015_Oct_24_1337,K,facesParametric,13,59.6944333354,
./stim/MorphM2_05_orig.jpg,9,,,,,,,,,0,9,9,9,,,,,,,,,,,,,,,23.14453125,12.83203125,1,0,0,3.11674308777,,,,,2015_Oct_24_1337,K,facesParametric,13,59.6944333354,
./stim/MorphF3_06_orig.jpg,10,,,,,,,,,0,10,10,10,,,,,,,,,,,,,,,23.14453125,12.802734375,1,0,0,2.05749511719,,,,,2015_Oct_24_1337,K,facesParametric,13,59.6944333354,
./stim/MorphM10_01_orig.jpg,11,,,,,,,,,0,11,11,11,,,,,,,,,,,,,,,23.115234375,12.744140625,1,0,0,3.41876101494,,,,,2015_Oct_24_1337,K,facesParametric,13,59.6944333354,
./stim/MorphF8_00_orig.jpg,12,,,,,,,,,0,12,12,12,,,,,,,,,,,,,,,23.14453125,12.65625,1,0,0,2.04235386848,,,,,2015_Oct_24_1337,K,facesParametric,13,59.6944333354,
./stim/MorphM4_08_orig.jpg,13,,,,,,,,,0,13,13,13,,,,,,,,,,,,,,,23.173828125,12.5390625,0,0,1,3.35077214241,,,,,2015_Oct_24_1337,K,facesParametric,13,59.6944333354,
./stim/MorphF7_04_orig.jpg,14,,,,,,,,,0,14,14,14,,,,,,,,,,,,,,,23.173828125,12.5390625,1,0,0,2.99863004684,,,,,2015_Oct_24_1337,K,facesParametric,13,59.6944333354,
./stim/MorphF4_00_orig.jpg,15,,,,,,,,,0,15,15,15,,,,,,,,,,,,,,,23.173828125,12.5390625,1,0,0,1.4906411171,,,,,2015_Oct_24_1337,K,facesParametric,13,59.6944333354,
./stim/MorphF7_09_orig.jpg,16,,,,,,,,,0,16,16,16,,,,,,,,,,,,,,,23.173828125,12.5390625,0,0,1,1.38971400261,,,,,2015_Oct_24_1337,K,facesParametric,13,59.6944333354,
./stim/MorphM3_06_orig.jpg,17,,,,,,,,,0,17,17,17,,,,,,,,,,,,,,,23.115234375,12.48046875,0,0,1,1.87460112572,,,,,2015_Oct_24_1337,K,facesParametric,13,59.6944333354,
./stim/MorphM6_03_orig.jpg,18,,,,,,,,,0,18,18,18,,,,,,,,,,,,,,,23.14453125,12.421875,1,0,0,3.03208088875,,,,,2015_Oct_24_1337,K,facesParametric,13,59.6944333354,
./stim/MorphM9_05_orig.jpg,19,,,,,,,,,0,19,19,19,,,,,,,,,,,,,,,23.115234375,12.392578125,1,0,0,1.60720610619,,,,,2015_Oct_24_1337,K,facesParametric,13,59.6944333354,
./stim/MorphF6_07_orig.jpg,20,,,,,,,,,0,20,20,20,,,,,,,,,,,,,,,23.14453125,12.3046875,0,0,1,4.99297308922,,,,,2015_Oct_24_1337,K,facesParametric,13,59.6944333354,
./stim/MorphF4_03_orig.jpg,21,,,,,,,,,0,21,21,21,,,,,,,,,,,,,,,23.14453125,12.275390625,1,0,0,2.78064799309,,,,,2015_Oct_24_1337,K,facesParametric,13,59.6944333354,
./stim/MorphM1_02_orig.jpg,22,,,,,,,,,0,22,22,22,,,,,,,,,,,,,,,23.26171875,12.1875,1,0,0,9.65102410316,,,,,2015_Oct_24_1337,K,facesParametric,13,59.6944333354,
./stim/MorphF1_06_orig.jpg,23,,,,,,,,,0,23,23,23,,,,,,,,,,,,,,,23.349609375,11.953125,1,0,0,4.95966315269,,,,,2015_Oct_24_1337,K,facesParametric,13,59.6944333354,
./stim/MorphM9_00_orig.jpg,24,,,,,,,,,0,24,24,24,,,,,,,,,,,,,,,23.26171875,11.923828125,1,0,0,1.52415513992,,,,,2015_Oct_24_1337,K,facesParametric,13,59.6944333354,
./stim/MorphF6_04_orig.jpg,25,,,,,,,,,0,25,25,25,,,,,,,,,,,,,,,23.26171875,11.923828125,1,0,0,3.61687493324,,,,,2015_Oct_24_1337,K,facesParametric,13,59.6944333354,
./stim/MorphF8_09_orig.jpg,26,,,,,,,,,0,26,26,26,,,,,,,,,,,,,,,23.349609375,11.923828125,0,0,1,6.61795806885,,,,,2015_Oct_24_1337,K,facesParametric,13,59.6944333354,
./stim/MorphF10_09_orig.jpg,27,,,,,,,,,0,27,27,27,,,,,,,,,,,,,,,23.203125,11.953125,0,0,1,1.25521707535,,,,,2015_Oct_24_1337,K,facesParametric,13,59.6944333354,
./stim/MorphF8_08_orig.jpg,28,,,,,,,,,0,28,28,28,,,,,,,,,,,,,,,23.14453125,11.89453125,0,0,1,1.00437092781,,,,,2015_Oct_24_1337,K,facesParametric,13,59.6944333354,
./stim/MorphM6_09_orig.jpg,29,,,,,,,,,0,29,29,29,,,,,,,,,,,,,,,23.14453125,12.0703125,0,0,1,3.88663601875,,,,,2015_Oct_24_1337,K,facesParametric,13,59.6944333354,
./stim/MorphF1_02_orig.jpg,30,,,,,,,,,0,30,30,30,,,,,,,,,,,,,,,23.115234375,11.89453125,1,0,0,2.22721004486,,,,,2015_Oct_24_1337,K,facesParametric,13,59.6944333354,
./stim/MorphM8_07_orig.jpg,31,,,,,,,,,0,31,31,31,,,,,,,,,,,,,,,23.02734375,11.77734375,0,0,1,2.3946018219,,,,,2015_Oct_24_1337,K,facesParametric,13,59.6944333354,
./stim/MorphM2_01_orig.jpg,32,,,,,,,,,0,32,32,32,,,,,,,,,,,,,,,22.96875,11.71875,1,0,0,2.57822680473,,,,,2015_Oct_24_1337,K,facesParametric,13,59.6944333354,
./stim/MorphM3_03_orig.jpg,33,,,,,,,,,0,33,33,33,,,,,,,,,,,,,,,22.8515625,11.66015625,0,0,1,1.0881280899,,,,,2015_Oct_24_1337,K,facesParametric,13,59.6944333354,
./stim/MorphF8_04_orig.jpg,34,,,,,,,,,0,34,34,34,,,,,,,,,,,,,,,22.79296875,11.630859375,0,0,1,2.05954098701,,,,,2015_Oct_24_1337,K,facesParametric,13,59.6944333354,
./stim/MorphM4_00_orig.jpg,35,,,,,,,,,0,35,35,35,,,,,,,,,,,,,,,22.763671875,11.6015625,1,0,0,2.29358386993,,,,,2015_Oct_24_1337,K,facesParametric,13,59.6944333354,
./stim/MorphF6_03_orig.jpg,36,,,,,,,,,0,36,36,36,,,,,,,,,,,,,,,22.763671875,11.6015625,1,0,0,1.75679707527,,,,,2015_Oct_24_1337,K,facesParametric,13,59.6944333354,
./stim/MorphM10_09_orig.jpg,37,,,,,,,,,0,37,37,37,,,,,,,,,,,,,,,22.55859375,11.455078125,0,0,1,6.85234594345,,,,,2015_Oct_24_1337,K,facesParametric,13,59.6944333354,
./stim/MorphM7_00_orig.jpg,38,,,,,,,,,0,38,38,38,,,,,,,,,,,,,,,22.5,11.513671875,1,0,0,6.09904193878,,,,,2015_Oct_24_1337,K,facesParametric,13,59.6944333354,
./stim/MorphF9_02_orig.jpg,39,,,,,,,,,0,39,39,39,,,,,,,,,,,,,,,22.998046875,11.30859375,1,0,0,7.89230203629,,,,,2015_Oct_24_1337,K,facesParametric,13,59.6944333354,
./stim/MorphF5_02_orig.jpg,40,,,,,,,,,0,40,40,40,,,,,,,,,,,,,,,22.939453125,11.42578125,1,0,0,7.62433004379,,,,,2015_Oct_24_1337,K,facesParametric,13,59.6944333354,
./stim/MorphM10_03_orig.jpg,41,,,,,,,,,0,41,41,41,,,,,,,,,,,,,,,22.880859375,11.396484375,1,0,0,2.32878494263,,,,,2015_Oct_24_1337,K,facesParametric,13,59.6944333354,
./stim/MorphM2_08_orig.jpg,42,,,,,,,,,0,42,42,42,,,,,,,,,,,,,,,22.8515625,11.3671875,0,0,1,1.30519485474,,,,,2015_Oct_24_1337,K,facesParametric,13,59.6944333354,
./stim/MorphF3_01_orig.jpg,43,,,,,,,,,0,43,43,43,,,,,,,,,,,,,,,22.79296875,11.337890625,1,0,0,2.25975489616,,,,,2015_Oct_24_1337,K,facesParametric,13,59.6944333354,
./stim/MorphM4_09_orig.jpg,44,,,,,,,,,0,44,44,44,,,,,,,,,,,,,,,22.79296875,11.337890625,0,0,1,1.0545899868,,,,,2015_Oct_24_1337,K,facesParametric,13,59.6944333354,
./stim/MorphF2_05_orig.jpg,45,,,,,,,,,0,45,45,45,,,,,,,,,,,,,,,22.763671875,11.30859375,0,0,1,1.38985490799,,,,,2015_Oct_24_1337,K,facesParametric,13,59.6944333354,
./stim/MorphM5_05_orig.jpg,46,,,,,,,,,0,46,46,46,,,,,,,,,,,,,,,22.734375,11.220703125,0,0,1,1.30616998672,,,,,2015_Oct_24_1337,K,facesParametric,13,59.6944333354,
./stim/MorphF9_10_orig.jpg,47,,,,,,,,,0,47,47,47,,,,,,,,,,,,,,,22.763671875,11.220703125,0,0,1,1.0854818821,,,,,2015_Oct_24_1337,K,facesParametric,13,59.6944333354,
./stim/MorphF1_01_orig.jpg,48,,,,,,,,,0,48,48,48,,,,,,,,,,,,,,,22.79296875,11.25,1,0,0,3.82019400597,,,,,2015_Oct_24_1337,K,facesParametric,13,59.6944333354,
./stim/MorphM8_09_orig.jpg,49,,,,,,,,,0,49,49,49,,,,,,,,,,,,,,,22.734375,11.162109375,0,0,1,1.57417082787,,,,,2015_Oct_24_1337,K,facesParametric,13,59.6944333354,
./stim/MorphM4_02_orig.jpg,50,,,,,,,,,0,50,50,50,,,,,,,,,,,,,,,22.67578125,10.78125,0,0,1,4.57424092293,,,,,2015_Oct_24_1337,K,facesParametric,13,59.6944333354,
./stim/MorphM6_08_orig.jpg,51,,,,,,,,,0,51,51,51,,,,,,,,,,,,,,,22.763671875,10.72265625,0,0,1,5.93158793449,,,,,2015_Oct_24_1337,K,facesParametric,13,59.6944333354,
./stim/MorphF2_00_orig.jpg,52,,,,,,,,,0,52,52,52,,,,,,,,,,,,,,,22.763671875,10.693359375,1,0,0,2.84795808792,,,,,2015_Oct_24_1337,K,facesParametric,13,59.6944333354,
./stim/MorphM7_04_orig.jpg,53,,,,,,,,,0,53,53,53,,,,,,,,,,,,,,,22.79296875,10.634765625,0,0,1,1.68987703323,,,,,2015_Oct_24_1337,K,facesParametric,13,59.6944333354,
./stim/MorphM6_07_orig.jpg,54,,,,,,,,,0,54,54,54,,,,,,,,,,,,,,,22.763671875,10.60546875,1,0,0,2.3931350708,,,,,2015_Oct_24_1337,K,facesParametric,13,59.6944333354,
./stim/MorphF1_10_orig.jpg,55,,,,,,,,,0,55,55,55,,,,,,,,,,,,,,,22.822265625,10.576171875,1,0,0,2.22745990753,,,,,2015_Oct_24_1337,K,facesParametric,13,59.6944333354,
./stim/MorphM1_03_orig.jpg,56,,,,,,,,,0,56,56,56,,,,,,,,,,,,,,,22.587890625,10.517578125,0,0,1,2.2280960083,,,,,2015_Oct_24_1337,K,facesParametric,13,59.6944333354,
./stim/MorphF4_10_orig.jpg,57,,,,,,,,,0,57,57,57,,,,,,,,,,,,,,,22.470703125,10.4296875,0,0,1,1.30653095245,,,,,2015_Oct_24_1337,K,facesParametric,13,59.6944333354,
./stim/MorphF9_09_orig.jpg,58,,,,,,,,,0,58,58,58,,,,,,,,,,,,,,,22.44140625,10.37109375,0,0,1,1.1039481163,,,,,2015_Oct_24_1337,K,facesParametric,13,59.6944333354,
./stim/MorphM7_09_orig.jpg,59,,,,,,,,,0,59,59,59,,,,,,,,,,,,,,,22.3828125,10.341796875,0,0,1,5.76218509674,,,,,2015_Oct_24_1337,K,facesParametric,13,59.6944333354,
./stim/MorphF4_05_orig.jpg,60,,,,,,,,,0,60,60,60,,,,,,,,,,,,,,,22.353515625,10.37109375,0,0,1,3.09924387932,,,,,2015_Oct_24_1337,K,facesParametric,13,59.6944333354,
./stim/MorphM3_05_orig.jpg,61,,,,,,,,,0,61,61,61,,,,,,,,,,,,,,,22.294921875,10.3125,0,0,1,3.01519989967,,,,,2015_Oct_24_1337,K,facesParametric,13,59.6944333354,
./stim/MorphM5_06_orig.jpg,62,,,,,,,,,0,62,62,62,,,,,,,,,,,,,,,22.294921875,10.3125,0,0,1,1.90874505043,,,,,2015_Oct_24_1337,K,facesParametric,13,59.6944333354,
./stim/MorphM8_08_orig.jpg,63,,,,,,,,,0,63,63,63,,,,,,,,,,,,,,,22.32421875,10.283203125,0,0,1,3.06521201134,,,,,2015_Oct_24_1337,K,facesParametric,13,59.6944333354,
./stim/MorphF5_09_orig.jpg,64,,,,,,,,,0,64,64,64,,,,,,,,,,,,,,,22.265625,10.283203125,0,0,1,1.28972411156,,,,,2015_Oct_24_1337,K,facesParametric,13,59.6944333354,
./stim/MorphF10_03_orig.jpg,65,,,,,,,,,0,65,65,65,,,,,,,,,,,,,,,22.265625,10.283203125,0,0,1,1.92529201508,,,,,2015_Oct_24_1337,K,facesParametric,13,59.6944333354,
./stim/MorphF7_00_orig.jpg,66,,,,,,,,,0,66,66,66,,,,,,,,,,,,,,,22.265625,10.283203125,1,0,0,4.84215283394,,,,,2015_Oct_24_1337,K,facesParametric,13,59.6944333354,
./stim/MorphF8_05_orig.jpg,67,,,,,,,,,0,67,67,67,,,,,,,,,,,,,,,22.32421875,10.341796875,0,0,1,1.7249879837,,,,,2015_Oct_24_1337,K,facesParametric,13,59.6944333354,
./stim/MorphM2_03_orig.jpg,68,,,,,,,,,0,68,68,68,,,,,,,,,,,,,,,22.265625,10.283203125,1,0,0,1.33801007271,,,,,2015_Oct_24_1337,K,facesParametric,13,59.6944333354,
./stim/MorphM10_07_orig.jpg,69,,,,,,,,,0,69,69,69,,,,,,,,,,,,,,,22.32421875,10.3125,0,0,1,1.18828701973,,,,,2015_Oct_24_1337,K,facesParametric,13,59.6944333354,
./stim/MorphF6_02_orig.jpg,70,,,,,,,,,0,70,70,70,,,,,,,,,,,,,,,22.353515625,10.341796875,1,0,0,2.32745289803,,,,,2015_Oct_24_1337,K,facesParametric,13,59.6944333354,
./stim/MorphM7_07_orig.jpg,71,,,,,,,,,0,71,71,71,,,,,,,,,,,,,,,22.353515625,10.341796875,0,0,1,1.30551409721,,,,,2015_Oct_24_1337,K,facesParametric,13,59.6944333354,
./stim/MorphF10_04_orig.jpg,72,,,,,,,,,0,72,72,72,,,,,,,,,,,,,,,22.1484375,10.13671875,0,0,1,1.84108090401,,,,,2015_Oct_24_1337,K,facesParametric,13,59.6944333354,
./stim/MorphM9_09_orig.jpg,73,,,,,,,,,0,73,73,73,,,,,,,,,,,,,,,22.20703125,10.1953125,0,0,1,1.54028201103,,,,,2015_Oct_24_1337,K,facesParametric,13,59.6944333354,
./stim/MorphM6_06_orig.jpg,74,,,,,,,,,0,74,74,74,,,,,,,,,,,,,,,22.1484375,10.078125,1,0,0,1.75861310959,,,,,2015_Oct_24_1337,K,facesParametric,13,59.6944333354,
./stim/MorphF10_07_orig.jpg,75,,,,,,,,,0,75,75,75,,,,,,,,,,,,,,,22.119140625,10.048828125,0,0,1,1.18918800354,,,,,2015_Oct_24_1337,K,facesParametric,13,59.6944333354,
./stim/MorphF7_10_orig.jpg,76,,,,,,,,,0,76,76,76,,,,,,,,,,,,,,,22.03125,9.90234375,0,0,1,1.26934695244,,,,,2015_Oct_24_1337,K,facesParametric,13,59.6944333354,
./stim/MorphM5_07_orig.jpg,77,,,,,,,,,0,77,77,77,,,,,,,,,,,,,,,21.9140625,9.755859375,0,0,1,1.40663790703,,,,,2015_Oct_24_1337,K,facesParametric,13,59.6944333354,
./stim/MorphF6_05_orig.jpg,78,,,,,,,,,0,78,78,78,,,,,,,,,,,,,,,21.826171875,9.7265625,1,0,0,5.27799391747,,,,,2015_Oct_24_1337,K,facesParametric,13,59.6944333354,
./stim/MorphM10_10_orig.jpg,79,,,,,,,,,0,79,79,79,,,,,,,,,,,,,,,21.73828125,9.66796875,0,0,1,1.18748497963,,,,,2015_Oct_24_1337,K,facesParametric,13,59.6944333354,
./stim/MorphM6_10_orig.jpg,80,,,,,,,,,0,80,80,80,,,,,,,,,,,,,,,21.5625,9.4921875,0,0,1,1.28907108307,,,,,2015_Oct_24_1337,K,facesParametric,13,59.6944333354,
./stim/MorphF3_05_orig.jpg,81,,,,,,,,,0,81,81,81,,,,,,,,,,,,,,,21.474609375,9.521484375,1,0,0,2.47705197334,,,,,2015_Oct_24_1337,K,facesParametric,13,59.6944333354,
./stim/MorphM2_07_orig.jpg,82,,,,,,,,,0,82,82,82,,,,,,,,,,,,,,,21.38671875,9.43359375,1,0,0,4.62447690964,,,,,2015_Oct_24_1337,K,facesParametric,13,59.6944333354,
./stim/MorphF1_03_orig.jpg,83,,,,,,,,,0,83,83,83,,,,,,,,,,,,,,,21.38671875,9.43359375,1,0,0,1.49028205872,,,,,2015_Oct_24_1337,K,facesParametric,13,59.6944333354,
./stim/MorphF5_08_orig.jpg,84,,,,,,,,,0,84,84,84,,,,,,,,,,,,,,,21.2109375,9.287109375,0,0,1,1.28901004791,,,,,2015_Oct_24_1337,K,facesParametric,13,59.6944333354,
./stim/MorphM4_01_orig.jpg,85,,,,,,,,,0,85,85,85,,,,,,,,,,,,,,,21.09375,9.140625,1,0,0,5.74706602097,,,,,2015_Oct_24_1337,K,facesParametric,13,59.6944333354,
./stim/MorphF2_07_orig.jpg,86,,,,,,,,,0,86,86,86,,,,,,,,,,,,,,,20.91796875,9.08203125,0,0,1,1.15519714355,,,,,2015_Oct_24_1337,K,facesParametric,13,59.6944333354,
./stim/MorphM8_02_orig.jpg,87,,,,,,,,,0,87,87,87,,,,,,,,,,,,,,,20.888671875,9.052734375,1,0,0,2.64704918861,,,,,2015_Oct_24_1337,K,facesParametric,13,59.6944333354,
./stim/MorphF3_02_orig.jpg,88,,,,,,,,,0,88,88,88,,,,,,,,,,,,,,,20.888671875,8.994140625,1,0,0,2.0767660141,,,,,2015_Oct_24_1337,K,facesParametric,13,59.6944333354,
./stim/MorphF8_10_orig.jpg,89,,,,,,,,,0,89,89,89,,,,,,,,,,,,,,,20.888671875,8.994140625,0,0,1,1.27079105377,,,,,2015_Oct_24_1337,K,facesParametric,13,59.6944333354,
./stim/MorphM4_04_orig.jpg,90,,,,,,,,,0,90,90,90,,,,,,,,,,,,,,,19.833984375,8.7890625,0,0,1,12.8870270252,,,,,2015_Oct_24_1337,K,facesParametric,13,59.6944333354,
./stim/MorphF5_04_orig.jpg,91,,,,,,,,,0,91,91,91,,,,,,,,,,,,,,,19.833984375,8.73046875,1,0,0,2.61305189133,,,,,2015_Oct_24_1337,K,facesParametric,13,59.6944333354,
./stim/MorphF1_08_orig.jpg,92,,,,,,,,,0,92,92,92,,,,,,,,,,,,,,,19.833984375,8.73046875,1,0,0,1.85730910301,,,,,2015_Oct_24_1337,K,facesParametric,13,59.6944333354,
./stim/MorphM3_09_orig.jpg,93,,,,,,,,,0,93,93,93,,,,,,,,,,,,,,,19.833984375,8.73046875,0,0,1,2.7305700779,,,,,2015_Oct_24_1337,K,facesParametric,13,59.6944333354,
./stim/MorphF10_06_orig.jpg,94,,,,,,,,,0,94,94,94,,,,,,,,,,,,,,,19.833984375,8.73046875,0,0,1,1.27021884918,,,,,2015_Oct_24_1337,K,facesParametric,13,59.6944333354,
./stim/MorphM8_10_orig.jpg,95,,,,,,,,,0,95,95,95,,,,,,,,,,,,,,,19.8046875,8.73046875,0,0,1,6.0325460434,,,,,2015_Oct_24_1337,K,facesParametric,13,59.6944333354,
./stim/MorphM3_00_orig.jpg,96,,,,,,,,,0,96,96,96,,,,,,,,,,,,,,,19.599609375,8.61328125,0,0,1,2.49476695061,,,,,2015_Oct_24_1337,K,facesParametric,13,59.6944333354,
./stim/MorphF10_00_orig.jpg,97,,,,,,,,,0,97,97,97,,,,,,,,,,,,,,,19.62890625,8.642578125,1,0,0,2.94876217842,,,,,2015_Oct_24_1337,K,facesParametric,13,59.6944333354,
./stim/MorphF1_04_orig.jpg,98,,,,,,,,,0,98,98,98,,,,,,,,,,,,,,,19.62890625,8.642578125,1,0,0,2.71410298347,,,,,2015_Oct_24_1337,K,facesParametric,13,59.6944333354,
./stim/MorphM6_01_orig.jpg,99,,,,,,,,,0,99,99,99,,,,,,,,,,,,,,,19.658203125,8.525390625,1,0,0,2.10992407799,,,,,2015_Oct_24_1337,K,facesParametric,13,59.6944333354,
./stim/MorphF6_00_orig.jpg,100,,,,,,,,,0,100,100,100,,,,,,,,,,,,,,,19.658203125,8.525390625,1,0,0,1.40706014633,,,,,2015_Oct_24_1337,K,facesParametric,13,59.6944333354,
./stim/MorphM4_10_orig.jpg,101,,,,,,,,,0,101,101,101,,,,,,,,,,,,,,,19.51171875,8.37890625,0,0,1,1.22191119194,,,,,2015_Oct_24_1337,K,facesParametric,13,59.6944333354,
./stim/MorphM7_02_orig.jpg,102,,,,,,,,,0,102,102,102,,,,,,,,,,,,,,,19.51171875,8.37890625,0,0,1,3.73623180389,,,,,2015_Oct_24_1337,K,facesParametric,13,59.6944333354,
./stim/MorphM9_07_orig.jpg,103,,,,,,,,,0,103,103,103,,,,,,,,,,,,,,,19.51171875,8.349609375,0,0,1,2.73010396957,,,,,2015_Oct_24_1337,K,facesParametric,13,59.6944333354,
./stim/MorphF2_01_orig.jpg,104,,,,,,,,,0,104,104,104,,,,,,,,,,,,,,,19.541015625,8.37890625,1,0,0,1.28950309753,,,,,2015_Oct_24_1337,K,facesParametric,13,59.6944333354,
./stim/MorphF3_03_orig.jpg,105,,,,,,,,,0,105,105,105,,,,,,,,,,,,,,,19.62890625,8.466796875,1,0,0,1.57389688492,,,,,2015_Oct_24_1337,K,facesParametric,13,59.6944333354,
./stim/MorphM4_03_orig.jpg,106,,,,,,,,,0,106,106,106,,,,,,,,,,,,,,,19.541015625,8.3203125,0,0,1,1.32076907158,,,,,2015_Oct_24_1337,K,facesParametric,13,59.6944333354,
./stim/MorphF9_04_orig.jpg,107,,,,,,,,,0,107,107,107,,,,,,,,,,,,,,,19.5703125,8.115234375,1,0,0,5.88012003899,,,,,2015_Oct_24_1337,K,facesParametric,13,59.6944333354,
./stim/MorphM1_00_orig.jpg,108,,,,,,,,,0,108,108,108,,,,,,,,,,,,,,,19.599609375,8.14453125,0,0,1,1.92616581917,,,,,2015_Oct_24_1337,K,facesParametric,13,59.6944333354,
./stim/MorphM8_06_orig.jpg,109,,,,,,,,,0,109,109,109,,,,,,,,,,,,,,,19.62890625,8.173828125,0,0,1,1.55765604973,,,,,2015_Oct_24_1337,K,facesParametric,13,59.6944333354,
./stim/MorphF8_07_orig.jpg,110,,,,,,,,,0,110,110,110,,,,,,,,,,,,,,,19.62890625,8.173828125,0,0,1,1.23689103127,,,,,2015_Oct_24_1337,K,facesParametric,13,59.6944333354,
./stim/MorphF3_08_orig.jpg,111,,,,,,,,,0,111,111,111,,,,,,,,,,,,,,,19.6875,8.0859375,1,0,0,3.46787714958,,,,,2015_Oct_24_1337,K,facesParametric,13,59.6944333354,
./stim/MorphM6_05_orig.jpg,112,,,,,,,,,0,112,112,112,,,,,,,,,,,,,,,19.62890625,7.8515625,1,0,0,6.66932106018,,,,,2015_Oct_24_1337,K,facesParametric,13,59.6944333354,
./stim/MorphF9_03_orig.jpg,113,,,,,,,,,0,113,113,113,,,,,,,,,,,,,,,19.658203125,7.79296875,1,0,0,1.62200880051,,,,,2015_Oct_24_1337,K,facesParametric,13,59.6944333354,
./stim/MorphM3_08_orig.jpg,114,,,,,,,,,0,114,114,114,,,,,,,,,,,,,,,21.62109375,7.998046875,0,0,1,9.28323197365,,,,,2015_Oct_24_1337,K,facesParametric,13,59.6944333354,
./stim/MorphM9_06_orig.jpg,115,,,,,,,,,0,115,115,115,,,,,,,,,,,,,,,21.62109375,7.8515625,1,0,0,2.02706408501,,,,,2015_Oct_24_1337,K,facesParametric,13,59.6944333354,
./stim/MorphF1_07_orig.jpg,116,,,,,,,,,0,116,116,116,,,,,,,,,,,,,,,21.62109375,7.880859375,0,0,1,7.23875379562,,,,,2015_Oct_24_1337,K,facesParametric,13,59.6944333354,
./stim/MorphM9_01_orig.jpg,117,,,,,,,,,0,117,117,117,,,,,,,,,,,,,,,21.591796875,7.91015625,1,0,0,3.11559796333,,,,,2015_Oct_24_1337,K,facesParametric,13,59.6944333354,
./stim/MorphM5_08_orig.jpg,118,,,,,,,,,0,118,118,118,,,,,,,,,,,,,,,21.5625,7.8515625,0,0,1,1.37294101715,,,,,2015_Oct_24_1337,K,facesParametric,13,59.6944333354,
./stim/MorphF6_01_orig.jpg,119,,,,,,,,,0,119,119,119,,,,,,,,,,,,,,,21.50390625,7.822265625,1,0,0,3.70277309418,,,,,2015_Oct_24_1337,K,facesParametric,13,59.6944333354,
./stim/MorphM1_01_orig.jpg,120,,,,,,,,,0,120,120,120,,,,,,,,,,,,,,,21.416015625,7.734375,0,0,1,8.94809412956,,,,,2015_Oct_24_1337,K,facesParametric,13,59.6944333354,
./stim/MorphF4_08_orig.jpg,121,,,,,,,,,0,121,121,121,,,,,,,,,,,,,,,21.416015625,7.734375,0,0,1,1.0021071434,,,,,2015_Oct_24_1337,K,facesParametric,13,59.6944333354,
./stim/MorphF9_07_orig.jpg,122,,,,,,,,,0,122,122,122,,,,,,,,,,,,,,,21.123046875,7.55859375,0,0,1,1.75818991661,,,,,2015_Oct_24_1337,K,facesParametric,13,59.6944333354,
./stim/MorphM1_10_orig.jpg,123,,,,,,,,,0,123,123,123,,,,,,,,,,,,,,,21.09375,7.470703125,0,0,1,2.22793412209,,,,,2015_Oct_24_1337,K,facesParametric,13,59.6944333354,
./stim/MorphF5_05_orig.jpg,124,,,,,,,,,0,124,124,124,,,,,,,,,,,,,,,20.9765625,7.3828125,0,0,1,1.27270793915,,,,,2015_Oct_24_1337,K,facesParametric,13,59.6944333354,
./stim/MorphM2_09_orig.jpg,125,,,,,,,,,0,125,125,125,,,,,,,,,,,,,,,20.947265625,7.353515625,0,0,1,1.50688791275,,,,,2015_Oct_24_1337,K,facesParametric,13,59.6944333354,
./stim/MorphF4_06_orig.jpg,126,,,,,,,,,0,126,126,126,,,,,,,,,,,,,,,20.888671875,7.294921875,0,0,1,2.19303011894,,,,,2015_Oct_24_1337,K,facesParametric,13,59.6944333354,
./stim/MorphM7_03_orig.jpg,127,,,,,,,,,0,127,127,127,,,,,,,,,,,,,,,20.771484375,7.20703125,0,0,1,1.95749282837,,,,,2015_Oct_24_1337,K,facesParametric,13,59.6944333354,
./stim/MorphF3_10_orig.jpg,128,,,,,,,,,0,128,128,128,,,,,,,,,,,,,,,20.771484375,7.20703125,0,0,1,1.65833091736,,,,,2015_Oct_24_1337,K,facesParametric,13,59.6944333354,
./stim/MorphF7_08_orig.jpg,129,,,,,,,,,0,129,129,129,,,,,,,,,,,,,,,20.595703125,7.08984375,0,0,1,1.13609814644,,,,,2015_Oct_24_1337,K,facesParametric,13,59.6944333354,
./stim/MorphF2_04_orig.jpg,130,,,,,,,,,0,130,130,130,,,,,,,,,,,,,,,20.595703125,7.08984375,1,0,0,1.40506792068,,,,,2015_Oct_24_1337,K,facesParametric,13,59.6944333354,
./stim/MorphM1_09_orig.jpg,131,,,,,,,,,0,131,131,131,,,,,,,,,,,,,,,20.5078125,7.119140625,0,0,1,1.06988406181,,,,,2015_Oct_24_1337,K,facesParametric,13,59.6944333354,
./stim/MorphM7_10_orig.jpg,132,,,,,,,,,0,132,132,132,,,,,,,,,,,,,,,20.44921875,7.060546875,0,0,1,1.17170906067,,,,,2015_Oct_24_1337,K,facesParametric,13,59.6944333354,
./stim/MorphF7_01_orig.jpg,133,,,,,,,,,0,133,133,133,,,,,,,,,,,,,,,20.44921875,7.060546875,1,0,0,2.37853693962,,,,,2015_Oct_24_1337,K,facesParametric,13,59.6944333354,
./stim/MorphM4_07_orig.jpg,134,,,,,,,,,0,134,134,134,,,,,,,,,,,,,,,20.44921875,7.060546875,0,0,1,1.12146615982,,,,,2015_Oct_24_1337,K,facesParametric,13,59.6944333354,
./stim/MorphM8_03_orig.jpg,135,,,,,,,,,0,135,135,135,,,,,,,,,,,,,,,20.5078125,7.03125,0,0,1,1.80722403526,,,,,2015_Oct_24_1337,K,facesParametric,13,59.6944333354,
./stim/MorphF10_01_orig.jpg,136,,,,,,,,,0,136,136,136,,,,,,,,,,,,,,,20.33203125,7.08984375,1,0,0,3.71948719025,,,,,2015_Oct_24_1337,K,facesParametric,13,59.6944333354,
./stim/MorphF9_01_orig.jpg,137,,,,,,,,,0,137,137,137,,,,,,,,,,,,,,,20.244140625,6.97265625,1,0,0,6.7698841095,,,,,2015_Oct_24_1337,K,facesParametric,13,59.6944333354,
./stim/MorphM7_01_orig.jpg,138,,,,,,,,,0,138,138,138,,,,,,,,,,,,,,,20.244140625,6.97265625,0,0,1,1.03707098961,,,,,2015_Oct_24_1337,K,facesParametric,13,59.6944333354,
./stim/MorphF2_02_orig.jpg,139,,,,,,,,,0,139,139,139,,,,,,,,,,,,,,,20.21484375,6.943359375,1,0,0,2.7134540081,,,,,2015_Oct_24_1337,K,facesParametric,13,59.6944333354,
./stim/MorphF8_02_orig.jpg,140,,,,,,,,,0,140,140,140,,,,,,,,,,,,,,,20.244140625,6.9140625,1,0,0,1.38781118393,,,,,2015_Oct_24_1337,K,facesParametric,13,59.6944333354,
./stim/MorphM2_04_orig.jpg,141,,,,,,,,,0,141,141,141,,,,,,,,,,,,,,,20.244140625,6.884765625,1,0,0,2.24364805222,,,,,2015_Oct_24_1337,K,facesParametric,13,59.6944333354,
./stim/MorphF2_06_orig.jpg,142,,,,,,,,,0,142,142,142,,,,,,,,,,,,,,,20.244140625,6.826171875,0,0,1,1.44028306007,,,,,2015_Oct_24_1337,K,facesParametric,13,59.6944333354,
./stim/MorphF7_05_orig.jpg,143,,,,,,,,,0,143,143,143,,,,,,,,,,,,,,,20.244140625,6.38671875,0,0,1,10.9764609337,,,,,2015_Oct_24_1337,K,facesParametric,13,59.6944333354,
./stim/MorphM1_04_orig.jpg,144,,,,,,,,,0,144,144,144,,,,,,,,,,,,,,,20.244140625,6.328125,0,0,1,2.81216597557,,,,,2015_Oct_24_1337,K,facesParametric,13,59.6944333354,
./stim/MorphF4_07_orig.jpg,145,,,,,,,,,0,145,145,145,,,,,,,,,,,,,,,20.244140625,6.328125,0,0,1,1.89212012291,,,,,2015_Oct_24_1337,K,facesParametric,13,59.6944333354,
./stim/MorphM10_08_orig.jpg,146,,,,,,,,,0,146,146,146,,,,,,,,,,,,,,,20.2734375,6.240234375,0,0,1,1.28926992416,,,,,2015_Oct_24_1337,K,facesParametric,13,59.6944333354,
./stim/MorphF9_05_orig.jpg,147,,,,,,,,,0,147,147,147,,,,,,,,,,,,,,,20.33203125,6.240234375,1,0,0,4.40531992912,,,,,2015_Oct_24_1337,K,facesParametric,13,59.6944333354,
./stim/MorphM7_05_orig.jpg,148,,,,,,,,,0,148,148,148,,,,,,,,,,,,,,,20.361328125,6.240234375,0,0,1,2.22618103027,,,,,2015_Oct_24_1337,K,facesParametric,13,59.6944333354,
./stim/MorphM5_09_orig.jpg,149,,,,,,,,,0,149,149,149,,,,,,,,,,,,,,,20.390625,6.2109375,0,0,1,1.5069630146,,,,,2015_Oct_24_1337,K,facesParametric,13,59.6944333354,
./stim/MorphF7_02_orig.jpg,150,,,,,,,,,0,150,150,150,,,,,,,,,,,,,,,20.390625,6.2109375,1,0,0,8.81401610374,,,,,2015_Oct_24_1337,K,facesParametric,13,59.6944333354,
./stim/MorphM2_10_orig.jpg,151,,,,,,,,,0,151,151,151,,,,,,,,,,,,,,,20.390625,6.2109375,0,0,1,1.12182092667,,,,,2015_Oct_24_1337,K,facesParametric,13,59.6944333354,
./stim/MorphF5_03_orig.jpg,152,,,,,,,,,0,152,152,152,,,,,,,,,,,,,,,20.390625,6.2109375,0,0,1,1.79086899757,,,,,2015_Oct_24_1337,K,facesParametric,13,59.6944333354,
./stim/MorphF6_06_orig.jpg,153,,,,,,,,,0,153,153,153,,,,,,,,,,,,,,,20.390625,6.2109375,0,0,1,6.21650314331,,,,,2015_Oct_24_1337,K,facesParametric,13,59.6944333354,
./stim/MorphM10_00_orig.jpg,154,,,,,,,,,0,154,154,154,,,,,,,,,,,,,,,20.390625,6.2109375,1,0,0,3.28376793861,,,,,2015_Oct_24_1337,K,facesParametric,13,59.6944333354,
./stim/MorphM8_00_orig.jpg,155,,,,,,,,,0,155,155,155,,,,,,,,,,,,,,,20.390625,6.2109375,1,0,0,2.04133605957,,,,,2015_Oct_24_1337,K,facesParametric,13,59.6944333354,
./stim/MorphM3_07_orig.jpg,156,,,,,,,,,0,156,156,156,,,,,,,,,,,,,,,20.390625,6.2109375,0,0,1,1.12027406693,,,,,2015_Oct_24_1337,K,facesParametric,13,59.6944333354,
./stim/MorphF4_02_orig.jpg,157,,,,,,,,,0,157,157,157,,,,,,,,,,,,,,,20.390625,6.2109375,1,0,0,5.27776908875,,,,,2015_Oct_24_1337,K,facesParametric,13,59.6944333354,
./stim/MorphM10_04_orig.jpg,158,,,,,,,,,0,158,158,158,,,,,,,,,,,,,,,20.419921875,6.240234375,0,0,1,0.954172849655,,,,,2015_Oct_24_1337,K,facesParametric,13,59.6944333354,
./stim/MorphM5_10_orig.jpg,159,,,,,,,,,0,159,159,159,,,,,,,,,,,,,,,20.419921875,6.240234375,0,0,1,0.953296899796,,,,,2015_Oct_24_1337,K,facesParametric,13,59.6944333354,
./stim/MorphF5_06_orig.jpg,160,,,,,,,,,0,160,160,160,,,,,,,,,,,,,,,20.419921875,6.240234375,0,0,1,1.08811187744,,,,,2015_Oct_24_1337,K,facesParametric,13,59.6944333354,
./stim/MorphM4_05_orig.jpg,161,,,,,,,,,0,161,161,161,,,,,,,,,,,,,,,20.390625,6.2109375,0,0,1,1.59033894539,,,,,2015_Oct_24_1337,K,facesParametric,13,59.6944333354,
./stim/MorphF6_09_orig.jpg,162,,,,,,,,,0,162,162,162,,,,,,,,,,,,,,,20.390625,6.2109375,0,0,1,2.21147298813,,,,,2015_Oct_24_1337,K,facesParametric,13,59.6944333354,
./stim/MorphM9_02_orig.jpg,163,,,,,,,,,0,163,163,163,,,,,,,,,,,,,,,20.390625,6.2109375,1,0,0,1.59032297134,,,,,2015_Oct_24_1337,K,facesParametric,13,59.6944333354,
./stim/MorphF7_06_orig.jpg,164,,,,,,,,,0,164,164,164,,,,,,,,,,,,,,,20.390625,6.2109375,0,0,1,1.6411690712,,,,,2015_Oct_24_1337,K,facesParametric,13,59.6944333354,
./stim/MorphM6_00_orig.jpg,165,,,,,,,,,0,165,165,165,,,,,,,,,,,,,,,20.390625,6.2109375,1,0,0,7.38946294785,,,,,2015_Oct_24_1337,K,facesParametric,13,59.6944333354,
./stim/MorphF4_01_orig.jpg,166,,,,,,,,,0,166,166,166,,,,,,,,,,,,,,,20.361328125,6.181640625,1,0,0,2.6639380455,,,,,2015_Oct_24_1337,K,facesParametric,13,59.6944333354,
./stim/MorphF8_06_orig.jpg,167,,,,,,,,,0,167,167,167,,,,,,,,,,,,,,,20.33203125,6.123046875,0,0,1,0.937218904495,,,,,2015_Oct_24_1337,K,facesParametric,13,59.6944333354,
./stim/MorphF5_01_orig.jpg,168,,,,,,,,,0,168,168,168,,,,,,,,,,,,,,,20.21484375,6.064453125,1,0,0,2.14263510704,,,,,2015_Oct_24_1337,K,facesParametric,13,59.6944333354,
./stim/MorphM6_02_orig.jpg,169,,,,,,,,,0,169,169,169,,,,,,,,,,,,,,,20.185546875,6.09375,1,0,0,2.21037602425,,,,,2015_Oct_24_1337,K,facesParametric,13,59.6944333354,
./stim/MorphF9_06_orig.jpg,170,,,,,,,,,0,170,170,170,,,,,,,,,,,,,,,20.185546875,6.09375,0,0,1,1.10486292839,,,,,2015_Oct_24_1337,K,facesParametric,13,59.6944333354,
./stim/MorphF5_07_orig.jpg,171,,,,,,,,,0,171,171,171,,,,,,,,,,,,,,,20.185546875,6.09375,0,0,1,1.33874583244,,,,,2015_Oct_24_1337,K,facesParametric,13,59.6944333354,
./stim/MorphF3_09_orig.jpg,172,,,,,,,,,0,172,172,172,,,,,,,,,,,,,,,20.15625,6.064453125,0,0,1,1.8254199028,,,,,2015_Oct_24_1337,K,facesParametric,13,59.6944333354,
./stim/MorphF7_07_orig.jpg,173,,,,,,,,,0,173,173,173,,,,,,,,,,,,,,,20.15625,6.064453125,0,0,1,1.25531196594,,,,,2015_Oct_24_1337,K,facesParametric,13,59.6944333354,
./stim/MorphM3_01_orig.jpg,174,,,,,,,,,0,174,174,174,,,,,,,,,,,,,,,20.15625,6.064453125,0,0,1,1.03589701653,,,,,2015_Oct_24_1337,K,facesParametric,13,59.6944333354,
./stim/MorphM6_04_orig.jpg,175,,,,,,,,,0,175,175,175,,,,,,,,,,,,,,,20.126953125,6.03515625,1,0,0,2.52865290642,,,,,2015_Oct_24_1337,K,facesParametric,13,59.6944333354,
./stim/MorphF2_09_orig.jpg,176,,,,,,,,,0,176,176,176,,,,,,,,,,,,,,,20.126953125,6.03515625,0,0,1,1.38968610764,,,,,2015_Oct_24_1337,K,facesParametric,13,59.6944333354,
./stim/MorphF5_10_orig.jpg,177,,,,,,,,,0,177,177,177,,,,,,,,,,,,,,,20.09765625,5.9765625,0,0,1,0.970885038376,,,,,2015_Oct_24_1337,K,facesParametric,13,59.6944333354,
./stim/MorphF10_02_orig.jpg,178,,,,,,,,,0,178,178,178,,,,,,,,,,,,,,,19.8046875,5.947265625,1,0,0,9.92081999779,,,,,2015_Oct_24_1337,K,facesParametric,13,59.6944333354,
./stim/MorphM7_06_orig.jpg,179,,,,,,,,,0,179,179,179,,,,,,,,,,,,,,,19.775390625,5.9765625,0,0,1,0.819900989532,,,,,2015_Oct_24_1337,K,facesParametric,13,59.6944333354,
./stim/MorphM10_06_orig.jpg,180,,,,,,,,,0,180,180,180,,,,,,,,,,,,,,,19.775390625,5.9765625,0,0,1,1.23736786842,,,,,2015_Oct_24_1337,K,facesParametric,13,59.6944333354,
./stim/MorphF4_09_orig.jpg,181,,,,,,,,,0,181,181,181,,,,,,,,,,,,,,,19.74609375,6.005859375,0,0,1,0.85093998909,,,,,2015_Oct_24_1337,K,facesParametric,13,59.6944333354,
./stim/MorphF3_00_orig.jpg,182,,,,,,,,,0,182,182,182,,,,,,,,,,,,,,,19.74609375,6.005859375,0,0,1,2.16034603119,,,,,2015_Oct_24_1337,K,facesParametric,13,59.6944333354,
./stim/MorphM7_08_orig.jpg,183,,,,,,,,,0,183,183,183,,,,,,,,,,,,,,,19.74609375,6.005859375,0,0,1,0.971053123474,,,,,2015_Oct_24_1337,K,facesParametric,13,59.6944333354,
./stim/MorphM4_06_orig.jpg,184,,,,,,,,,0,184,184,184,,,,,,,,,,,,,,,19.74609375,5.9765625,0,0,1,0.853511095047,,,,,2015_Oct_24_1337,K,facesParametric,13,59.6944333354,
./stim/MorphM1_06_orig.jpg,185,,,,,,,,,0,185,185,185,,,,,,,,,,,,,,,19.74609375,5.947265625,0,0,1,1.38799786568,,,,,2015_Oct_24_1337,K,facesParametric,13,59.6944333354,
./stim/MorphF4_04_orig.jpg,186,,,,,,,,,0,186,186,186,,,,,,,,,,,,,,,19.74609375,5.947265625,0,0,1,2.61332178116,,,,,2015_Oct_24_1337,K,facesParametric,13,59.6944333354,
./stim/MorphM2_02_orig.jpg,187,,,,,,,,,0,187,187,187,,,,,,,,,,,,,,,19.74609375,5.947265625,1,0,0,1.50709295273,,,,,2015_Oct_24_1337,K,facesParametric,13,59.6944333354,
./stim/MorphM10_02_orig.jpg,188,,,,,,,,,0,188,188,188,,,,,,,,,,,,,,,19.74609375,5.91796875,1,0,0,2.16085100174,,,,,2015_Oct_24_1337,K,facesParametric,13,59.6944333354,
./stim/MorphM5_04_orig.jpg,189,,,,,,,,,0,189,189,189,,,,,,,,,,,,,,,19.716796875,5.888671875,0,0,1,1.63909006119,,,,,2015_Oct_24_1337,K,facesParametric,13,59.6944333354,
./stim/MorphM1_07_orig.jpg,190,,,,,,,,,0,190,190,190,,,,,,,,,,,,,,,19.716796875,5.888671875,0,0,1,1.39016819,,,,,2015_Oct_24_1337,K,facesParametric,13,59.6944333354,
./stim/MorphF8_03_orig.jpg,191,,,,,,,,,0,191,191,191,,,,,,,,,,,,,,,19.6875,5.859375,1,0,0,3.2495470047,,,,,2015_Oct_24_1337,K,facesParametric,13,59.6944333354,
./stim/MorphM2_06_orig.jpg,192,,,,,,,,,0,192,192,192,,,,,,,,,,,,,,,19.6875,5.859375,0,0,1,3.3678650856,,,,,2015_Oct_24_1337,K,facesParametric,13,59.6944333354,
./stim/MorphF1_09_orig.jpg,193,,,,,,,,,0,193,193,193,,,,,,,,,,,,,,,19.6875,6.15234375,0,0,1,4.20526599884,,,,,2015_Oct_24_1337,K,facesParametric,13,59.6944333354,
./stim/MorphF9_00_orig.jpg,194,,,,,,,,,0,194,194,194,,,,,,,,,,,,,,,19.716796875,6.181640625,1,0,0,1.53852581978,,,,,2015_Oct_24_1337,K,facesParametric,13,59.6944333354,
./stim/MorphM5_00_orig.jpg,195,,,,,,,,,0,195,195,195,,,,,,,,,,,,,,,19.716796875,6.181640625,0,0,1,2.56258201599,,,,,2015_Oct_24_1337,K,facesParametric,13,59.6944333354,
./stim/MorphF1_00_orig.jpg,196,,,,,,,,,0,196,196,196,,,,,,,,,,,,,,,19.716796875,6.15234375,1,0,0,1.64150714874,,,,,2015_Oct_24_1337,K,facesParametric,13,59.6944333354,
./stim/MorphF6_10_orig.jpg,197,,,,,,,,,0,197,197,197,,,,,,,,,,,,,,,19.5703125,6.005859375,0,0,1,2.47921895981,,,,,2015_Oct_24_1337,K,facesParametric,13,59.6944333354,
./stim/MorphF10_10_orig.jpg,198,,,,,,,,,0,198,198,198,,,,,,,,,,,,,,,19.51171875,5.9765625,0,0,1,0.90363407135,,,,,2015_Oct_24_1337,K,facesParametric,13,59.6944333354,
./stim/MorphM5_01_orig.jpg,199,,,,,,,,,0,199,199,199,,,,,,,,,,,,,,,19.39453125,5.91796875,0,0,1,1.33942914009,,,,,2015_Oct_24_1337,K,facesParametric,13,59.6944333354,
./stim/MorphF2_08_orig.jpg,200,,,,,,,,,0,200,200,200,,,,,,,,,,,,,,,19.365234375,5.888671875,0,0,1,1.12199902534,,,,,2015_Oct_24_1337,K,facesParametric,13,59.6944333354,
./stim/MorphF5_00_orig.jpg,201,,,,,,,,,0,201,201,201,,,,,,,,,,,,,,,19.365234375,5.888671875,1,0,0,2.09358596802,,,,,2015_Oct_24_1337,K,facesParametric,13,59.6944333354,
./stim/MorphM3_10_orig.jpg,202,,,,,,,,,0,202,202,202,,,,,,,,,,,,,,,19.21875,5.80078125,0,0,1,1.54077410698,,,,,2015_Oct_24_1337,K,facesParametric,13,59.6944333354,
./stim/MorphF10_08_orig.jpg,203,,,,,,,,,0,203,203,203,,,,,,,,,,,,,,,19.16015625,5.7421875,0,0,1,1.40640521049,,,,,2015_Oct_24_1337,K,facesParametric,13,59.6944333354,
./stim/MorphM2_00_orig.jpg,204,,,,,,,,,0,204,204,204,,,,,,,,,,,,,,,19.130859375,5.830078125,1,0,0,3.73587083817,,,,,2015_Oct_24_1337,K,facesParametric,13,59.6944333354,
./stim/MorphM3_02_orig.jpg,205,,,,,,,,,0,205,205,205,,,,,,,,,,,,,,,19.130859375,5.80078125,0,0,1,1.65718007088,,,,,2015_Oct_24_1337,K,facesParametric,13,59.6944333354,
./stim/MorphF6_08_orig.jpg,206,,,,,,,,,0,206,206,206,,,,,,,,,,,,,,,19.1015625,5.7421875,0,0,1,1.32186388969,,,,,2015_Oct_24_1337,K,facesParametric,13,59.6944333354,
./stim/MorphM10_05_orig.jpg,207,,,,,,,,,0,207,207,207,,,,,,,,,,,,,,,19.1015625,5.68359375,0,0,1,1.22201681137,,,,,2015_Oct_24_1337,K,facesParametric,13,59.6944333354,
./stim/MorphF7_03_orig.jpg,208,,,,,,,,,0,208,208,208,,,,,,,,,,,,,,,19.04296875,5.595703125,0,0,1,2.4962041378,,,,,2015_Oct_24_1337,K,facesParametric,13,59.6944333354,
./stim/MorphM8_01_orig.jpg,209,,,,,,,,,0,209,209,209,,,,,,,,,,,,,,,19.04296875,5.595703125,1,0,0,2.10883188248,,,,,2015_Oct_24_1337,K,facesParametric,13,59.6944333354,
./stim/MorphM5_02_orig.jpg,210,,,,,,,,,0,210,210,210,,,,,,,,,,,,,,,18.984375,5.5078125,0,0,1,1.13785099983,,,,,2015_Oct_24_1337,K,facesParametric,13,59.6944333354,
./stim/MorphM9_04_orig.jpg,211,,,,,,,,,0,211,211,211,,,,,,,,,,,,,,,18.984375,5.5078125,1,0,0,1.52232599258,,,,,2015_Oct_24_1337,K,facesParametric,13,59.6944333354,
./stim/MorphF2_03_orig.jpg,212,,,,,,,,,0,212,212,212,,,,,,,,,,,,,,,18.955078125,5.21484375,1,0,0,2.45997095108,,,,,2015_Oct_24_1337,K,facesParametric,13,59.6944333354,
./stim/MorphM9_08_orig.jpg,213,,,,,,,,,0,213,213,213,,,,,,,,,,,,,,,18.955078125,5.244140625,0,0,1,2.47721195221,,,,,2015_Oct_24_1337,K,facesParametric,13,59.6944333354,
./stim/MorphF3_04_orig.jpg,214,,,,,,,,,0,214,214,214,,,,,,,,,,,,,,,18.955078125,5.244140625,0,0,1,3.39919400215,,,,,2015_Oct_24_1337,K,facesParametric,13,59.6944333354,
./stim/MorphM9_10_orig.jpg,215,,,,,,,,,0,215,215,215,,,,,,,,,,,,,,,18.955078125,5.244140625,0,0,1,1.23881101608,,,,,2015_Oct_24_1337,K,facesParametric,13,59.6944333354,
./stim/MorphM8_04_orig.jpg,216,,,,,,,,,0,216,216,216,,,,,,,,,,,,,,,18.984375,5.185546875,1,0,0,3.11604499817,,,,,2015_Oct_24_1337,K,facesParametric,13,59.6944333354,
./stim/MorphM9_03_orig.jpg,217,,,,,,,,,0,217,217,217,,,,,,,,,,,,,,,18.984375,5.09765625,1,0,0,1.89110612869,,,,,2015_Oct_24_1337,K,facesParametric,13,59.6944333354,
./stim/MorphM1_08_orig.jpg,218,,,,,,,,,0,218,218,218,,,,,,,,,,,,,,,18.984375,4.951171875,0,0,1,1.38990688324,,,,,2015_Oct_24_1337,K,facesParametric,13,59.6944333354,
./stim/MorphF10_05_orig.jpg,219,,,,,,,,,0,219,219,219,,,,,,,,,,,,,,,18.984375,4.951171875,0,0,1,1.30647492409,,,,,2015_Oct_24_1337,K,facesParametric,13,59.6944333354,
,,,,,,,,,,,,,,,,,,,,,,,,,,,,,,,,,,,,return,1.15081501007,2015_Oct_24_1337,K,facesParametric,13,59.6944333354,
