img,num,basicLoop.thisRepN,basicLoop.thisTrialN,basicLoop.thisN,basicLoop.thisIndex,trials.thisRepN,trials.thisTrialN,trials.thisN,trials.thisIndex,trials2.thisRepN,trials2.thisTrialN,trials2.thisN,trials2.thisIndex,key_resp_2.keys,key_resp_2.rt,basicRating1.response,basicRating1.rt,basicRating2.response,basicRating2.rt,basicRating3.response,basicRating3.rt,basicRating4.response,basicRating4.rt,key_resp_3.keys,key_resp_3.rt,key_resp_4.keys,key_resp_4.rt,mouseResp.x,mouseResp.y,mouseResp.leftButton,mouseResp.midButton,mouseResp.rightButton,mouseResp.time,key_resp_5.keys,key_resp_5.rt,key_resp_7.keys,key_resp_7.rt,date,group,expName,participant,frameRate,
,,,,,,,,,,,,,,return,26.7357769012,,,,,,,,,,,,,,,,,,,,,,,2015_Nov_05_1224,K,facesParametric,14,59.5841063742,
./basicStim/36M_FE_O.jpg,,0,0,0,79,,,,,,,,,,,None,None,None,None,DIS,13.779,None,None,,,,,,,,,,,,,,,2015_Nov_05_1224,K,facesParametric,14,59.5841063742,
./basicStim/36M_NE_C.jpg,,0,1,1,83,,,,,,,,,,,None,None,None,None,None,None,NTR,10.31,,,,,,,,,,,,,,,2015_Nov_05_1224,K,facesParametric,14,59.5841063742,
./basicStim/24M_AN_O.jpg,,0,2,2,56,,,,,,,,,,,None,None,None,None,DIS,3.975,None,None,,,,,,,,,,,,,,,2015_Nov_05_1224,K,facesParametric,14,59.5841063742,
./basicStim/23M_SA_C.jpg,,0,3,3,53,,,,,,,,,,,None,None,None,None,None,None,NTR,14.031,,,,,,,,,,,,,,,2015_Nov_05_1224,K,facesParametric,14,59.5841063742,
./basicStim/01F_HA_O.jpg,,0,4,4,3,,,,,,,,,,,HAP,4.898,None,None,None,None,None,None,,,,,,,,,,,,,,,2015_Nov_05_1224,K,facesParametric,14,59.5841063742,
./basicStim/28M_NE_C.jpg,,0,5,5,69,,,,,,,,,,,None,None,None,None,None,None,NTR,5.414,,,,,,,,,,,,,,,2015_Nov_05_1224,K,facesParametric,14,59.5841063742,
./basicStim/07F_SA_C.jpg,,0,6,6,32,,,,,,,,,,,SAD,3.978,None,None,None,None,None,None,,,,,,,,,,,,,,,2015_Nov_05_1224,K,facesParametric,14,59.5841063742,
./basicStim/02F_SA_C.jpg,,0,7,7,11,,,,,,,,,,,SAD,3.661,None,None,None,None,None,None,,,,,,,,,,,,,,,2015_Nov_05_1224,K,facesParametric,14,59.5841063742,
./basicStim/02F_SP_O.jpg,,0,8,8,12,,,,,,,,,,,HAP,3.529,None,None,None,None,None,None,,,,,,,,,,,,,,,2015_Nov_05_1224,K,facesParametric,14,59.5841063742,
./basicStim/24M_SP_O.jpg,,0,9,9,61,,,,,,,,,,,None,None,None,None,SUP,5.74,None,None,,,,,,,,,,,,,,,2015_Nov_05_1224,K,facesParametric,14,59.5841063742,
./basicStim/23M_DI_O.jpg,,0,10,10,50,,,,,,,,,,,None,None,None,None,DIS,2.187,None,None,,,,,,,,,,,,,,,2015_Nov_05_1224,K,facesParametric,14,59.5841063742,
./basicStim/24M_NE_C.jpg,,0,11,11,62,,,,,,,,,,,None,None,None,None,None,None,NTR,2.437,,,,,,,,,,,,,,,2015_Nov_05_1224,K,facesParametric,14,59.5841063742,
./basicStim/06F_SP_O.jpg,,0,12,12,26,,,,,,,,,,,None,None,None,None,SUP,2.595,None,None,,,,,,,,,,,,,,,2015_Nov_05_1224,K,facesParametric,14,59.5841063742,
./basicStim/23M_NE_C.jpg,,0,13,13,55,,,,,,,,,,,None,None,None,None,None,None,NTR,1.625,,,,,,,,,,,,,,,2015_Nov_05_1224,K,facesParametric,14,59.5841063742,
./basicStim/01F_DI_O.jpg,,0,14,14,1,,,,,,,,,,,None,None,None,None,DIS,2.968,None,None,,,,,,,,,,,,,,,2015_Nov_05_1224,K,facesParametric,14,59.5841063742,
./basicStim/34M_SA_C.jpg,,0,15,15,74,,,,,,,,,,,None,None,None,None,None,None,NTR,9.875,,,,,,,,,,,,,,,2015_Nov_05_1224,K,facesParametric,14,59.5841063742,
./basicStim/01F_SA_C.jpg,,0,16,16,4,,,,,,,,,,,None,None,None,None,None,None,NTR,31.429,,,,,,,,,,,,,,,2015_Nov_05_1224,K,facesParametric,14,59.5841063742,
./basicStim/23M_HA_O.jpg,,0,17,17,52,,,,,,,,,,,HAP,2.503,None,None,None,None,None,None,,,,,,,,,,,,,,,2015_Nov_05_1224,K,facesParametric,14,59.5841063742,
./basicStim/03F_NE_C.jpg,,0,18,18,20,,,,,,,,,,,None,None,None,None,None,None,NTR,2.532,,,,,,,,,,,,,,,2015_Nov_05_1224,K,facesParametric,14,59.5841063742,
./basicStim/02F_FE_O.jpg,,0,19,19,9,,,,,,,,,,,None,None,None,None,SUP,3.605,None,None,,,,,,,,,,,,,,,2015_Nov_05_1224,K,facesParametric,14,59.5841063742,
./basicStim/06F_HA_O.jpg,,0,20,20,24,,,,,,,,,,,HAP,1.762,None,None,None,None,None,None,,,,,,,,,,,,,,,2015_Nov_05_1224,K,facesParametric,14,59.5841063742,
./basicStim/09F_NE_C.jpg,,0,21,21,41,,,,,,,,,,,None,None,None,None,None,None,NTR,4.815,,,,,,,,,,,,,,,2015_Nov_05_1224,K,facesParametric,14,59.5841063742,
./basicStim/34M_SP_O.jpg,,0,22,22,75,,,,,,,,,,,HAP,4.88,None,None,None,None,None,None,,,,,,,,,,,,,,,2015_Nov_05_1224,K,facesParametric,14,59.5841063742,
./basicStim/34M_HA_O.jpg,,0,23,23,73,,,,,,,,,,,HAP,8.42,None,None,None,None,None,None,,,,,,,,,,,,,,,2015_Nov_05_1224,K,facesParametric,14,59.5841063742,
./basicStim/02F_NE_C.jpg,,0,24,24,13,,,,,,,,,,,None,None,None,None,None,None,NTR,6.556,,,,,,,,,,,,,,,2015_Nov_05_1224,K,facesParametric,14,59.5841063742,
./basicStim/28M_SA_C.jpg,,0,25,25,67,,,,,,,,,,,None,None,None,None,None,None,NTR,19.372,,,,,,,,,,,,,,,2015_Nov_05_1224,K,facesParametric,14,59.5841063742,
./basicStim/21M_SP_O.jpg,,0,26,26,47,,,,,,,,,,,None,None,None,None,SUP,6.36,None,None,,,,,,,,,,,,,,,2015_Nov_05_1224,K,facesParametric,14,59.5841063742,
./basicStim/28M_FE_O.jpg,,0,27,27,65,,,,,,,,,,,None,None,None,None,SUP,3.708,None,None,,,,,,,,,,,,,,,2015_Nov_05_1224,K,facesParametric,14,59.5841063742,
./basicStim/07F_NE_C.jpg,,0,28,28,34,,,,,,,,,,,None,None,None,None,None,None,NTR,3.757,,,,,,,,,,,,,,,2015_Nov_05_1224,K,facesParametric,14,59.5841063742,
./basicStim/24M_FE_O.jpg,,0,29,29,58,,,,,,,,,,,None,None,FEA,6.374,None,None,None,None,,,,,,,,,,,,,,,2015_Nov_05_1224,K,facesParametric,14,59.5841063742,
./basicStim/21M_FE_O.jpg,,0,30,30,44,,,,,,,,,,,None,None,None,None,SUP,6.121,None,None,,,,,,,,,,,,,,,2015_Nov_05_1224,K,facesParametric,14,59.5841063742,
./basicStim/03F_DI_O.jpg,,0,31,31,15,,,,,,,,,,,None,None,None,None,DIS,2.366,None,None,,,,,,,,,,,,,,,2015_Nov_05_1224,K,facesParametric,14,59.5841063742,
./basicStim/06F_SA_C.jpg,,0,32,32,25,,,,,,,,,,,SAD,3.173,None,None,None,None,None,None,,,,,,,,,,,,,,,2015_Nov_05_1224,K,facesParametric,14,59.5841063742,
./basicStim/02F_HA_O.jpg,,0,33,33,10,,,,,,,,,,,HAP,1.646,None,None,None,None,None,None,,,,,,,,,,,,,,,2015_Nov_05_1224,K,facesParametric,14,59.5841063742,
./basicStim/36M_HA_O.jpg,,0,34,34,80,,,,,,,,,,,HAP,0.628,None,None,None,None,None,None,,,,,,,,,,,,,,,2015_Nov_05_1224,K,facesParametric,14,59.5841063742,
./basicStim/07F_HA_O.jpg,,0,35,35,31,,,,,,,,,,,HAP,0.613,None,None,None,None,None,None,,,,,,,,,,,,,,,2015_Nov_05_1224,K,facesParametric,14,59.5841063742,
./basicStim/28M_HA_O.jpg,,0,36,36,66,,,,,,,,,,,HAP,0.883,None,None,None,None,None,None,,,,,,,,,,,,,,,2015_Nov_05_1224,K,facesParametric,14,59.5841063742,
./basicStim/03F_FE_O.jpg,,0,37,37,16,,,,,,,,,,,None,None,None,None,SUP,8.516,None,None,,,,,,,,,,,,,,,2015_Nov_05_1224,K,facesParametric,14,59.5841063742,
./basicStim/03F_SP_O.jpg,,0,38,38,19,,,,,,,,,,,None,None,None,None,SUP,1.627,None,None,,,,,,,,,,,,,,,2015_Nov_05_1224,K,facesParametric,14,59.5841063742,
./basicStim/01F_FE_O.jpg,,0,39,39,2,,,,,,,,,,,None,None,None,None,SUP,7.931,None,None,,,,,,,,,,,,,,,2015_Nov_05_1224,K,facesParametric,14,59.5841063742,
./basicStim/01F_SP_O.jpg,,0,40,40,5,,,,,,,,,,,None,None,None,None,SUP,2.905,None,None,,,,,,,,,,,,,,,2015_Nov_05_1224,K,facesParametric,14,59.5841063742,
./basicStim/21M_HA_O.jpg,,0,41,41,45,,,,,,,,,,,HAP,3.993,None,None,None,None,None,None,,,,,,,,,,,,,,,2015_Nov_05_1224,K,facesParametric,14,59.5841063742,
./basicStim/34M_NE_C.jpg,,0,42,42,76,,,,,,,,,,,None,None,None,None,None,None,NTR,1.926,,,,,,,,,,,,,,,2015_Nov_05_1224,K,facesParametric,14,59.5841063742,
./basicStim/01F_AN_O.jpg,,0,43,43,0,,,,,,,,,,,None,None,ANG,4.462,None,None,None,None,,,,,,,,,,,,,,,2015_Nov_05_1224,K,facesParametric,14,59.5841063742,
./basicStim/36M_SP_O.jpg,,0,44,44,82,,,,,,,,,,,None,None,None,None,SUP,1.361,None,None,,,,,,,,,,,,,,,2015_Nov_05_1224,K,facesParametric,14,59.5841063742,
./basicStim/06F_NE_C.jpg,,0,45,45,27,,,,,,,,,,,None,None,None,None,None,None,NTR,2.497,,,,,,,,,,,,,,,2015_Nov_05_1224,K,facesParametric,14,59.5841063742,
./basicStim/23M_SP_O.jpg,,0,46,46,54,,,,,,,,,,,None,None,None,None,SUP,3.744,None,None,,,,,,,,,,,,,,,2015_Nov_05_1224,K,facesParametric,14,59.5841063742,
./basicStim/36M_AN_O.jpg,,0,47,47,77,,,,,,,,,,,None,None,ANG,3.974,None,None,None,None,,,,,,,,,,,,,,,2015_Nov_05_1224,K,facesParametric,14,59.5841063742,
./basicStim/34M_FE_O.jpg,,0,48,48,72,,,,,,,,,,,None,None,None,None,SUP,4.274,None,None,,,,,,,,,,,,,,,2015_Nov_05_1224,K,facesParametric,14,59.5841063742,
./basicStim/09F_DI_O.jpg,,0,49,49,36,,,,,,,,,,,None,None,None,None,DIS,2.135,None,None,,,,,,,,,,,,,,,2015_Nov_05_1224,K,facesParametric,14,59.5841063742,
./basicStim/09F_FE_O.jpg,,0,50,50,37,,,,,,,,,,,None,None,None,None,SUP,5.739,None,None,,,,,,,,,,,,,,,2015_Nov_05_1224,K,facesParametric,14,59.5841063742,
./basicStim/09F_SP_O.jpg,,0,51,51,40,,,,,,,,,,,None,None,None,None,SUP,4.947,None,None,,,,,,,,,,,,,,,2015_Nov_05_1224,K,facesParametric,14,59.5841063742,
./basicStim/23M_AN_O.jpg,,0,52,52,49,,,,,,,,,,,None,None,ANG,2.135,None,None,None,None,,,,,,,,,,,,,,,2015_Nov_05_1224,K,facesParametric,14,59.5841063742,
./basicStim/21M_DI_O.jpg,,0,53,53,43,,,,,,,,,,,None,None,None,None,DIS,2.186,None,None,,,,,,,,,,,,,,,2015_Nov_05_1224,K,facesParametric,14,59.5841063742,
./basicStim/21M_NE_C.jpg,,0,54,54,48,,,,,,,,,,,None,None,None,None,None,None,NTR,1.325,,,,,,,,,,,,,,,2015_Nov_05_1224,K,facesParametric,14,59.5841063742,
./basicStim/06F_DI_O.jpg,,0,55,55,22,,,,,,,,,,,None,None,None,None,DIS,2.348,None,None,,,,,,,,,,,,,,,2015_Nov_05_1224,K,facesParametric,14,59.5841063742,
./basicStim/34M_DI_O.jpg,,0,56,56,71,,,,,,,,,,,None,None,None,None,DIS,0.421,None,None,,,,,,,,,,,,,,,2015_Nov_05_1224,K,facesParametric,14,59.5841063742,
./basicStim/07F_AN_O.jpg,,0,57,57,28,,,,,,,,,,,None,None,ANG,3.989,None,None,None,None,,,,,,,,,,,,,,,2015_Nov_05_1224,K,facesParametric,14,59.5841063742,
./basicStim/28M_SP_O.jpg,,0,58,58,68,,,,,,,,,,,None,None,None,None,SUP,1.396,None,None,,,,,,,,,,,,,,,2015_Nov_05_1224,K,facesParametric,14,59.5841063742,
./basicStim/02F_DI_O.jpg,,0,59,59,8,,,,,,,,,,,None,None,None,None,DIS,4.028,None,None,,,,,,,,,,,,,,,2015_Nov_05_1224,K,facesParametric,14,59.5841063742,
./basicStim/24M_SA_C.jpg,,0,60,60,60,,,,,,,,,,,SAD,1.956,None,None,None,None,None,None,,,,,,,,,,,,,,,2015_Nov_05_1224,K,facesParametric,14,59.5841063742,
./basicStim/07F_DI_O.jpg,,0,61,61,29,,,,,,,,,,,None,None,None,None,DIS,2.569,None,None,,,,,,,,,,,,,,,2015_Nov_05_1224,K,facesParametric,14,59.5841063742,
./basicStim/24M_HA_O.jpg,,0,62,62,59,,,,,,,,,,,HAP,1.89,None,None,None,None,None,None,,,,,,,,,,,,,,,2015_Nov_05_1224,K,facesParametric,14,59.5841063742,
./basicStim/03F_HA_O.jpg,,0,63,63,17,,,,,,,,,,,HAP,0.593,None,None,None,None,None,None,,,,,,,,,,,,,,,2015_Nov_05_1224,K,facesParametric,14,59.5841063742,
./basicStim/09F_SA_C.jpg,,0,64,64,39,,,,,,,,,,,SAD,2.268,None,None,None,None,None,None,,,,,,,,,,,,,,,2015_Nov_05_1224,K,facesParametric,14,59.5841063742,
./basicStim/36M_DI_O.jpg,,0,65,65,78,,,,,,,,,,,None,None,None,None,SUP,5.235,None,None,,,,,,,,,,,,,,,2015_Nov_05_1224,K,facesParametric,14,59.5841063742,
./basicStim/07F_SP_O.jpg,,0,66,66,33,,,,,,,,,,,None,None,None,None,SUP,1.346,None,None,,,,,,,,,,,,,,,2015_Nov_05_1224,K,facesParametric,14,59.5841063742,
./basicStim/02F_AN_O.jpg,,0,67,67,7,,,,,,,,,,,None,None,ANG,4.03,None,None,None,None,,,,,,,,,,,,,,,2015_Nov_05_1224,K,facesParametric,14,59.5841063742,
./basicStim/06F_AN_O.jpg,,0,68,68,21,,,,,,,,,,,None,None,ANG,4.561,None,None,None,None,,,,,,,,,,,,,,,2015_Nov_05_1224,K,facesParametric,14,59.5841063742,
./basicStim/21M_SA_C.jpg,,0,69,69,46,,,,,,,,,,,SAD,4.027,None,None,None,None,None,None,,,,,,,,,,,,,,,2015_Nov_05_1224,K,facesParametric,14,59.5841063742,
./basicStim/03F_AN_O.jpg,,0,70,70,14,,,,,,,,,,,None,None,None,None,None,None,NTR,10.929,,,,,,,,,,,,,,,2015_Nov_05_1224,K,facesParametric,14,59.5841063742,
./basicStim/09F_HA_O.jpg,,0,71,71,38,,,,,,,,,,,HAP,2.133,None,None,None,None,None,None,,,,,,,,,,,,,,,2015_Nov_05_1224,K,facesParametric,14,59.5841063742,
./basicStim/28M_AN_O.jpg,,0,72,72,63,,,,,,,,,,,None,None,None,None,SUP,15.402,None,None,,,,,,,,,,,,,,,2015_Nov_05_1224,K,facesParametric,14,59.5841063742,
./basicStim/28M_DI_O.jpg,,0,73,73,64,,,,,,,,,,,None,None,None,None,DIS,1.411,None,None,,,,,,,,,,,,,,,2015_Nov_05_1224,K,facesParametric,14,59.5841063742,
./basicStim/24M_DI_O.jpg,,0,74,74,57,,,,,,,,,,,SAD,2.166,None,None,None,None,None,None,,,,,,,,,,,,,,,2015_Nov_05_1224,K,facesParametric,14,59.5841063742,
./basicStim/23M_FE_O.jpg,,0,75,75,51,,,,,,,,,,,None,None,None,None,SUP,2.383,None,None,,,,,,,,,,,,,,,2015_Nov_05_1224,K,facesParametric,14,59.5841063742,
./basicStim/34M_AN_O.jpg,,0,76,76,70,,,,,,,,,,,None,None,ANG,3.455,None,None,None,None,,,,,,,,,,,,,,,2015_Nov_05_1224,K,facesParametric,14,59.5841063742,
./basicStim/21M_AN_O.jpg,,0,77,77,42,,,,,,,,,,,None,None,ANG,0.775,None,None,None,None,,,,,,,,,,,,,,,2015_Nov_05_1224,K,facesParametric,14,59.5841063742,
./basicStim/06F_FE_O.jpg,,0,78,78,23,,,,,,,,,,,None,None,None,None,SUP,1.818,None,None,,,,,,,,,,,,,,,2015_Nov_05_1224,K,facesParametric,14,59.5841063742,
./basicStim/36M_SA_C.jpg,,0,79,79,81,,,,,,,,,,,SAD,1.636,None,None,None,None,None,None,,,,,,,,,,,,,,,2015_Nov_05_1224,K,facesParametric,14,59.5841063742,
./basicStim/01F_NE_C.jpg,,0,80,80,6,,,,,,,,,,,None,None,None,None,None,None,NTR,1.429,,,,,,,,,,,,,,,2015_Nov_05_1224,K,facesParametric,14,59.5841063742,
./basicStim/07F_FE_O.jpg,,0,81,81,30,,,,,,,,,,,None,None,None,None,SUP,4.694,None,None,,,,,,,,,,,,,,,2015_Nov_05_1224,K,facesParametric,14,59.5841063742,
./basicStim/09F_AN_O.jpg,,0,82,82,35,,,,,,,,,,,None,None,ANG,2.727,None,None,None,None,,,,,,,,,,,,,,,2015_Nov_05_1224,K,facesParametric,14,59.5841063742,
./basicStim/03F_SA_C.jpg,,0,83,83,18,,,,,,,,,,,SAD,1.133,None,None,None,None,None,None,,,,,,,,,,,,,,,2015_Nov_05_1224,K,facesParametric,14,59.5841063742,
,,,,,,,,,,,,,,,,,,,,,,,,return,7.20339894295,,,,,,,,,,,,,2015_Nov_05_1224,K,facesParametric,14,59.5841063742,
,,,,,,,,,,,,,,return,12.4685370922,,,,,,,,,,,,,,,,,,,,,,,2015_Nov_05_1224,K,facesParametric,14,59.5841063742,
,,,,,,,,,,,,,,,,,,,,,,,,return,8.66495990753,,,,,,,,,,,,,2015_Nov_05_1224,K,facesParametric,14,59.5841063742,
,,,,,,,,,,,,,,,,,,,,,,,,,,return,4.37405490875,,,,,,,,,,,2015_Nov_05_1224,K,facesParametric,14,59.5841063742,
./stim/MorphF4_06_orig.jpg,0,,,,,0,0,0,0,,,,,,,,,,,,,,,,,,,2.373046875,-8.994140625,0,0,1,6.92267084122,,,,,2015_Nov_05_1224,K,facesParametric,14,59.5841063742,
./stim/MorphM8_10_orig.jpg,1,,,,,0,1,1,1,,,,,,,,,,,,,,,,,,,0.5859375,-8.4375,1,0,0,1.8587679863,,,,,2015_Nov_05_1224,K,facesParametric,14,59.5841063742,
./stim/MorphF9_08_orig.jpg,2,,,,,0,2,2,2,,,,,,,,,,,,,,,,,,,0.908203125,-8.408203125,0,0,1,3.29979705811,,,,,2015_Nov_05_1224,K,facesParametric,14,59.5841063742,
./stim/MorphM5_01_orig.jpg,3,,,,,0,3,3,3,,,,,,,,,,,,,,,,,,,0.9375,-8.37890625,0,0,1,2.27792692184,,,,,2015_Nov_05_1224,K,facesParametric,14,59.5841063742,
./stim/MorphM1_06_orig.jpg,4,,,,,0,4,4,4,,,,,,,,,,,,,,,,,,,1.0546875,-8.349609375,0,0,1,1.87608408928,,,,,2015_Nov_05_1224,K,facesParametric,14,59.5841063742,
./stim/MorphF9_06_orig.jpg,5,,,,,0,5,5,5,,,,,,,,,,,,,,,,,,,1.171875,-8.3203125,0,0,1,2.5956120491,,,,,2015_Nov_05_1224,K,facesParametric,14,59.5841063742,
./stim/MorphF5_04_orig.jpg,6,,,,,0,6,6,6,,,,,,,,,,,,,,,,,,,1.171875,-8.3203125,0,0,1,1.03775882721,,,,,2015_Nov_05_1224,K,facesParametric,14,59.5841063742,
./stim/MorphM5_06_orig.jpg,7,,,,,0,7,7,7,,,,,,,,,,,,,,,,,,,1.025390625,-8.73046875,0,0,1,3.11572909355,,,,,2015_Nov_05_1224,K,facesParametric,14,59.5841063742,
./stim/MorphM3_08_orig.jpg,8,,,,,0,8,8,8,,,,,,,,,,,,,,,,,,,1.142578125,-8.818359375,1,0,0,1.07147717476,,,,,2015_Nov_05_1224,K,facesParametric,14,59.5841063742,
./stim/MorphF10_08_orig.jpg,9,,,,,0,9,9,9,,,,,,,,,,,,,,,,,,,1.142578125,-8.818359375,1,0,0,0.803050041199,,,,,2015_Nov_05_1224,K,facesParametric,14,59.5841063742,
./stim/MorphM5_09_orig.jpg,10,,,,,0,10,10,10,,,,,,,,,,,,,,,,,,,1.171875,-8.818359375,1,0,0,1.15537714958,,,,,2015_Nov_05_1224,K,facesParametric,14,59.5841063742,
./stim/MorphM10_00_orig.jpg,11,,,,,0,11,11,11,,,,,,,,,,,,,,,,,,,1.2890625,-8.876953125,0,0,1,1.27114200592,,,,,2015_Nov_05_1224,K,facesParametric,14,59.5841063742,
./stim/MorphF3_08_orig.jpg,12,,,,,0,12,12,12,,,,,,,,,,,,,,,,,,,1.2890625,-8.90625,1,0,0,1.59055805206,,,,,2015_Nov_05_1224,K,facesParametric,14,59.5841063742,
./stim/MorphF8_03_orig.jpg,13,,,,,0,13,13,13,,,,,,,,,,,,,,,,,,,1.23046875,-8.994140625,0,0,1,1.17206788063,,,,,2015_Nov_05_1224,K,facesParametric,14,59.5841063742,
./stim/MorphM5_00_orig.jpg,14,,,,,0,14,14,14,,,,,,,,,,,,,,,,,,,1.23046875,-9.052734375,1,0,0,2.19438290596,,,,,2015_Nov_05_1224,K,facesParametric,14,59.5841063742,
./stim/MorphF4_08_orig.jpg,15,,,,,0,15,15,15,,,,,,,,,,,,,,,,,,,1.23046875,-9.052734375,0,0,1,3.65234994888,,,,,2015_Nov_05_1224,K,facesParametric,14,59.5841063742,
./stim/MorphF2_09_orig.jpg,16,,,,,0,16,16,16,,,,,,,,,,,,,,,,,,,1.23046875,-9.052734375,1,0,0,1.52397084236,,,,,2015_Nov_05_1224,K,facesParametric,14,59.5841063742,
./stim/MorphM6_08_orig.jpg,17,,,,,0,17,17,17,,,,,,,,,,,,,,,,,,,1.23046875,-9.052734375,0,0,1,1.17123603821,,,,,2015_Nov_05_1224,K,facesParametric,14,59.5841063742,
./stim/MorphM7_01_orig.jpg,18,,,,,0,18,18,18,,,,,,,,,,,,,,,,,,,1.201171875,-9.08203125,0,0,1,2.07626819611,,,,,2015_Nov_05_1224,K,facesParametric,14,59.5841063742,
./stim/MorphM8_08_orig.jpg,19,,,,,0,19,19,19,,,,,,,,,,,,,,,,,,,1.201171875,-9.08203125,1,0,0,1.32168722153,,,,,2015_Nov_05_1224,K,facesParametric,14,59.5841063742,
./stim/MorphF10_07_orig.jpg,20,,,,,0,20,20,20,,,,,,,,,,,,,,,,,,,1.201171875,-9.08203125,1,0,0,1.60578894615,,,,,2015_Nov_05_1224,K,facesParametric,14,59.5841063742,
./stim/MorphM1_08_orig.jpg,21,,,,,0,21,21,21,,,,,,,,,,,,,,,,,,,1.171875,-9.111328125,0,0,1,2.0595510006,,,,,2015_Nov_05_1224,K,facesParametric,14,59.5841063742,
./stim/MorphM2_08_orig.jpg,22,,,,,0,22,22,22,,,,,,,,,,,,,,,,,,,1.7578125,-8.84765625,0,0,1,3.33367085457,,,,,2015_Nov_05_1224,K,facesParametric,14,59.5841063742,
./stim/MorphF6_09_orig.jpg,23,,,,,0,23,23,23,,,,,,,,,,,,,,,,,,,1.640625,-8.876953125,1,0,0,1.12190389633,,,,,2015_Nov_05_1224,K,facesParametric,14,59.5841063742,
./stim/MorphF9_04_orig.jpg,24,,,,,0,24,24,24,,,,,,,,,,,,,,,,,,,1.58203125,-8.935546875,0,0,1,1.38867712021,,,,,2015_Nov_05_1224,K,facesParametric,14,59.5841063742,
./stim/MorphM10_02_orig.jpg,25,,,,,0,25,25,25,,,,,,,,,,,,,,,,,,,1.58203125,-8.935546875,0,0,1,0.936699867249,,,,,2015_Nov_05_1224,K,facesParametric,14,59.5841063742,
./stim/MorphM2_03_orig.jpg,26,,,,,0,26,26,26,,,,,,,,,,,,,,,,,,,1.5234375,-9.0234375,0,0,1,2.10995197296,,,,,2015_Nov_05_1224,K,facesParametric,14,59.5841063742,
./stim/MorphF1_07_orig.jpg,27,,,,,0,27,27,27,,,,,,,,,,,,,,,,,,,1.494140625,-9.08203125,0,0,1,1.79200601578,,,,,2015_Nov_05_1224,K,facesParametric,14,59.5841063742,
./stim/MorphF7_07_orig.jpg,28,,,,,0,28,28,28,,,,,,,,,,,,,,,,,,,1.494140625,-9.08203125,1,0,0,2.02646183968,,,,,2015_Nov_05_1224,K,facesParametric,14,59.5841063742,
./stim/MorphF2_08_orig.jpg,29,,,,,0,29,29,29,,,,,,,,,,,,,,,,,,,1.494140625,-9.08203125,1,0,0,2.44556307793,,,,,2015_Nov_05_1224,K,facesParametric,14,59.5841063742,
./stim/MorphM10_01_orig.jpg,30,,,,,0,30,30,30,,,,,,,,,,,,,,,,,,,1.40625,-9.169921875,0,0,1,0.837162017822,,,,,2015_Nov_05_1224,K,facesParametric,14,59.5841063742,
./stim/MorphM4_04_orig.jpg,31,,,,,0,31,31,31,,,,,,,,,,,,,,,,,,,1.40625,-9.169921875,0,0,1,2.81259608269,,,,,2015_Nov_05_1224,K,facesParametric,14,59.5841063742,
./stim/MorphF9_03_orig.jpg,32,,,,,0,32,32,32,,,,,,,,,,,,,,,,,,,1.58203125,-8.994140625,0,0,1,2.84699082375,,,,,2015_Nov_05_1224,K,facesParametric,14,59.5841063742,
./stim/MorphF1_05_orig.jpg,33,,,,,0,33,33,33,,,,,,,,,,,,,,,,,,,1.552734375,-9.0234375,0,0,1,3.06588315964,,,,,2015_Nov_05_1224,K,facesParametric,14,59.5841063742,
./stim/MorphM1_05_orig.jpg,34,,,,,0,34,34,34,,,,,,,,,,,,,,,,,,,1.5234375,-9.08203125,0,0,1,3.49993991852,,,,,2015_Nov_05_1224,K,facesParametric,14,59.5841063742,
./stim/MorphF3_01_orig.jpg,35,,,,,0,35,35,35,,,,,,,,,,,,,,,,,,,1.5234375,-9.111328125,0,0,1,1.03777003288,,,,,2015_Nov_05_1224,K,facesParametric,14,59.5841063742,
./stim/MorphF4_10_orig.jpg,36,,,,,0,36,36,36,,,,,,,,,,,,,,,,,,,1.5234375,-9.111328125,1,0,0,1.02118992805,,,,,2015_Nov_05_1224,K,facesParametric,14,59.5841063742,
./stim/MorphM1_04_orig.jpg,37,,,,,0,37,37,37,,,,,,,,,,,,,,,,,,,1.494140625,-9.140625,0,0,1,2.37752795219,,,,,2015_Nov_05_1224,K,facesParametric,14,59.5841063742,
./stim/MorphM4_00_orig.jpg,38,,,,,0,38,38,38,,,,,,,,,,,,,,,,,,,1.494140625,-9.140625,0,0,1,1.65664196014,,,,,2015_Nov_05_1224,K,facesParametric,14,59.5841063742,
./stim/MorphF9_05_orig.jpg,39,,,,,0,39,39,39,,,,,,,,,,,,,,,,,,,1.435546875,-9.111328125,0,0,1,1.32242512703,,,,,2015_Nov_05_1224,K,facesParametric,14,59.5841063742,
./stim/MorphF2_07_orig.jpg,40,,,,,0,40,40,40,,,,,,,,,,,,,,,,,,,1.46484375,-9.08203125,1,0,0,0.870222091675,,,,,2015_Nov_05_1224,K,facesParametric,14,59.5841063742,
./stim/MorphM3_10_orig.jpg,41,,,,,0,41,41,41,,,,,,,,,,,,,,,,,,,1.728515625,-8.7890625,1,0,0,2.27803087234,,,,,2015_Nov_05_1224,K,facesParametric,14,59.5841063742,
./stim/MorphM1_00_orig.jpg,42,,,,,0,42,42,42,,,,,,,,,,,,,,,,,,,2.6953125,-8.7890625,0,0,1,2.29478788376,,,,,2015_Nov_05_1224,K,facesParametric,14,59.5841063742,
./stim/MorphF10_10_orig.jpg,43,,,,,0,43,43,43,,,,,,,,,,,,,,,,,,,2.6953125,-8.7890625,1,0,0,1.30621600151,,,,,2015_Nov_05_1224,K,facesParametric,14,59.5841063742,
./stim/MorphF9_00_orig.jpg,44,,,,,0,44,44,44,,,,,,,,,,,,,,,,,,,2.6953125,-8.7890625,0,0,1,0.8196849823,,,,,2015_Nov_05_1224,K,facesParametric,14,59.5841063742,
./stim/MorphM9_09_orig.jpg,45,,,,,0,45,45,45,,,,,,,,,,,,,,,,,,,2.63671875,-8.73046875,1,0,0,0.937638044357,,,,,2015_Nov_05_1224,K,facesParametric,14,59.5841063742,
./stim/MorphM10_08_orig.jpg,46,,,,,0,46,46,46,,,,,,,,,,,,,,,,,,,2.63671875,-8.73046875,1,0,0,0.920448064804,,,,,2015_Nov_05_1224,K,facesParametric,14,59.5841063742,
./stim/MorphF8_02_orig.jpg,47,,,,,0,47,47,47,,,,,,,,,,,,,,,,,,,2.63671875,-8.73046875,0,0,1,0.953685045242,,,,,2015_Nov_05_1224,K,facesParametric,14,59.5841063742,
./stim/MorphM9_00_orig.jpg,48,,,,,0,48,48,48,,,,,,,,,,,,,,,,,,,2.63671875,-8.671875,0,0,1,0.853884220123,,,,,2015_Nov_05_1224,K,facesParametric,14,59.5841063742,
./stim/MorphF4_09_orig.jpg,49,,,,,0,49,49,49,,,,,,,,,,,,,,,,,,,2.63671875,-8.642578125,1,0,0,1.42298698425,,,,,2015_Nov_05_1224,K,facesParametric,14,59.5841063742,
./stim/MorphF9_07_orig.jpg,50,,,,,0,50,50,50,,,,,,,,,,,,,,,,,,,2.63671875,-8.642578125,0,0,1,1.92638206482,,,,,2015_Nov_05_1224,K,facesParametric,14,59.5841063742,
./stim/MorphM9_07_orig.jpg,51,,,,,0,51,51,51,,,,,,,,,,,,,,,,,,,2.63671875,-8.642578125,1,0,0,2.34507703781,,,,,2015_Nov_05_1224,K,facesParametric,14,59.5841063742,
./stim/MorphM3_04_orig.jpg,52,,,,,0,52,52,52,,,,,,,,,,,,,,,,,,,2.607421875,-8.642578125,1,0,0,3.80343604088,,,,,2015_Nov_05_1224,K,facesParametric,14,59.5841063742,
./stim/MorphM9_08_orig.jpg,53,,,,,0,53,53,53,,,,,,,,,,,,,,,,,,,2.607421875,-8.642578125,1,0,0,0.91910982132,,,,,2015_Nov_05_1224,K,facesParametric,14,59.5841063742,
./stim/MorphM6_09_orig.jpg,54,,,,,0,54,54,54,,,,,,,,,,,,,,,,,,,2.607421875,-8.642578125,1,0,0,2.14422392845,,,,,2015_Nov_05_1224,K,facesParametric,14,59.5841063742,
./stim/MorphF2_04_orig.jpg,55,,,,,0,55,55,55,,,,,,,,,,,,,,,,,,,2.607421875,-8.642578125,0,0,1,2.04361605644,,,,,2015_Nov_05_1224,K,facesParametric,14,59.5841063742,
./stim/MorphF8_04_orig.jpg,56,,,,,0,56,56,56,,,,,,,,,,,,,,,,,,,2.578125,-8.642578125,0,0,1,1.12085485458,,,,,2015_Nov_05_1224,K,facesParametric,14,59.5841063742,
./stim/MorphM5_07_orig.jpg,57,,,,,0,57,57,57,,,,,,,,,,,,,,,,,,,2.548828125,-8.61328125,1,0,0,1.54049682617,,,,,2015_Nov_05_1224,K,facesParametric,14,59.5841063742,
./stim/MorphF5_10_orig.jpg,58,,,,,0,58,58,58,,,,,,,,,,,,,,,,,,,2.548828125,-8.61328125,1,0,0,2.46121191978,,,,,2015_Nov_05_1224,K,facesParametric,14,59.5841063742,
./stim/MorphF1_00_orig.jpg,59,,,,,0,59,59,59,,,,,,,,,,,,,,,,,,,2.548828125,-8.61328125,0,0,1,1.07058405876,,,,,2015_Nov_05_1224,K,facesParametric,14,59.5841063742,
./stim/MorphM10_10_orig.jpg,60,,,,,0,60,60,60,,,,,,,,,,,,,,,,,,,2.548828125,-8.61328125,1,0,0,0.733681201935,,,,,2015_Nov_05_1224,K,facesParametric,14,59.5841063742,
./stim/MorphF3_05_orig.jpg,61,,,,,0,61,61,61,,,,,,,,,,,,,,,,,,,2.578125,-8.61328125,0,0,1,2.4290971756,,,,,2015_Nov_05_1224,K,facesParametric,14,59.5841063742,
./stim/MorphF4_02_orig.jpg,62,,,,,0,62,62,62,,,,,,,,,,,,,,,,,,,3.076171875,-9.4921875,0,0,1,1.07062292099,,,,,2015_Nov_05_1224,K,facesParametric,14,59.5841063742,
./stim/MorphM5_03_orig.jpg,63,,,,,0,63,63,63,,,,,,,,,,,,,,,,,,,2.9296875,-9.580078125,0,0,1,3.18047189713,,,,,2015_Nov_05_1224,K,facesParametric,14,59.5841063742,
./stim/MorphF8_08_orig.jpg,64,,,,,0,64,64,64,,,,,,,,,,,,,,,,,,,2.6953125,-9.873046875,1,0,0,5.02656912804,,,,,2015_Nov_05_1224,K,facesParametric,14,59.5841063742,
./stim/MorphM2_02_orig.jpg,65,,,,,0,65,65,65,,,,,,,,,,,,,,,,,,,2.666015625,-9.873046875,0,0,1,0.803190946579,,,,,2015_Nov_05_1224,K,facesParametric,14,59.5841063742,
./stim/MorphF2_02_orig.jpg,66,,,,,0,66,66,66,,,,,,,,,,,,,,,,,,,2.666015625,-9.873046875,0,0,1,1.94314599037,,,,,2015_Nov_05_1224,K,facesParametric,14,59.5841063742,
./stim/MorphF4_04_orig.jpg,67,,,,,0,67,67,67,,,,,,,,,,,,,,,,,,,2.63671875,-9.873046875,0,0,1,1.33930587769,,,,,2015_Nov_05_1224,K,facesParametric,14,59.5841063742,
./stim/MorphF1_03_orig.jpg,68,,,,,0,68,68,68,,,,,,,,,,,,,,,,,,,2.63671875,-10.048828125,0,0,1,1.23897910118,,,,,2015_Nov_05_1224,K,facesParametric,14,59.5841063742,
./stim/MorphF9_10_orig.jpg,69,,,,,0,69,69,69,,,,,,,,,,,,,,,,,,,2.63671875,-10.048828125,1,0,0,1.15538597107,,,,,2015_Nov_05_1224,K,facesParametric,14,59.5841063742,
./stim/MorphM8_04_orig.jpg,70,,,,,0,70,70,70,,,,,,,,,,,,,,,,,,,2.666015625,-10.078125,0,0,1,1.6233279705,,,,,2015_Nov_05_1224,K,facesParametric,14,59.5841063742,
./stim/MorphF6_08_orig.jpg,71,,,,,0,71,71,71,,,,,,,,,,,,,,,,,,,2.666015625,-10.078125,1,0,0,1.37078213692,,,,,2015_Nov_05_1224,K,facesParametric,14,59.5841063742,
./stim/MorphF8_10_orig.jpg,72,,,,,0,72,72,72,,,,,,,,,,,,,,,,,,,2.666015625,-10.078125,1,0,0,1.44086384773,,,,,2015_Nov_05_1224,K,facesParametric,14,59.5841063742,
./stim/MorphF2_10_orig.jpg,73,,,,,0,73,73,73,,,,,,,,,,,,,,,,,,,2.666015625,-10.078125,1,0,0,1.52338218689,,,,,2015_Nov_05_1224,K,facesParametric,14,59.5841063742,
./stim/MorphM3_06_orig.jpg,74,,,,,0,74,74,74,,,,,,,,,,,,,,,,,,,2.666015625,-10.078125,1,0,0,1.4741768837,,,,,2015_Nov_05_1224,K,facesParametric,14,59.5841063742,
./stim/MorphM9_03_orig.jpg,75,,,,,0,75,75,75,,,,,,,,,,,,,,,,,,,2.666015625,-10.078125,0,0,1,1.18628001213,,,,,2015_Nov_05_1224,K,facesParametric,14,59.5841063742,
./stim/MorphM5_04_orig.jpg,76,,,,,0,76,76,76,,,,,,,,,,,,,,,,,,,2.6953125,-10.107421875,0,0,1,3.50126886368,,,,,2015_Nov_05_1224,K,facesParametric,14,59.5841063742,
./stim/MorphF8_01_orig.jpg,77,,,,,0,77,77,77,,,,,,,,,,,,,,,,,,,2.724609375,-10.107421875,0,0,1,1.62415313721,,,,,2015_Nov_05_1224,K,facesParametric,14,59.5841063742,
./stim/MorphF7_03_orig.jpg,78,,,,,0,78,78,78,,,,,,,,,,,,,,,,,,,2.75390625,-10.13671875,0,0,1,1.13827586174,,,,,2015_Nov_05_1224,K,facesParametric,14,59.5841063742,
./stim/MorphM8_07_orig.jpg,79,,,,,0,79,79,79,,,,,,,,,,,,,,,,,,,2.75390625,-10.13671875,0,0,1,1.62455296516,,,,,2015_Nov_05_1224,K,facesParametric,14,59.5841063742,
./stim/MorphF2_03_orig.jpg,80,,,,,0,80,80,80,,,,,,,,,,,,,,,,,,,2.75390625,-10.13671875,0,0,1,1.63977384567,,,,,2015_Nov_05_1224,K,facesParametric,14,59.5841063742,
./stim/MorphM9_06_orig.jpg,81,,,,,0,81,81,81,,,,,,,,,,,,,,,,,,,2.841796875,-10.224609375,0,0,1,1.03756999969,,,,,2015_Nov_05_1224,K,facesParametric,14,59.5841063742,
./stim/MorphM2_06_orig.jpg,82,,,,,0,82,82,82,,,,,,,,,,,,,,,,,,,2.841796875,-10.224609375,0,0,1,3.7023859024,,,,,2015_Nov_05_1224,K,facesParametric,14,59.5841063742,
./stim/MorphM6_04_orig.jpg,83,,,,,0,83,83,83,,,,,,,,,,,,,,,,,,,2.900390625,-10.25390625,0,0,1,0.76980304718,,,,,2015_Nov_05_1224,K,facesParametric,14,59.5841063742,
./stim/MorphM9_05_orig.jpg,84,,,,,0,84,84,84,,,,,,,,,,,,,,,,,,,2.900390625,-10.25390625,0,0,1,1.13820099831,,,,,2015_Nov_05_1224,K,facesParametric,14,59.5841063742,
./stim/MorphM7_09_orig.jpg,85,,,,,0,85,85,85,,,,,,,,,,,,,,,,,,,2.98828125,-10.1953125,1,0,0,1.06987404823,,,,,2015_Nov_05_1224,K,facesParametric,14,59.5841063742,
./stim/MorphM5_05_orig.jpg,86,,,,,0,86,86,86,,,,,,,,,,,,,,,,,,,2.98828125,-10.1953125,0,0,1,1.05418491364,,,,,2015_Nov_05_1224,K,facesParametric,14,59.5841063742,
./stim/MorphF5_02_orig.jpg,87,,,,,0,87,87,87,,,,,,,,,,,,,,,,,,,3.017578125,-10.166015625,0,0,1,1.45542311668,,,,,2015_Nov_05_1224,K,facesParametric,14,59.5841063742,
./stim/MorphM4_07_orig.jpg,88,,,,,0,88,88,88,,,,,,,,,,,,,,,,,,,2.98828125,-10.224609375,1,0,0,1.52390789986,,,,,2015_Nov_05_1224,K,facesParametric,14,59.5841063742,
./stim/MorphM9_10_orig.jpg,89,,,,,0,89,89,89,,,,,,,,,,,,,,,,,,,3.046875,-10.25390625,1,0,0,1.32173490524,,,,,2015_Nov_05_1224,K,facesParametric,14,59.5841063742,
./stim/MorphM3_01_orig.jpg,90,,,,,0,90,90,90,,,,,,,,,,,,,,,,,,,3.046875,-10.25390625,1,0,0,1.5209851265,,,,,2015_Nov_05_1224,K,facesParametric,14,59.5841063742,
./stim/MorphF8_07_orig.jpg,91,,,,,0,91,91,91,,,,,,,,,,,,,,,,,,,3.046875,-10.341796875,1,0,0,1.45688605309,,,,,2015_Nov_05_1224,K,facesParametric,14,59.5841063742,
./stim/MorphF5_01_orig.jpg,92,,,,,0,92,92,92,,,,,,,,,,,,,,,,,,,3.046875,-10.37109375,0,0,1,1.02135109901,,,,,2015_Nov_05_1224,K,facesParametric,14,59.5841063742,
./stim/MorphM4_05_orig.jpg,93,,,,,0,93,93,93,,,,,,,,,,,,,,,,,,,3.046875,-10.37109375,1,0,0,2.16088080406,,,,,2015_Nov_05_1224,K,facesParametric,14,59.5841063742,
./stim/MorphM6_07_orig.jpg,94,,,,,0,94,94,94,,,,,,,,,,,,,,,,,,,3.046875,-10.37109375,0,0,1,1.15412211418,,,,,2015_Nov_05_1224,K,facesParametric,14,59.5841063742,
./stim/MorphM4_09_orig.jpg,95,,,,,0,95,95,95,,,,,,,,,,,,,,,,,,,3.046875,-10.37109375,1,0,0,1.48877596855,,,,,2015_Nov_05_1224,K,facesParametric,14,59.5841063742,
./stim/MorphM7_10_orig.jpg,96,,,,,0,96,96,96,,,,,,,,,,,,,,,,,,,3.046875,-10.37109375,0,0,1,1.64078688622,,,,,2015_Nov_05_1224,K,facesParametric,14,59.5841063742,
./stim/MorphF2_00_orig.jpg,97,,,,,0,97,97,97,,,,,,,,,,,,,,,,,,,3.046875,-10.37109375,0,0,1,1.13848018646,,,,,2015_Nov_05_1224,K,facesParametric,14,59.5841063742,
./stim/MorphM3_03_orig.jpg,98,,,,,0,98,98,98,,,,,,,,,,,,,,,,,,,3.046875,-10.37109375,1,0,0,0.970370769501,,,,,2015_Nov_05_1224,K,facesParametric,14,59.5841063742,
./stim/MorphF5_07_orig.jpg,99,,,,,0,99,99,99,,,,,,,,,,,,,,,,,,,3.017578125,-10.341796875,0,0,1,0.887031078339,,,,,2015_Nov_05_1224,K,facesParametric,14,59.5841063742,
./stim/MorphF7_06_orig.jpg,100,,,,,0,100,100,100,,,,,,,,,,,,,,,,,,,3.046875,-10.37109375,1,0,0,3.11617088318,,,,,2015_Nov_05_1224,K,facesParametric,14,59.5841063742,
./stim/MorphF1_10_orig.jpg,101,,,,,0,101,101,101,,,,,,,,,,,,,,,,,,,3.076171875,-10.341796875,1,0,0,3.81995010376,,,,,2015_Nov_05_1224,K,facesParametric,14,59.5841063742,
./stim/MorphM10_04_orig.jpg,102,,,,,0,102,102,102,,,,,,,,,,,,,,,,,,,2.98828125,-10.3125,1,0,0,1.78995203972,,,,,2015_Nov_05_1224,K,facesParametric,14,59.5841063742,
./stim/MorphF10_05_orig.jpg,103,,,,,0,103,103,103,,,,,,,,,,,,,,,,,,,3.10546875,-10.37109375,1,0,0,3.3509311676,,,,,2015_Nov_05_1224,K,facesParametric,14,59.5841063742,
./stim/MorphF5_09_orig.jpg,104,,,,,0,104,104,104,,,,,,,,,,,,,,,,,,,3.10546875,-10.37109375,1,0,0,1.15507102013,,,,,2015_Nov_05_1224,K,facesParametric,14,59.5841063742,
./stim/MorphM2_05_orig.jpg,105,,,,,0,105,105,105,,,,,,,,,,,,,,,,,,,3.193359375,-10.37109375,0,0,1,1.59039711952,,,,,2015_Nov_05_1224,K,facesParametric,14,59.5841063742,
./stim/MorphM8_06_orig.jpg,106,,,,,0,106,106,106,,,,,,,,,,,,,,,,,,,3.22265625,-10.37109375,0,0,1,1.27272796631,,,,,2015_Nov_05_1224,K,facesParametric,14,59.5841063742,
./stim/MorphF9_09_orig.jpg,107,,,,,0,107,107,107,,,,,,,,,,,,,,,,,,,3.33984375,-10.4296875,1,0,0,1.32100892067,,,,,2015_Nov_05_1224,K,facesParametric,14,59.5841063742,
./stim/MorphM1_10_orig.jpg,108,,,,,0,108,108,108,,,,,,,,,,,,,,,,,,,3.33984375,-10.4296875,0,0,1,2.44417476654,,,,,2015_Nov_05_1224,K,facesParametric,14,59.5841063742,
./stim/MorphF3_07_orig.jpg,109,,,,,0,109,109,109,,,,,,,,,,,,,,,,,,,3.33984375,-10.4296875,0,0,1,1.9760529995,,,,,2015_Nov_05_1224,K,facesParametric,14,59.5841063742,
./stim/MorphM1_01_orig.jpg,110,,,,,0,110,110,110,,,,,,,,,,,,,,,,,,,3.33984375,-10.4296875,0,0,1,1.87380695343,,,,,2015_Nov_05_1224,K,facesParametric,14,59.5841063742,
./stim/MorphM2_04_orig.jpg,111,,,,,0,111,111,111,,,,,,,,,,,,,,,,,,,3.33984375,-10.4296875,0,0,1,0.786873102188,,,,,2015_Nov_05_1224,K,facesParametric,14,59.5841063742,
./stim/MorphF5_03_orig.jpg,112,,,,,0,112,112,112,,,,,,,,,,,,,,,,,,,3.33984375,-10.4296875,0,0,1,1.95933008194,,,,,2015_Nov_05_1224,K,facesParametric,14,59.5841063742,
./stim/MorphF1_09_orig.jpg,113,,,,,0,113,113,113,,,,,,,,,,,,,,,,,,,3.33984375,-10.4296875,1,0,0,3.83675789833,,,,,2015_Nov_05_1224,K,facesParametric,14,59.5841063742,
./stim/MorphM4_03_orig.jpg,114,,,,,0,114,114,114,,,,,,,,,,,,,,,,,,,3.369140625,-10.400390625,0,0,1,1.06976985931,,,,,2015_Nov_05_1224,K,facesParametric,14,59.5841063742,
./stim/MorphM1_07_orig.jpg,115,,,,,0,115,115,115,,,,,,,,,,,,,,,,,,,3.45703125,-10.4296875,0,0,1,1.57210588455,,,,,2015_Nov_05_1224,K,facesParametric,14,59.5841063742,
./stim/MorphM8_01_orig.jpg,116,,,,,0,116,116,116,,,,,,,,,,,,,,,,,,,3.427734375,-10.546875,0,0,1,0.885839223862,,,,,2015_Nov_05_1224,K,facesParametric,14,59.5841063742,
./stim/MorphM4_02_orig.jpg,117,,,,,0,117,117,117,,,,,,,,,,,,,,,,,,,3.486328125,-10.546875,0,0,1,0.98597407341,,,,,2015_Nov_05_1224,K,facesParametric,14,59.5841063742,
./stim/MorphF5_06_orig.jpg,118,,,,,0,118,118,118,,,,,,,,,,,,,,,,,,,3.515625,-10.48828125,0,0,1,5.42900300026,,,,,2015_Nov_05_1224,K,facesParametric,14,59.5841063742,
./stim/MorphF9_02_orig.jpg,119,,,,,0,119,119,119,,,,,,,,,,,,,,,,,,,3.515625,-10.48828125,0,0,1,0.903458118439,,,,,2015_Nov_05_1224,K,facesParametric,14,59.5841063742,
./stim/MorphM1_09_orig.jpg,120,,,,,0,120,120,120,,,,,,,,,,,,,,,,,,,3.515625,-10.576171875,0,0,1,0.918760061264,,,,,2015_Nov_05_1224,K,facesParametric,14,59.5841063742,
./stim/MorphF1_06_orig.jpg,121,,,,,0,121,121,121,,,,,,,,,,,,,,,,,,,3.515625,-10.6640625,0,0,1,3.03158187866,,,,,2015_Nov_05_1224,K,facesParametric,14,59.5841063742,
./stim/MorphM5_08_orig.jpg,122,,,,,0,122,122,122,,,,,,,,,,,,,,,,,,,3.486328125,-10.693359375,1,0,0,1.27185702324,,,,,2015_Nov_05_1224,K,facesParametric,14,59.5841063742,
./stim/MorphF9_01_orig.jpg,123,,,,,0,123,123,123,,,,,,,,,,,,,,,,,,,3.45703125,-10.72265625,0,0,1,3.40095496178,,,,,2015_Nov_05_1224,K,facesParametric,14,59.5841063742,
./stim/MorphM6_00_orig.jpg,124,,,,,0,124,124,124,,,,,,,,,,,,,,,,,,,3.486328125,-10.751953125,0,0,1,2.36140704155,,,,,2015_Nov_05_1224,K,facesParametric,14,59.5841063742,
./stim/MorphM1_03_orig.jpg,125,,,,,0,125,125,125,,,,,,,,,,,,,,,,,,,3.45703125,-10.810546875,0,0,1,1.9603729248,,,,,2015_Nov_05_1224,K,facesParametric,14,59.5841063742,
./stim/MorphM7_02_orig.jpg,126,,,,,0,126,126,126,,,,,,,,,,,,,,,,,,,3.486328125,-10.8984375,1,0,0,6.86778783798,,,,,2015_Nov_05_1224,K,facesParametric,14,59.5841063742,
./stim/MorphM8_05_orig.jpg,127,,,,,0,127,127,127,,,,,,,,,,,,,,,,,,,3.486328125,-11.103515625,0,0,1,1.45647788048,,,,,2015_Nov_05_1224,K,facesParametric,14,59.5841063742,
./stim/MorphF3_02_orig.jpg,128,,,,,0,128,128,128,,,,,,,,,,,,,,,,,,,3.57421875,-11.455078125,0,0,1,1.38966202736,,,,,2015_Nov_05_1224,K,facesParametric,14,59.5841063742,
./stim/MorphF7_09_orig.jpg,129,,,,,0,129,129,129,,,,,,,,,,,,,,,,,,,3.75,-11.630859375,1,0,0,11.2601969242,,,,,2015_Nov_05_1224,K,facesParametric,14,59.5841063742,
./stim/MorphM4_08_orig.jpg,130,,,,,0,130,130,130,,,,,,,,,,,,,,,,,,,3.75,-11.630859375,1,0,0,0.903739213943,,,,,2015_Nov_05_1224,K,facesParametric,14,59.5841063742,
./stim/MorphM5_10_orig.jpg,131,,,,,0,131,131,131,,,,,,,,,,,,,,,,,,,3.720703125,-11.806640625,1,0,0,1.10354113579,,,,,2015_Nov_05_1224,K,facesParametric,14,59.5841063742,
./stim/MorphF8_00_orig.jpg,132,,,,,0,132,132,132,,,,,,,,,,,,,,,,,,,3.720703125,-11.8359375,0,0,1,1.0209710598,,,,,2015_Nov_05_1224,K,facesParametric,14,59.5841063742,
./stim/MorphF4_03_orig.jpg,133,,,,,0,133,133,133,,,,,,,,,,,,,,,,,,,3.720703125,-11.66015625,0,0,1,0.717526912689,,,,,2015_Nov_05_1224,K,facesParametric,14,59.5841063742,
./stim/MorphF5_00_orig.jpg,134,,,,,0,134,134,134,,,,,,,,,,,,,,,,,,,3.720703125,-11.71875,0,0,1,1.02111411095,,,,,2015_Nov_05_1224,K,facesParametric,14,59.5841063742,
./stim/MorphF10_04_orig.jpg,135,,,,,0,135,135,135,,,,,,,,,,,,,,,,,,,3.779296875,-11.748046875,0,0,1,2.99732208252,,,,,2015_Nov_05_1224,K,facesParametric,14,59.5841063742,
./stim/MorphF6_01_orig.jpg,136,,,,,0,136,136,136,,,,,,,,,,,,,,,,,,,3.80859375,-11.77734375,0,0,1,1.23827409744,,,,,2015_Nov_05_1224,K,facesParametric,14,59.5841063742,
./stim/MorphM8_00_orig.jpg,137,,,,,0,137,137,137,,,,,,,,,,,,,,,,,,,3.80859375,-11.77734375,0,0,1,1.97646808624,,,,,2015_Nov_05_1224,K,facesParametric,14,59.5841063742,
./stim/MorphM7_03_orig.jpg,138,,,,,0,138,138,138,,,,,,,,,,,,,,,,,,,3.837890625,-11.77734375,1,0,0,1.50700902939,,,,,2015_Nov_05_1224,K,facesParametric,14,59.5841063742,
./stim/MorphM6_05_orig.jpg,139,,,,,0,139,139,139,,,,,,,,,,,,,,,,,,,3.837890625,-11.77734375,0,0,1,0.987215042114,,,,,2015_Nov_05_1224,K,facesParametric,14,59.5841063742,
./stim/MorphF4_07_orig.jpg,140,,,,,0,140,140,140,,,,,,,,,,,,,,,,,,,3.896484375,-11.8359375,0,0,1,2.26133394241,,,,,2015_Nov_05_1224,K,facesParametric,14,59.5841063742,
./stim/MorphM8_03_orig.jpg,141,,,,,0,141,141,141,,,,,,,,,,,,,,,,,,,3.8671875,-11.865234375,0,0,1,1.15513396263,,,,,2015_Nov_05_1224,K,facesParametric,14,59.5841063742,
./stim/MorphM10_06_orig.jpg,142,,,,,0,142,142,142,,,,,,,,,,,,,,,,,,,3.8671875,-11.865234375,1,0,0,1.33928489685,,,,,2015_Nov_05_1224,K,facesParametric,14,59.5841063742,
./stim/MorphF3_00_orig.jpg,143,,,,,0,143,143,143,,,,,,,,,,,,,,,,,,,3.80859375,-11.865234375,0,0,1,0.904173135757,,,,,2015_Nov_05_1224,K,facesParametric,14,59.5841063742,
./stim/MorphM2_09_orig.jpg,144,,,,,0,144,144,144,,,,,,,,,,,,,,,,,,,3.80859375,-11.865234375,0,0,1,4.2891459465,,,,,2015_Nov_05_1224,K,facesParametric,14,59.5841063742,
./stim/MorphF8_09_orig.jpg,145,,,,,0,145,145,145,,,,,,,,,,,,,,,,,,,3.8671875,-11.89453125,0,0,1,0.836549043655,,,,,2015_Nov_05_1224,K,facesParametric,14,59.5841063742,
./stim/MorphM7_00_orig.jpg,146,,,,,0,146,146,146,,,,,,,,,,,,,,,,,,,4.189453125,-10.1953125,0,0,1,2.34354400635,,,,,2015_Nov_05_1224,K,facesParametric,14,59.5841063742,
./stim/MorphF7_05_orig.jpg,147,,,,,0,147,147,147,,,,,,,,,,,,,,,,,,,3.984375,-10.341796875,0,0,1,6.68601799011,,,,,2015_Nov_05_1224,K,facesParametric,14,59.5841063742,
./stim/MorphF3_10_orig.jpg,148,,,,,0,148,148,148,,,,,,,,,,,,,,,,,,,3.92578125,-10.576171875,0,0,1,4.52335095406,,,,,2015_Nov_05_1224,K,facesParametric,14,59.5841063742,
./stim/MorphF10_06_orig.jpg,149,,,,,0,149,149,149,,,,,,,,,,,,,,,,,,,3.92578125,-10.6640625,0,0,1,2.04338884354,,,,,2015_Nov_05_1224,K,facesParametric,14,59.5841063742,
./stim/MorphF2_01_orig.jpg,150,,,,,0,150,150,150,,,,,,,,,,,,,,,,,,,3.896484375,-10.95703125,0,0,1,0.903730154037,,,,,2015_Nov_05_1224,K,facesParametric,14,59.5841063742,
./stim/MorphM2_07_orig.jpg,151,,,,,0,151,151,151,,,,,,,,,,,,,,,,,,,3.896484375,-10.95703125,0,0,1,1.40683197975,,,,,2015_Nov_05_1224,K,facesParametric,14,59.5841063742,
./stim/MorphF7_00_orig.jpg,152,,,,,0,152,152,152,,,,,,,,,,,,,,,,,,,3.837890625,-11.07421875,0,0,1,0.970185995102,,,,,2015_Nov_05_1224,K,facesParametric,14,59.5841063742,
./stim/MorphM7_05_orig.jpg,153,,,,,0,153,153,153,,,,,,,,,,,,,,,,,,,3.837890625,-11.162109375,1,0,0,2.02588105202,,,,,2015_Nov_05_1224,K,facesParametric,14,59.5841063742,
./stim/MorphF3_06_orig.jpg,154,,,,,0,154,154,154,,,,,,,,,,,,,,,,,,,3.837890625,-11.162109375,0,0,1,1.07019901276,,,,,2015_Nov_05_1224,K,facesParametric,14,59.5841063742,
./stim/MorphM3_09_orig.jpg,155,,,,,0,155,155,155,,,,,,,,,,,,,,,,,,,3.837890625,-11.30859375,1,0,0,0.986359834671,,,,,2015_Nov_05_1224,K,facesParametric,14,59.5841063742,
./stim/MorphF2_06_orig.jpg,156,,,,,0,156,156,156,,,,,,,,,,,,,,,,,,,3.837890625,-11.484375,0,0,1,1.17180800438,,,,,2015_Nov_05_1224,K,facesParametric,14,59.5841063742,
./stim/MorphF1_01_orig.jpg,157,,,,,0,157,157,157,,,,,,,,,,,,,,,,,,,3.837890625,-11.396484375,0,0,1,0.870380878448,,,,,2015_Nov_05_1224,K,facesParametric,14,59.5841063742,
./stim/MorphF10_09_orig.jpg,158,,,,,0,158,158,158,,,,,,,,,,,,,,,,,,,3.837890625,-11.54296875,1,0,0,1.10462594032,,,,,2015_Nov_05_1224,K,facesParametric,14,59.5841063742,
./stim/MorphM5_02_orig.jpg,159,,,,,0,159,159,159,,,,,,,,,,,,,,,,,,,3.984375,-11.54296875,1,0,0,0.902801036835,,,,,2015_Nov_05_1224,K,facesParametric,14,59.5841063742,
./stim/MorphF7_08_orig.jpg,160,,,,,0,160,160,160,,,,,,,,,,,,,,,,,,,4.013671875,-11.455078125,1,0,0,6.01543092728,,,,,2015_Nov_05_1224,K,facesParametric,14,59.5841063742,
./stim/MorphM7_07_orig.jpg,161,,,,,0,161,161,161,,,,,,,,,,,,,,,,,,,4.013671875,-11.455078125,1,0,0,0.987725973129,,,,,2015_Nov_05_1224,K,facesParametric,14,59.5841063742,
./stim/MorphF1_04_orig.jpg,162,,,,,0,162,162,162,,,,,,,,,,,,,,,,,,,4.04296875,-11.484375,0,0,1,1.47388887405,,,,,2015_Nov_05_1224,K,facesParametric,14,59.5841063742,
./stim/MorphF7_10_orig.jpg,163,,,,,0,163,163,163,,,,,,,,,,,,,,,,,,,4.04296875,-11.484375,1,0,0,1.42333984375,,,,,2015_Nov_05_1224,K,facesParametric,14,59.5841063742,
./stim/MorphF4_05_orig.jpg,164,,,,,0,164,164,164,,,,,,,,,,,,,,,,,,,4.04296875,-11.484375,0,0,1,1.03778100014,,,,,2015_Nov_05_1224,K,facesParametric,14,59.5841063742,
./stim/MorphF1_02_orig.jpg,165,,,,,0,165,165,165,,,,,,,,,,,,,,,,,,,4.04296875,-11.484375,1,0,0,1.45721101761,,,,,2015_Nov_05_1224,K,facesParametric,14,59.5841063742,
./stim/MorphM8_02_orig.jpg,166,,,,,0,166,166,166,,,,,,,,,,,,,,,,,,,4.072265625,-11.77734375,0,0,1,1.35569214821,,,,,2015_Nov_05_1224,K,facesParametric,14,59.5841063742,
./stim/MorphF7_01_orig.jpg,167,,,,,0,167,167,167,,,,,,,,,,,,,,,,,,,4.04296875,-11.806640625,0,0,1,1.37074708939,,,,,2015_Nov_05_1224,K,facesParametric,14,59.5841063742,
./stim/MorphF10_01_orig.jpg,168,,,,,0,168,168,168,,,,,,,,,,,,,,,,,,,4.1015625,-11.77734375,0,0,1,1.30621910095,,,,,2015_Nov_05_1224,K,facesParametric,14,59.5841063742,
./stim/MorphM10_09_orig.jpg,169,,,,,0,169,169,169,,,,,,,,,,,,,,,,,,,4.423828125,-11.54296875,1,0,0,0.736197948456,,,,,2015_Nov_05_1224,K,facesParametric,14,59.5841063742,
./stim/MorphM3_05_orig.jpg,170,,,,,0,170,170,170,,,,,,,,,,,,,,,,,,,2.080078125,-11.89453125,0,0,1,4.55629110336,,,,,2015_Nov_05_1224,K,facesParametric,14,59.5841063742,
./stim/MorphM7_08_orig.jpg,171,,,,,0,171,171,171,,,,,,,,,,,,,,,,,,,2.05078125,-11.89453125,1,0,0,0.719818115234,,,,,2015_Nov_05_1224,K,facesParametric,14,59.5841063742,
./stim/MorphM6_02_orig.jpg,172,,,,,0,172,172,172,,,,,,,,,,,,,,,,,,,2.021484375,-11.923828125,0,0,1,0.885657072067,,,,,2015_Nov_05_1224,K,facesParametric,14,59.5841063742,
./stim/MorphM3_07_orig.jpg,173,,,,,0,173,173,173,,,,,,,,,,,,,,,,,,,2.34375,-12.0703125,0,0,1,5.63061785698,,,,,2015_Nov_05_1224,K,facesParametric,14,59.5841063742,
./stim/MorphM6_10_orig.jpg,174,,,,,0,174,174,174,,,,,,,,,,,,,,,,,,,2.34375,-12.099609375,0,0,1,2.29472208023,,,,,2015_Nov_05_1224,K,facesParametric,14,59.5841063742,
./stim/MorphM10_03_orig.jpg,175,,,,,0,175,175,175,,,,,,,,,,,,,,,,,,,2.197265625,-12.392578125,0,0,1,4.99134802818,,,,,2015_Nov_05_1224,K,facesParametric,14,59.5841063742,
./stim/MorphF3_03_orig.jpg,176,,,,,0,176,176,176,,,,,,,,,,,,,,,,,,,2.197265625,-12.451171875,0,0,1,1.10492897034,,,,,2015_Nov_05_1224,K,facesParametric,14,59.5841063742,
./stim/MorphF6_02_orig.jpg,177,,,,,0,177,177,177,,,,,,,,,,,,,,,,,,,2.16796875,-12.48046875,0,0,1,2.16065692902,,,,,2015_Nov_05_1224,K,facesParametric,14,59.5841063742,
./stim/MorphF7_02_orig.jpg,178,,,,,0,178,178,178,,,,,,,,,,,,,,,,,,,2.16796875,-12.48046875,0,0,1,2.05992293358,,,,,2015_Nov_05_1224,K,facesParametric,14,59.5841063742,
./stim/MorphM10_07_orig.jpg,179,,,,,0,179,179,179,,,,,,,,,,,,,,,,,,,2.109375,-12.48046875,1,0,0,0.753129959106,,,,,2015_Nov_05_1224,K,facesParametric,14,59.5841063742,
./stim/MorphM7_04_orig.jpg,180,,,,,0,180,180,180,,,,,,,,,,,,,,,,,,,2.080078125,-12.5390625,1,0,0,1.12161016464,,,,,2015_Nov_05_1224,K,facesParametric,14,59.5841063742,
./stim/MorphF6_04_orig.jpg,181,,,,,0,181,181,181,,,,,,,,,,,,,,,,,,,2.05078125,-12.59765625,0,0,1,2.96508193016,,,,,2015_Nov_05_1224,K,facesParametric,14,59.5841063742,
./stim/MorphM6_06_orig.jpg,182,,,,,0,182,182,182,,,,,,,,,,,,,,,,,,,1.9921875,-12.626953125,0,0,1,0.954294204712,,,,,2015_Nov_05_1224,K,facesParametric,14,59.5841063742,
./stim/MorphF3_04_orig.jpg,183,,,,,0,183,183,183,,,,,,,,,,,,,,,,,,,1.9921875,-12.626953125,0,0,1,0.836149930954,,,,,2015_Nov_05_1224,K,facesParametric,14,59.5841063742,
./stim/MorphF2_05_orig.jpg,184,,,,,0,184,184,184,,,,,,,,,,,,,,,,,,,1.962890625,-12.59765625,0,0,1,0.853622913361,,,,,2015_Nov_05_1224,K,facesParametric,14,59.5841063742,
./stim/MorphF6_07_orig.jpg,185,,,,,0,185,185,185,,,,,,,,,,,,,,,,,,,1.93359375,-12.626953125,1,0,0,4.74164104462,,,,,2015_Nov_05_1224,K,facesParametric,14,59.5841063742,
./stim/MorphM6_03_orig.jpg,186,,,,,0,186,186,186,,,,,,,,,,,,,,,,,,,1.962890625,-12.65625,0,0,1,0.76993894577,,,,,2015_Nov_05_1224,K,facesParametric,14,59.5841063742,
./stim/MorphM7_06_orig.jpg,187,,,,,0,187,187,187,,,,,,,,,,,,,,,,,,,1.93359375,-12.685546875,1,0,0,1.25379395485,,,,,2015_Nov_05_1224,K,facesParametric,14,59.5841063742,
./stim/MorphF6_03_orig.jpg,188,,,,,0,188,188,188,,,,,,,,,,,,,,,,,,,1.904296875,-12.744140625,0,0,1,1.79197001457,,,,,2015_Nov_05_1224,K,facesParametric,14,59.5841063742,
./stim/MorphF4_01_orig.jpg,189,,,,,0,189,189,189,,,,,,,,,,,,,,,,,,,1.904296875,-12.744140625,0,0,1,0.753099918365,,,,,2015_Nov_05_1224,K,facesParametric,14,59.5841063742,
./stim/MorphF7_04_orig.jpg,190,,,,,0,190,190,190,,,,,,,,,,,,,,,,,,,1.875,-12.7734375,0,0,1,1.72284293175,,,,,2015_Nov_05_1224,K,facesParametric,14,59.5841063742,
./stim/MorphM2_00_orig.jpg,191,,,,,0,191,191,191,,,,,,,,,,,,,,,,,,,1.904296875,-12.744140625,0,0,1,0.769674062729,,,,,2015_Nov_05_1224,K,facesParametric,14,59.5841063742,
./stim/MorphM4_10_orig.jpg,192,,,,,0,192,192,192,,,,,,,,,,,,,,,,,,,1.875,-12.71484375,1,0,0,1.03770112991,,,,,2015_Nov_05_1224,K,facesParametric,14,59.5841063742,
./stim/MorphM3_02_orig.jpg,193,,,,,0,193,193,193,,,,,,,,,,,,,,,,,,,1.875,-12.71484375,0,0,1,1.59100580215,,,,,2015_Nov_05_1224,K,facesParametric,14,59.5841063742,
./stim/MorphM10_05_orig.jpg,194,,,,,0,194,194,194,,,,,,,,,,,,,,,,,,,1.875,-12.71484375,1,0,0,1.44104409218,,,,,2015_Nov_05_1224,K,facesParametric,14,59.5841063742,
./stim/MorphM3_00_orig.jpg,195,,,,,0,195,195,195,,,,,,,,,,,,,,,,,,,1.875,-12.685546875,0,0,1,1.03674888611,,,,,2015_Nov_05_1224,K,facesParametric,14,59.5841063742,
./stim/MorphM8_09_orig.jpg,196,,,,,0,196,196,196,,,,,,,,,,,,,,,,,,,1.845703125,-12.65625,1,0,0,1.47329521179,,,,,2015_Nov_05_1224,K,facesParametric,14,59.5841063742,
./stim/MorphF10_03_orig.jpg,197,,,,,0,197,197,197,,,,,,,,,,,,,,,,,,,1.845703125,-12.65625,0,0,1,1.6732339859,,,,,2015_Nov_05_1224,K,facesParametric,14,59.5841063742,
./stim/MorphM9_04_orig.jpg,198,,,,,0,198,198,198,,,,,,,,,,,,,,,,,,,1.845703125,-12.65625,0,0,1,1.5389509201,,,,,2015_Nov_05_1224,K,facesParametric,14,59.5841063742,
./stim/MorphM6_01_orig.jpg,199,,,,,0,199,199,199,,,,,,,,,,,,,,,,,,,1.845703125,-12.65625,0,0,1,1.90936207771,,,,,2015_Nov_05_1224,K,facesParametric,14,59.5841063742,
./stim/MorphM1_02_orig.jpg,200,,,,,0,200,200,200,,,,,,,,,,,,,,,,,,,1.81640625,-12.65625,1,0,0,3.28381514549,,,,,2015_Nov_05_1224,K,facesParametric,14,59.5841063742,
./stim/MorphF6_05_orig.jpg,201,,,,,0,201,201,201,,,,,,,,,,,,,,,,,,,1.7578125,-12.71484375,1,0,0,5.94850993156,,,,,2015_Nov_05_1224,K,facesParametric,14,59.5841063742,
./stim/MorphM9_01_orig.jpg,202,,,,,0,202,202,202,,,,,,,,,,,,,,,,,,,1.7578125,-12.71484375,0,0,1,1.08762097359,,,,,2015_Nov_05_1224,K,facesParametric,14,59.5841063742,
./stim/MorphM4_06_orig.jpg,203,,,,,0,203,203,203,,,,,,,,,,,,,,,,,,,1.728515625,-12.744140625,1,0,0,1.05808496475,,,,,2015_Nov_05_1224,K,facesParametric,14,59.5841063742,
./stim/MorphF5_08_orig.jpg,204,,,,,0,204,204,204,,,,,,,,,,,,,,,,,,,1.728515625,-12.744140625,1,0,0,1.09308695793,,,,,2015_Nov_05_1224,K,facesParametric,14,59.5841063742,
./stim/MorphF6_06_orig.jpg,205,,,,,0,205,205,205,,,,,,,,,,,,,,,,,,,1.728515625,-12.744140625,1,0,0,2.07667803764,,,,,2015_Nov_05_1224,K,facesParametric,14,59.5841063742,
./stim/MorphF10_00_orig.jpg,206,,,,,0,206,206,206,,,,,,,,,,,,,,,,,,,1.69921875,-12.7734375,0,0,1,1.40684008598,,,,,2015_Nov_05_1224,K,facesParametric,14,59.5841063742,
./stim/MorphF3_09_orig.jpg,207,,,,,0,207,207,207,,,,,,,,,,,,,,,,,,,1.69921875,-12.7734375,1,0,0,0.920835971832,,,,,2015_Nov_05_1224,K,facesParametric,14,59.5841063742,
./stim/MorphF6_00_orig.jpg,208,,,,,0,208,208,208,,,,,,,,,,,,,,,,,,,1.669921875,-12.744140625,0,0,1,3.03211903572,,,,,2015_Nov_05_1224,K,facesParametric,14,59.5841063742,
./stim/MorphF5_05_orig.jpg,209,,,,,0,209,209,209,,,,,,,,,,,,,,,,,,,1.69921875,-12.890625,0,0,1,16.1702029705,,,,,2015_Nov_05_1224,K,facesParametric,14,59.5841063742,
./stim/MorphF1_08_orig.jpg,210,,,,,0,210,210,210,,,,,,,,,,,,,,,,,,,1.728515625,-12.861328125,1,0,0,3.35027098656,,,,,2015_Nov_05_1224,K,facesParametric,14,59.5841063742,
./stim/MorphF8_06_orig.jpg,211,,,,,0,211,211,211,,,,,,,,,,,,,,,,,,,1.787109375,-12.65625,0,0,1,3.50195789337,,,,,2015_Nov_05_1224,K,facesParametric,14,59.5841063742,
./stim/MorphF6_10_orig.jpg,212,,,,,0,212,212,212,,,,,,,,,,,,,,,,,,,1.69921875,-12.802734375,1,0,0,3.09752488136,,,,,2015_Nov_05_1224,K,facesParametric,14,59.5841063742,
./stim/MorphF4_00_orig.jpg,213,,,,,0,213,213,213,,,,,,,,,,,,,,,,,,,1.640625,-12.83203125,0,0,1,0.968446016312,,,,,2015_Nov_05_1224,K,facesParametric,14,59.5841063742,
./stim/MorphM9_02_orig.jpg,214,,,,,0,214,214,214,,,,,,,,,,,,,,,,,,,1.611328125,-12.802734375,0,0,1,1.32087206841,,,,,2015_Nov_05_1224,K,facesParametric,14,59.5841063742,
./stim/MorphF8_05_orig.jpg,215,,,,,0,215,215,215,,,,,,,,,,,,,,,,,,,1.2890625,-12.71484375,0,0,1,4.95788002014,,,,,2015_Nov_05_1224,K,facesParametric,14,59.5841063742,
./stim/MorphM2_10_orig.jpg,216,,,,,0,216,216,216,,,,,,,,,,,,,,,,,,,1.23046875,-12.744140625,1,0,0,5.24438214302,,,,,2015_Nov_05_1224,K,facesParametric,14,59.5841063742,
./stim/MorphM4_01_orig.jpg,217,,,,,0,217,217,217,,,,,,,,,,,,,,,,,,,1.142578125,-12.802734375,0,0,1,1.57447195053,,,,,2015_Nov_05_1224,K,facesParametric,14,59.5841063742,
./stim/MorphM2_01_orig.jpg,218,,,,,0,218,218,218,,,,,,,,,,,,,,,,,,,1.11328125,-12.83203125,0,0,1,1.13796591759,,,,,2015_Nov_05_1224,K,facesParametric,14,59.5841063742,
./stim/MorphF10_02_orig.jpg,219,,,,,0,219,219,219,,,,,,,,,,,,,,,,,,,1.11328125,-12.83203125,0,0,1,1.82567405701,,,,,2015_Nov_05_1224,K,facesParametric,14,59.5841063742,
,,,,,,,,,,,,,,,,,,,,,,,,,,,,,,,,,,return,59.012018919,,,2015_Nov_05_1224,K,facesParametric,14,59.5841063742,
./stim/MorphF3_09_orig.jpg,0,,,,,,,,,0,0,0,0,,,,,,,,,,,,,,,-5.361328125,-12.041015625,1,0,0,4.30606794357,,,,,2015_Nov_05_1224,K,facesParametric,14,59.5841063742,
./stim/MorphM8_02_orig.jpg,1,,,,,,,,,0,1,1,1,,,,,,,,,,,,,,,-4.921875,-11.19140625,0,0,1,0.833766937256,,,,,2015_Nov_05_1224,K,facesParametric,14,59.5841063742,
./stim/MorphM1_04_orig.jpg,2,,,,,,,,,0,2,2,2,,,,,,,,,,,,,,,-5.419921875,-10.986328125,0,0,1,1.95949196815,,,,,2015_Nov_05_1224,K,facesParametric,14,59.5841063742,
./stim/MorphF2_03_orig.jpg,3,,,,,,,,,0,3,3,3,,,,,,,,,,,,,,,-5.859375,-1.787109375,0,0,1,3.56861996651,,,,,2015_Nov_05_1224,K,facesParametric,14,59.5841063742,
./stim/MorphM7_08_orig.jpg,4,,,,,,,,,0,4,4,4,,,,,,,,,,,,,,,-5.859375,-1.81640625,1,0,0,0.734493017197,,,,,2015_Nov_05_1224,K,facesParametric,14,59.5841063742,
./stim/MorphF5_05_orig.jpg,5,,,,,,,,,0,5,5,5,,,,,,,,,,,,,,,9.9609375,12.83203125,0,0,1,15.0482168198,,,,,2015_Nov_05_1224,K,facesParametric,14,59.5841063742,
./stim/MorphM8_01_orig.jpg,6,,,,,,,,,0,6,6,6,,,,,,,,,,,,,,,9.990234375,12.3046875,0,0,1,6.73546504974,,,,,2015_Nov_05_1224,K,facesParametric,14,59.5841063742,
./stim/MorphF1_01_orig.jpg,7,,,,,,,,,0,7,7,7,,,,,,,,,,,,,,,9.990234375,12.24609375,0,0,1,1.30682706833,,,,,2015_Nov_05_1224,K,facesParametric,14,59.5841063742,
./stim/MorphM6_06_orig.jpg,8,,,,,,,,,0,8,8,8,,,,,,,,,,,,,,,11.1328125,-4.130859375,0,0,1,0.852833032608,,,,,2015_Nov_05_1224,K,facesParametric,14,59.5841063742,
./stim/MorphM2_04_orig.jpg,9,,,,,,,,,0,9,9,9,,,,,,,,,,,,,,,16.640625,-13.037109375,0,0,1,1.36924505234,,,,,2015_Nov_05_1224,K,facesParametric,14,59.5841063742,
./stim/MorphF7_03_orig.jpg,10,,,,,,,,,0,10,10,10,,,,,,,,,,,,,,,19.306640625,-3.896484375,0,0,1,14.0765688419,,,,,2015_Nov_05_1224,K,facesParametric,14,59.5841063742,
./stim/MorphM5_05_orig.jpg,11,,,,,,,,,0,11,11,11,,,,,,,,,,,,,,,19.951171875,-1.46484375,1,0,0,1.5564699173,,,,,2015_Nov_05_1224,K,facesParametric,14,59.5841063742,
./stim/MorphF8_05_orig.jpg,12,,,,,,,,,0,12,12,12,,,,,,,,,,,,,,,21.9140625,3.896484375,0,0,1,14.9318680763,,,,,2015_Nov_05_1224,K,facesParametric,14,59.5841063742,
./stim/MorphF9_05_orig.jpg,13,,,,,,,,,0,13,13,13,,,,,,,,,,,,,,,22.294921875,3.8671875,0,0,1,1.75740981102,,,,,2015_Nov_05_1224,K,facesParametric,14,59.5841063742,
./stim/MorphM9_00_orig.jpg,14,,,,,,,,,0,14,14,14,,,,,,,,,,,,,,,22.67578125,3.8671875,0,0,1,1.74077391624,,,,,2015_Nov_05_1224,K,facesParametric,14,59.5841063742,
./stim/MorphM7_10_orig.jpg,15,,,,,,,,,0,15,15,15,,,,,,,,,,,,,,,3.251953125,-0.849609375,1,0,0,21.1828701496,,,,,2015_Nov_05_1224,K,facesParametric,14,59.5841063742,
./stim/MorphF3_00_orig.jpg,16,,,,,,,,,0,16,16,16,,,,,,,,,,,,,,,9.462890625,12.59765625,0,0,1,1.03811597824,,,,,2015_Nov_05_1224,K,facesParametric,14,59.5841063742,
./stim/MorphM2_08_orig.jpg,17,,,,,,,,,0,17,17,17,,,,,,,,,,,,,,,10.13671875,12.333984375,1,0,0,1.47362184525,,,,,2015_Nov_05_1224,K,facesParametric,14,59.5841063742,
./stim/MorphM5_08_orig.jpg,18,,,,,,,,,0,18,18,18,,,,,,,,,,,,,,,10.166015625,12.36328125,1,0,0,1.10255503654,,,,,2015_Nov_05_1224,K,facesParametric,14,59.5841063742,
./stim/MorphF7_06_orig.jpg,19,,,,,,,,,0,19,19,19,,,,,,,,,,,,,,,11.044921875,12.333984375,0,0,1,3.18318915367,,,,,2015_Nov_05_1224,K,facesParametric,14,59.5841063742,
./stim/MorphF8_08_orig.jpg,20,,,,,,,,,0,20,20,20,,,,,,,,,,,,,,,11.07421875,12.099609375,0,0,1,0.937602996826,,,,,2015_Nov_05_1224,K,facesParametric,14,59.5841063742,
./stim/MorphM10_08_orig.jpg,21,,,,,,,,,0,21,21,21,,,,,,,,,,,,,,,10.95703125,11.865234375,1,0,0,0.903357982635,,,,,2015_Nov_05_1224,K,facesParametric,14,59.5841063742,
./stim/MorphM5_03_orig.jpg,22,,,,,,,,,0,22,22,22,,,,,,,,,,,,,,,10.986328125,11.8359375,0,0,1,3.71975183487,,,,,2015_Nov_05_1224,K,facesParametric,14,59.5841063742,
./stim/MorphM1_09_orig.jpg,23,,,,,,,,,0,23,23,23,,,,,,,,,,,,,,,10.986328125,11.77734375,1,0,0,2.07653594017,,,,,2015_Nov_05_1224,K,facesParametric,14,59.5841063742,
./stim/MorphF4_05_orig.jpg,24,,,,,,,,,0,24,24,24,,,,,,,,,,,,,,,10.986328125,11.748046875,0,0,1,0.937103033066,,,,,2015_Nov_05_1224,K,facesParametric,14,59.5841063742,
./stim/MorphM7_06_orig.jpg,25,,,,,,,,,0,25,25,25,,,,,,,,,,,,,,,11.015625,11.77734375,1,0,0,3.98639893532,,,,,2015_Nov_05_1224,K,facesParametric,14,59.5841063742,
./stim/MorphF6_06_orig.jpg,26,,,,,,,,,0,26,26,26,,,,,,,,,,,,,,,10.986328125,11.748046875,1,0,0,2.81437683105,,,,,2015_Nov_05_1224,K,facesParametric,14,59.5841063742,
./stim/MorphF5_04_orig.jpg,27,,,,,,,,,0,27,27,27,,,,,,,,,,,,,,,11.015625,11.71875,0,0,1,1.87385416031,,,,,2015_Nov_05_1224,K,facesParametric,14,59.5841063742,
./stim/MorphM4_01_orig.jpg,28,,,,,,,,,0,28,28,28,,,,,,,,,,,,,,,10.95703125,11.572265625,0,0,1,1.33951592445,,,,,2015_Nov_05_1224,K,facesParametric,14,59.5841063742,
./stim/MorphF6_01_orig.jpg,29,,,,,,,,,0,29,29,29,,,,,,,,,,,,,,,11.337890625,11.484375,0,0,1,0.970728874207,,,,,2015_Nov_05_1224,K,facesParametric,14,59.5841063742,
./stim/MorphM9_08_orig.jpg,30,,,,,,,,,0,30,30,30,,,,,,,,,,,,,,,11.19140625,11.396484375,0,0,1,0.702748060226,,,,,2015_Nov_05_1224,K,facesParametric,14,59.5841063742,
./stim/MorphM2_02_orig.jpg,31,,,,,,,,,0,31,31,31,,,,,,,,,,,,,,,10.986328125,11.103515625,0,0,1,0.937579870224,,,,,2015_Nov_05_1224,K,facesParametric,14,59.5841063742,
./stim/MorphF3_04_orig.jpg,32,,,,,,,,,0,32,32,32,,,,,,,,,,,,,,,10.048828125,11.015625,0,0,1,2.66365098953,,,,,2015_Nov_05_1224,K,facesParametric,14,59.5841063742,
./stim/MorphF10_10_orig.jpg,33,,,,,,,,,0,33,33,33,,,,,,,,,,,,,,,10.048828125,11.015625,1,0,0,0.920389890671,,,,,2015_Nov_05_1224,K,facesParametric,14,59.5841063742,
./stim/MorphF8_09_orig.jpg,34,,,,,,,,,0,34,34,34,,,,,,,,,,,,,,,10.01953125,11.015625,1,0,0,1.05371689796,,,,,2015_Nov_05_1224,K,facesParametric,14,59.5841063742,
./stim/MorphF1_03_orig.jpg,35,,,,,,,,,0,35,35,35,,,,,,,,,,,,,,,10.01953125,10.95703125,0,0,1,1.94269490242,,,,,2015_Nov_05_1224,K,facesParametric,14,59.5841063742,
./stim/MorphM5_10_orig.jpg,36,,,,,,,,,0,36,36,36,,,,,,,,,,,,,,,10.01953125,10.869140625,1,0,0,1.08727884293,,,,,2015_Nov_05_1224,K,facesParametric,14,59.5841063742,
./stim/MorphF7_04_orig.jpg,37,,,,,,,,,0,37,37,37,,,,,,,,,,,,,,,11.30859375,10.283203125,0,0,1,14.3092749119,,,,,2015_Nov_05_1224,K,facesParametric,14,59.5841063742,
./stim/MorphF10_04_orig.jpg,38,,,,,,,,,0,38,38,38,,,,,,,,,,,,,,,10.1953125,9.052734375,0,0,1,1.07113409042,,,,,2015_Nov_05_1224,K,facesParametric,14,59.5841063742,
./stim/MorphF3_02_orig.jpg,39,,,,,,,,,0,39,39,39,,,,,,,,,,,,,,,10.13671875,9.111328125,0,0,1,1.60747098923,,,,,2015_Nov_05_1224,K,facesParametric,14,59.5841063742,
./stim/MorphM3_00_orig.jpg,40,,,,,,,,,0,40,40,40,,,,,,,,,,,,,,,9.19921875,9.7265625,0,0,1,2.71402382851,,,,,2015_Nov_05_1224,K,facesParametric,14,59.5841063742,
./stim/MorphM8_09_orig.jpg,41,,,,,,,,,0,41,41,41,,,,,,,,,,,,,,,9.228515625,9.55078125,1,0,0,1.18879890442,,,,,2015_Nov_05_1224,K,facesParametric,14,59.5841063742,
./stim/MorphM1_00_orig.jpg,42,,,,,,,,,0,42,42,42,,,,,,,,,,,,,,,9.287109375,9.4921875,1,0,0,1.40478801727,,,,,2015_Nov_05_1224,K,facesParametric,14,59.5841063742,
./stim/MorphF7_00_orig.jpg,43,,,,,,,,,0,43,43,43,,,,,,,,,,,,,,,9.287109375,9.4921875,0,0,1,0.935517072678,,,,,2015_Nov_05_1224,K,facesParametric,14,59.5841063742,
./stim/MorphF3_01_orig.jpg,44,,,,,,,,,0,44,44,44,,,,,,,,,,,,,,,9.31640625,9.43359375,0,0,1,1.00397896767,,,,,2015_Nov_05_1224,K,facesParametric,14,59.5841063742,
./stim/MorphF8_02_orig.jpg,45,,,,,,,,,0,45,45,45,,,,,,,,,,,,,,,9.31640625,9.43359375,0,0,1,1.47313404083,,,,,2015_Nov_05_1224,K,facesParametric,14,59.5841063742,
./stim/MorphF3_07_orig.jpg,46,,,,,,,,,0,46,46,46,,,,,,,,,,,,,,,9.31640625,9.404296875,1,0,0,1.85885810852,,,,,2015_Nov_05_1224,K,facesParametric,14,59.5841063742,
./stim/MorphF4_02_orig.jpg,47,,,,,,,,,0,47,47,47,,,,,,,,,,,,,,,9.287109375,9.345703125,0,0,1,3.31668901443,,,,,2015_Nov_05_1224,K,facesParametric,14,59.5841063742,
./stim/MorphF6_08_orig.jpg,48,,,,,,,,,0,48,48,48,,,,,,,,,,,,,,,9.287109375,9.345703125,1,0,0,0.836849927902,,,,,2015_Nov_05_1224,K,facesParametric,14,59.5841063742,
./stim/MorphF2_04_orig.jpg,49,,,,,,,,,0,49,49,49,,,,,,,,,,,,,,,9.287109375,9.345703125,0,0,1,1.17137098312,,,,,2015_Nov_05_1224,K,facesParametric,14,59.5841063742,
./stim/MorphF10_09_orig.jpg,50,,,,,,,,,0,50,50,50,,,,,,,,,,,,,,,9.287109375,9.345703125,1,0,0,0.717236995697,,,,,2015_Nov_05_1224,K,facesParametric,14,59.5841063742,
./stim/MorphM4_04_orig.jpg,51,,,,,,,,,0,51,51,51,,,,,,,,,,,,,,,9.31640625,9.287109375,1,0,0,5.3614730835,,,,,2015_Nov_05_1224,K,facesParametric,14,59.5841063742,
./stim/MorphM8_04_orig.jpg,52,,,,,,,,,0,52,52,52,,,,,,,,,,,,,,,9.31640625,9.287109375,0,0,1,1.01911211014,,,,,2015_Nov_05_1224,K,facesParametric,14,59.5841063742,
./stim/MorphF4_08_orig.jpg,53,,,,,,,,,0,53,53,53,,,,,,,,,,,,,,,9.31640625,9.287109375,1,0,0,2.0100338459,,,,,2015_Nov_05_1224,K,facesParametric,14,59.5841063742,
./stim/MorphF8_04_orig.jpg,54,,,,,,,,,0,54,54,54,,,,,,,,,,,,,,,9.31640625,9.287109375,0,0,1,0.887336015701,,,,,2015_Nov_05_1224,K,facesParametric,14,59.5841063742,
./stim/MorphF9_06_orig.jpg,55,,,,,,,,,0,55,55,55,,,,,,,,,,,,,,,9.31640625,9.287109375,0,0,1,2.09367990494,,,,,2015_Nov_05_1224,K,facesParametric,14,59.5841063742,
./stim/MorphM4_02_orig.jpg,56,,,,,,,,,0,56,56,56,,,,,,,,,,,,,,,9.31640625,9.287109375,0,0,1,1.28877496719,,,,,2015_Nov_05_1224,K,facesParametric,14,59.5841063742,
./stim/MorphF2_01_orig.jpg,57,,,,,,,,,0,57,57,57,,,,,,,,,,,,,,,9.31640625,9.287109375,0,0,1,0.819293022156,,,,,2015_Nov_05_1224,K,facesParametric,14,59.5841063742,
./stim/MorphM5_00_orig.jpg,58,,,,,,,,,0,58,58,58,,,,,,,,,,,,,,,9.31640625,9.287109375,1,0,0,2.62984418869,,,,,2015_Nov_05_1224,K,facesParametric,14,59.5841063742,
./stim/MorphF8_06_orig.jpg,59,,,,,,,,,0,59,59,59,,,,,,,,,,,,,,,9.31640625,9.287109375,1,0,0,1.90832304955,,,,,2015_Nov_05_1224,K,facesParametric,14,59.5841063742,
./stim/MorphF7_08_orig.jpg,60,,,,,,,,,0,60,60,60,,,,,,,,,,,,,,,9.31640625,9.287109375,1,0,0,0.970561027527,,,,,2015_Nov_05_1224,K,facesParametric,14,59.5841063742,
./stim/MorphF8_03_orig.jpg,61,,,,,,,,,0,61,61,61,,,,,,,,,,,,,,,9.31640625,9.287109375,0,0,1,1.10482382774,,,,,2015_Nov_05_1224,K,facesParametric,14,59.5841063742,
./stim/MorphM6_03_orig.jpg,62,,,,,,,,,0,62,62,62,,,,,,,,,,,,,,,9.31640625,9.287109375,0,0,1,1.57389092445,,,,,2015_Nov_05_1224,K,facesParametric,14,59.5841063742,
./stim/MorphF1_04_orig.jpg,63,,,,,,,,,0,63,63,63,,,,,,,,,,,,,,,9.31640625,9.287109375,0,0,1,1.08619308472,,,,,2015_Nov_05_1224,K,facesParametric,14,59.5841063742,
./stim/MorphF4_04_orig.jpg,64,,,,,,,,,0,64,64,64,,,,,,,,,,,,,,,9.287109375,9.2578125,0,0,1,2.06045389175,,,,,2015_Nov_05_1224,K,facesParametric,14,59.5841063742,
./stim/MorphF5_00_orig.jpg,65,,,,,,,,,0,65,65,65,,,,,,,,,,,,,,,9.2578125,9.2578125,0,0,1,1.30510210991,,,,,2015_Nov_05_1224,K,facesParametric,14,59.5841063742,
./stim/MorphF6_04_orig.jpg,66,,,,,,,,,0,66,66,66,,,,,,,,,,,,,,,9.052734375,9.228515625,0,0,1,2.41247296333,,,,,2015_Nov_05_1224,K,facesParametric,14,59.5841063742,
./stim/MorphF5_09_orig.jpg,67,,,,,,,,,0,67,67,67,,,,,,,,,,,,,,,9.052734375,9.228515625,1,0,0,3.16440987587,,,,,2015_Nov_05_1224,K,facesParametric,14,59.5841063742,
./stim/MorphF9_02_orig.jpg,68,,,,,,,,,0,68,68,68,,,,,,,,,,,,,,,9.052734375,9.228515625,0,0,1,1.99255299568,,,,,2015_Nov_05_1224,K,facesParametric,14,59.5841063742,
./stim/MorphF7_01_orig.jpg,69,,,,,,,,,0,69,69,69,,,,,,,,,,,,,,,9.052734375,9.228515625,0,0,1,1.40620112419,,,,,2015_Nov_05_1224,K,facesParametric,14,59.5841063742,
./stim/MorphF3_03_orig.jpg,70,,,,,,,,,0,70,70,70,,,,,,,,,,,,,,,9.08203125,9.2578125,0,0,1,1.27246999741,,,,,2015_Nov_05_1224,K,facesParametric,14,59.5841063742,
./stim/MorphM1_05_orig.jpg,71,,,,,,,,,0,71,71,71,,,,,,,,,,,,,,,9.08203125,9.2578125,1,0,0,1.72362709045,,,,,2015_Nov_05_1224,K,facesParametric,14,59.5841063742,
./stim/MorphM2_01_orig.jpg,72,,,,,,,,,0,72,72,72,,,,,,,,,,,,,,,9.08203125,9.2578125,0,0,1,1.28934907913,,,,,2015_Nov_05_1224,K,facesParametric,14,59.5841063742,
./stim/MorphF9_03_orig.jpg,73,,,,,,,,,0,73,73,73,,,,,,,,,,,,,,,9.08203125,9.2578125,0,0,1,0.901730060577,,,,,2015_Nov_05_1224,K,facesParametric,14,59.5841063742,
./stim/MorphM6_02_orig.jpg,74,,,,,,,,,0,74,74,74,,,,,,,,,,,,,,,9.08203125,9.2578125,0,0,1,1.0040678978,,,,,2015_Nov_05_1224,K,facesParametric,14,59.5841063742,
./stim/MorphF6_02_orig.jpg,75,,,,,,,,,0,75,75,75,,,,,,,,,,,,,,,9.0234375,9.2578125,0,0,1,1.27263021469,,,,,2015_Nov_05_1224,K,facesParametric,14,59.5841063742,
./stim/MorphM3_02_orig.jpg,76,,,,,,,,,0,76,76,76,,,,,,,,,,,,,,,9.0234375,9.31640625,1,0,0,4.70602416992,,,,,2015_Nov_05_1224,K,facesParametric,14,59.5841063742,
./stim/MorphF5_02_orig.jpg,77,,,,,,,,,0,77,77,77,,,,,,,,,,,,,,,9.0234375,9.287109375,0,0,1,2.3618221283,,,,,2015_Nov_05_1224,K,facesParametric,14,59.5841063742,
./stim/MorphM3_03_orig.jpg,78,,,,,,,,,0,78,78,78,,,,,,,,,,,,,,,8.96484375,9.169921875,1,0,0,3.98785805702,,,,,2015_Nov_05_1224,K,facesParametric,14,59.5841063742,
./stim/MorphM1_08_orig.jpg,79,,,,,,,,,0,79,79,79,,,,,,,,,,,,,,,8.96484375,9.169921875,1,0,0,0.719230890274,,,,,2015_Nov_05_1224,K,facesParametric,14,59.5841063742,
./stim/MorphM7_07_orig.jpg,80,,,,,,,,,0,80,80,80,,,,,,,,,,,,,,,8.96484375,9.169921875,1,0,0,0.719695091248,,,,,2015_Nov_05_1224,K,facesParametric,14,59.5841063742,
./stim/MorphM3_09_orig.jpg,81,,,,,,,,,0,81,81,81,,,,,,,,,,,,,,,8.96484375,9.169921875,1,0,0,1.07149100304,,,,,2015_Nov_05_1224,K,facesParametric,14,59.5841063742,
./stim/MorphF1_02_orig.jpg,82,,,,,,,,,0,82,82,82,,,,,,,,,,,,,,,8.96484375,9.169921875,0,0,1,0.951558113098,,,,,2015_Nov_05_1224,K,facesParametric,14,59.5841063742,
./stim/MorphM5_06_orig.jpg,83,,,,,,,,,0,83,83,83,,,,,,,,,,,,,,,8.96484375,9.169921875,1,0,0,1.20491790771,,,,,2015_Nov_05_1224,K,facesParametric,14,59.5841063742,
./stim/MorphF1_08_orig.jpg,84,,,,,,,,,0,84,84,84,,,,,,,,,,,,,,,8.96484375,9.140625,1,0,0,1.22188901901,,,,,2015_Nov_05_1224,K,facesParametric,14,59.5841063742,
./stim/MorphM9_01_orig.jpg,85,,,,,,,,,0,85,85,85,,,,,,,,,,,,,,,8.935546875,9.111328125,0,0,1,1.6412961483,,,,,2015_Nov_05_1224,K,facesParametric,14,59.5841063742,
./stim/MorphF2_10_orig.jpg,86,,,,,,,,,0,86,86,86,,,,,,,,,,,,,,,8.935546875,9.052734375,1,0,0,0.970324039459,,,,,2015_Nov_05_1224,K,facesParametric,14,59.5841063742,
./stim/MorphF1_07_orig.jpg,87,,,,,,,,,0,87,87,87,,,,,,,,,,,,,,,8.935546875,9.052734375,1,0,0,1.37199306488,,,,,2015_Nov_05_1224,K,facesParametric,14,59.5841063742,
./stim/MorphF2_05_orig.jpg,88,,,,,,,,,0,88,88,88,,,,,,,,,,,,,,,8.96484375,9.0234375,1,0,0,2.83132004738,,,,,2015_Nov_05_1224,K,facesParametric,14,59.5841063742,
./stim/MorphF9_00_orig.jpg,89,,,,,,,,,0,89,89,89,,,,,,,,,,,,,,,8.994140625,9.08203125,0,0,1,1.92587184906,,,,,2015_Nov_05_1224,K,facesParametric,14,59.5841063742,
./stim/MorphM9_07_orig.jpg,90,,,,,,,,,0,90,90,90,,,,,,,,,,,,,,,8.96484375,9.140625,1,0,0,1.07116699219,,,,,2015_Nov_05_1224,K,facesParametric,14,59.5841063742,
./stim/MorphF2_07_orig.jpg,91,,,,,,,,,0,91,91,91,,,,,,,,,,,,,,,8.96484375,9.140625,1,0,0,1.50729179382,,,,,2015_Nov_05_1224,K,facesParametric,14,59.5841063742,
./stim/MorphF1_06_orig.jpg,92,,,,,,,,,0,92,92,92,,,,,,,,,,,,,,,8.96484375,9.111328125,1,0,0,1.65804219246,,,,,2015_Nov_05_1224,K,facesParametric,14,59.5841063742,
./stim/MorphF10_08_orig.jpg,93,,,,,,,,,0,93,93,93,,,,,,,,,,,,,,,8.96484375,9.111328125,1,0,0,1.20514798164,,,,,2015_Nov_05_1224,K,facesParametric,14,59.5841063742,
./stim/MorphF4_07_orig.jpg,94,,,,,,,,,0,94,94,94,,,,,,,,,,,,,,,9.0234375,9.111328125,1,0,0,1.13634896278,,,,,2015_Nov_05_1224,K,facesParametric,14,59.5841063742,
./stim/MorphF5_01_orig.jpg,95,,,,,,,,,0,95,95,95,,,,,,,,,,,,,,,9.052734375,9.140625,0,0,1,1.67313504219,,,,,2015_Nov_05_1224,K,facesParametric,14,59.5841063742,
./stim/MorphF10_02_orig.jpg,96,,,,,,,,,0,96,96,96,,,,,,,,,,,,,,,9.0234375,9.111328125,0,0,1,1.06896209717,,,,,2015_Nov_05_1224,K,facesParametric,14,59.5841063742,
./stim/MorphM6_10_orig.jpg,97,,,,,,,,,0,97,97,97,,,,,,,,,,,,,,,9.0234375,9.111328125,1,0,0,1.29077005386,,,,,2015_Nov_05_1224,K,facesParametric,14,59.5841063742,
./stim/MorphM8_03_orig.jpg,98,,,,,,,,,0,98,98,98,,,,,,,,,,,,,,,9.052734375,8.90625,0,0,1,3.07914996147,,,,,2015_Nov_05_1224,K,facesParametric,14,59.5841063742,
./stim/MorphM10_09_orig.jpg,99,,,,,,,,,0,99,99,99,,,,,,,,,,,,,,,9.0234375,8.876953125,1,0,0,0.702600955963,,,,,2015_Nov_05_1224,K,facesParametric,14,59.5841063742,
./stim/MorphM5_09_orig.jpg,100,,,,,,,,,0,100,100,100,,,,,,,,,,,,,,,9.0234375,8.876953125,1,0,0,0.752577066422,,,,,2015_Nov_05_1224,K,facesParametric,14,59.5841063742,
./stim/MorphM7_04_orig.jpg,101,,,,,,,,,0,101,101,101,,,,,,,,,,,,,,,9.0234375,8.876953125,1,0,0,1.02111196518,,,,,2015_Nov_05_1224,K,facesParametric,14,59.5841063742,
./stim/MorphM2_00_orig.jpg,102,,,,,,,,,0,102,102,102,,,,,,,,,,,,,,,9.0234375,8.84765625,0,0,1,0.801733970642,,,,,2015_Nov_05_1224,K,facesParametric,14,59.5841063742,
./stim/MorphF10_06_orig.jpg,103,,,,,,,,,0,103,103,103,,,,,,,,,,,,,,,8.96484375,8.818359375,1,0,0,0.885704994202,,,,,2015_Nov_05_1224,K,facesParametric,14,59.5841063742,
./stim/MorphM5_01_orig.jpg,104,,,,,,,,,0,104,104,104,,,,,,,,,,,,,,,8.96484375,8.818359375,1,0,0,1.1863758564,,,,,2015_Nov_05_1224,K,facesParametric,14,59.5841063742,
./stim/MorphM4_09_orig.jpg,105,,,,,,,,,0,105,105,105,,,,,,,,,,,,,,,8.96484375,8.818359375,1,0,0,0.870458841324,,,,,2015_Nov_05_1224,K,facesParametric,14,59.5841063742,
./stim/MorphM10_10_orig.jpg,106,,,,,,,,,0,106,106,106,,,,,,,,,,,,,,,9.052734375,8.935546875,1,0,0,0.702500104904,,,,,2015_Nov_05_1224,K,facesParametric,14,59.5841063742,
./stim/MorphM5_04_orig.jpg,107,,,,,,,,,0,107,107,107,,,,,,,,,,,,,,,9.052734375,8.96484375,1,0,0,1.08943986893,,,,,2015_Nov_05_1224,K,facesParametric,14,59.5841063742,
./stim/MorphM10_02_orig.jpg,108,,,,,,,,,0,108,108,108,,,,,,,,,,,,,,,9.052734375,8.96484375,0,0,1,1.5042321682,,,,,2015_Nov_05_1224,K,facesParametric,14,59.5841063742,
./stim/MorphF2_00_orig.jpg,109,,,,,,,,,0,109,109,109,,,,,,,,,,,,,,,8.994140625,8.96484375,0,0,1,2.0585501194,,,,,2015_Nov_05_1224,K,facesParametric,14,59.5841063742,
./stim/MorphF5_08_orig.jpg,110,,,,,,,,,0,110,110,110,,,,,,,,,,,,,,,8.935546875,8.96484375,1,0,0,1.05480694771,,,,,2015_Nov_05_1224,K,facesParametric,14,59.5841063742,
./stim/MorphF7_05_orig.jpg,111,,,,,,,,,0,111,111,111,,,,,,,,,,,,,,,8.90625,8.759765625,0,0,1,4.13816905022,,,,,2015_Nov_05_1224,K,facesParametric,14,59.5841063742,
./stim/MorphM6_07_orig.jpg,112,,,,,,,,,0,112,112,112,,,,,,,,,,,,,,,8.90625,8.759765625,0,0,1,1.25357103348,,,,,2015_Nov_05_1224,K,facesParametric,14,59.5841063742,
./stim/MorphM10_05_orig.jpg,113,,,,,,,,,0,113,113,113,,,,,,,,,,,,,,,8.7890625,8.642578125,1,0,0,1.07146310806,,,,,2015_Nov_05_1224,K,facesParametric,14,59.5841063742,
./stim/MorphF4_09_orig.jpg,114,,,,,,,,,0,114,114,114,,,,,,,,,,,,,,,8.7890625,8.642578125,1,0,0,0.770155191422,,,,,2015_Nov_05_1224,K,facesParametric,14,59.5841063742,
./stim/MorphM10_01_orig.jpg,115,,,,,,,,,0,115,115,115,,,,,,,,,,,,,,,8.7890625,8.671875,0,0,1,1.97580289841,,,,,2015_Nov_05_1224,K,facesParametric,14,59.5841063742,
./stim/MorphF8_07_orig.jpg,116,,,,,,,,,0,116,116,116,,,,,,,,,,,,,,,8.7890625,8.671875,1,0,0,1.99351096153,,,,,2015_Nov_05_1224,K,facesParametric,14,59.5841063742,
./stim/MorphM10_03_orig.jpg,117,,,,,,,,,0,117,117,117,,,,,,,,,,,,,,,8.759765625,8.701171875,1,0,0,2.52982997894,,,,,2015_Nov_05_1224,K,facesParametric,14,59.5841063742,
./stim/MorphF7_07_orig.jpg,118,,,,,,,,,0,118,118,118,,,,,,,,,,,,,,,8.701171875,8.671875,1,0,0,1.2207660675,,,,,2015_Nov_05_1224,K,facesParametric,14,59.5841063742,
./stim/MorphF5_03_orig.jpg,119,,,,,,,,,0,119,119,119,,,,,,,,,,,,,,,8.701171875,8.671875,0,0,1,1.18566083908,,,,,2015_Nov_05_1224,K,facesParametric,14,59.5841063742,
./stim/MorphF3_08_orig.jpg,120,,,,,,,,,0,120,120,120,,,,,,,,,,,,,,,8.61328125,8.73046875,1,0,0,5.34496998787,,,,,2015_Nov_05_1224,K,facesParametric,14,59.5841063742,
./stim/MorphF10_00_orig.jpg,121,,,,,,,,,0,121,121,121,,,,,,,,,,,,,,,8.642578125,8.73046875,0,0,1,1.75945591927,,,,,2015_Nov_05_1224,K,facesParametric,14,59.5841063742,
./stim/MorphM6_00_orig.jpg,122,,,,,,,,,0,122,122,122,,,,,,,,,,,,,,,8.642578125,8.73046875,0,0,1,1.03437900543,,,,,2015_Nov_05_1224,K,facesParametric,14,59.5841063742,
./stim/MorphF10_01_orig.jpg,123,,,,,,,,,0,123,123,123,,,,,,,,,,,,,,,8.642578125,8.73046875,0,0,1,1.89267301559,,,,,2015_Nov_05_1224,K,facesParametric,14,59.5841063742,
./stim/MorphF1_10_orig.jpg,124,,,,,,,,,0,124,124,124,,,,,,,,,,,,,,,8.61328125,8.759765625,1,0,0,1.23741316795,,,,,2015_Nov_05_1224,K,facesParametric,14,59.5841063742,
./stim/MorphF9_04_orig.jpg,125,,,,,,,,,0,125,125,125,,,,,,,,,,,,,,,8.61328125,8.876953125,0,0,1,2.09370398521,,,,,2015_Nov_05_1224,K,facesParametric,14,59.5841063742,
./stim/MorphF2_06_orig.jpg,126,,,,,,,,,0,126,126,126,,,,,,,,,,,,,,,8.583984375,8.90625,1,0,0,0.919533014297,,,,,2015_Nov_05_1224,K,facesParametric,14,59.5841063742,
./stim/MorphM1_10_orig.jpg,127,,,,,,,,,0,127,127,127,,,,,,,,,,,,,,,8.583984375,8.935546875,1,0,0,2.00994801521,,,,,2015_Nov_05_1224,K,facesParametric,14,59.5841063742,
./stim/MorphF10_07_orig.jpg,128,,,,,,,,,0,128,128,128,,,,,,,,,,,,,,,8.583984375,8.935546875,1,0,0,0.935094118118,,,,,2015_Nov_05_1224,K,facesParametric,14,59.5841063742,
./stim/MorphM8_07_orig.jpg,129,,,,,,,,,0,129,129,129,,,,,,,,,,,,,,,8.61328125,8.96484375,1,0,0,1.74128913879,,,,,2015_Nov_05_1224,K,facesParametric,14,59.5841063742,
./stim/MorphM6_09_orig.jpg,130,,,,,,,,,0,130,130,130,,,,,,,,,,,,,,,8.61328125,8.96484375,1,0,0,4.25599384308,,,,,2015_Nov_05_1224,K,facesParametric,14,59.5841063742,
./stim/MorphM7_01_orig.jpg,131,,,,,,,,,0,131,131,131,,,,,,,,,,,,,,,8.61328125,8.96484375,1,0,0,0.853533029556,,,,,2015_Nov_05_1224,K,facesParametric,14,59.5841063742,
./stim/MorphM9_05_orig.jpg,132,,,,,,,,,0,132,132,132,,,,,,,,,,,,,,,8.583984375,8.994140625,0,0,1,3.30023884773,,,,,2015_Nov_05_1224,K,facesParametric,14,59.5841063742,
./stim/MorphM4_08_orig.jpg,133,,,,,,,,,0,133,133,133,,,,,,,,,,,,,,,8.49609375,8.96484375,1,0,0,0.869225025177,,,,,2015_Nov_05_1224,K,facesParametric,14,59.5841063742,
./stim/MorphF6_10_orig.jpg,134,,,,,,,,,0,134,134,134,,,,,,,,,,,,,,,8.4375,8.96484375,1,0,0,1.07225799561,,,,,2015_Nov_05_1224,K,facesParametric,14,59.5841063742,
./stim/MorphF8_00_orig.jpg,135,,,,,,,,,0,135,135,135,,,,,,,,,,,,,,,8.466796875,8.994140625,0,0,1,1.00176215172,,,,,2015_Nov_05_1224,K,facesParametric,14,59.5841063742,
./stim/MorphM1_07_orig.jpg,136,,,,,,,,,0,136,136,136,,,,,,,,,,,,,,,8.4375,8.96484375,1,0,0,0.987359046936,,,,,2015_Nov_05_1224,K,facesParametric,14,59.5841063742,
./stim/MorphF1_00_orig.jpg,137,,,,,,,,,0,137,137,137,,,,,,,,,,,,,,,8.4375,8.96484375,0,0,1,2.79761600494,,,,,2015_Nov_05_1224,K,facesParametric,14,59.5841063742,
./stim/MorphM3_07_orig.jpg,138,,,,,,,,,0,138,138,138,,,,,,,,,,,,,,,8.4375,8.96484375,1,0,0,0.95396900177,,,,,2015_Nov_05_1224,K,facesParametric,14,59.5841063742,
./stim/MorphF9_08_orig.jpg,139,,,,,,,,,0,139,139,139,,,,,,,,,,,,,,,8.4375,8.994140625,1,0,0,1.42195296288,,,,,2015_Nov_05_1224,K,facesParametric,14,59.5841063742,
./stim/MorphF7_09_orig.jpg,140,,,,,,,,,0,140,140,140,,,,,,,,,,,,,,,8.4375,8.994140625,1,0,0,0.902047872543,,,,,2015_Nov_05_1224,K,facesParametric,14,59.5841063742,
./stim/MorphF4_10_orig.jpg,141,,,,,,,,,0,141,141,141,,,,,,,,,,,,,,,8.466796875,9.0234375,1,0,0,1.32283210754,,,,,2015_Nov_05_1224,K,facesParametric,14,59.5841063742,
./stim/MorphF5_06_orig.jpg,142,,,,,,,,,0,142,142,142,,,,,,,,,,,,,,,8.466796875,9.0234375,1,0,0,1.03793215752,,,,,2015_Nov_05_1224,K,facesParametric,14,59.5841063742,
./stim/MorphM6_04_orig.jpg,143,,,,,,,,,0,143,143,143,,,,,,,,,,,,,,,8.466796875,9.0234375,0,0,1,0.970481157303,,,,,2015_Nov_05_1224,K,facesParametric,14,59.5841063742,
./stim/MorphF7_02_orig.jpg,144,,,,,,,,,0,144,144,144,,,,,,,,,,,,,,,8.408203125,9.0234375,0,0,1,0.987838983536,,,,,2015_Nov_05_1224,K,facesParametric,14,59.5841063742,
./stim/MorphM2_03_orig.jpg,145,,,,,,,,,0,145,145,145,,,,,,,,,,,,,,,8.408203125,9.0234375,0,0,1,0.669219017029,,,,,2015_Nov_05_1224,K,facesParametric,14,59.5841063742,
./stim/MorphM4_05_orig.jpg,146,,,,,,,,,0,146,146,146,,,,,,,,,,,,,,,8.349609375,8.935546875,1,0,0,0.784822225571,,,,,2015_Nov_05_1224,K,facesParametric,14,59.5841063742,
./stim/MorphF9_09_orig.jpg,147,,,,,,,,,0,147,147,147,,,,,,,,,,,,,,,8.37890625,8.96484375,1,0,0,0.901971817017,,,,,2015_Nov_05_1224,K,facesParametric,14,59.5841063742,
./stim/MorphM8_08_orig.jpg,148,,,,,,,,,0,148,148,148,,,,,,,,,,,,,,,8.408203125,8.994140625,1,0,0,1.02108502388,,,,,2015_Nov_05_1224,K,facesParametric,14,59.5841063742,
./stim/MorphF1_05_orig.jpg,149,,,,,,,,,0,149,149,149,,,,,,,,,,,,,,,8.4375,9.0234375,0,0,1,1.49009299278,,,,,2015_Nov_05_1224,K,facesParametric,14,59.5841063742,
./stim/MorphM10_00_orig.jpg,150,,,,,,,,,0,150,150,150,,,,,,,,,,,,,,,8.4375,9.0234375,0,0,1,0.887988090515,,,,,2015_Nov_05_1224,K,facesParametric,14,59.5841063742,
./stim/MorphF4_06_orig.jpg,151,,,,,,,,,0,151,151,151,,,,,,,,,,,,,,,8.49609375,8.935546875,0,0,1,2.39300990105,,,,,2015_Nov_05_1224,K,facesParametric,14,59.5841063742,
./stim/MorphF5_10_orig.jpg,152,,,,,,,,,0,152,152,152,,,,,,,,,,,,,,,8.5546875,8.84765625,1,0,0,1.03699016571,,,,,2015_Nov_05_1224,K,facesParametric,14,59.5841063742,
./stim/MorphM10_06_orig.jpg,153,,,,,,,,,0,153,153,153,,,,,,,,,,,,,,,8.61328125,8.935546875,1,0,0,1.5573091507,,,,,2015_Nov_05_1224,K,facesParametric,14,59.5841063742,
./stim/MorphF7_10_orig.jpg,154,,,,,,,,,0,154,154,154,,,,,,,,,,,,,,,8.61328125,8.935546875,1,0,0,1.27189517021,,,,,2015_Nov_05_1224,K,facesParametric,14,59.5841063742,
./stim/MorphM9_09_orig.jpg,155,,,,,,,,,0,155,155,155,,,,,,,,,,,,,,,8.61328125,8.935546875,1,0,0,2.06075406075,,,,,2015_Nov_05_1224,K,facesParametric,14,59.5841063742,
./stim/MorphM7_02_orig.jpg,156,,,,,,,,,0,156,156,156,,,,,,,,,,,,,,,8.61328125,8.935546875,1,0,0,0.65017914772,,,,,2015_Nov_05_1224,K,facesParametric,14,59.5841063742,
./stim/MorphF4_00_orig.jpg,157,,,,,,,,,0,157,157,157,,,,,,,,,,,,,,,8.642578125,8.818359375,0,0,1,0.786558151245,,,,,2015_Nov_05_1224,K,facesParametric,14,59.5841063742,
./stim/MorphF8_10_orig.jpg,158,,,,,,,,,0,158,158,158,,,,,,,,,,,,,,,8.671875,8.818359375,1,0,0,0.920622825623,,,,,2015_Nov_05_1224,K,facesParametric,14,59.5841063742,
./stim/MorphM5_02_orig.jpg,159,,,,,,,,,0,159,159,159,,,,,,,,,,,,,,,8.671875,8.876953125,1,0,0,0.953559875488,,,,,2015_Nov_05_1224,K,facesParametric,14,59.5841063742,
./stim/MorphM1_03_orig.jpg,160,,,,,,,,,0,160,160,160,,,,,,,,,,,,,,,8.671875,8.90625,1,0,0,1.00200986862,,,,,2015_Nov_05_1224,K,facesParametric,14,59.5841063742,
./stim/MorphM6_08_orig.jpg,161,,,,,,,,,0,161,161,161,,,,,,,,,,,,,,,8.671875,8.90625,0,0,1,5.21042013168,,,,,2015_Nov_05_1224,K,facesParametric,14,59.5841063742,
./stim/MorphM2_05_orig.jpg,162,,,,,,,,,0,162,162,162,,,,,,,,,,,,,,,8.671875,8.90625,0,0,1,0.837597131729,,,,,2015_Nov_05_1224,K,facesParametric,14,59.5841063742,
./stim/MorphF9_07_orig.jpg,163,,,,,,,,,0,163,163,163,,,,,,,,,,,,,,,8.642578125,8.96484375,0,0,1,1.60617089272,,,,,2015_Nov_05_1224,K,facesParametric,14,59.5841063742,
./stim/MorphM4_00_orig.jpg,164,,,,,,,,,0,164,164,164,,,,,,,,,,,,,,,8.61328125,8.994140625,0,0,1,1.05336499214,,,,,2015_Nov_05_1224,K,facesParametric,14,59.5841063742,
./stim/MorphF6_03_orig.jpg,165,,,,,,,,,0,165,165,165,,,,,,,,,,,,,,,8.642578125,8.96484375,0,0,1,1.25436091423,,,,,2015_Nov_05_1224,K,facesParametric,14,59.5841063742,
./stim/MorphF10_05_orig.jpg,166,,,,,,,,,0,166,166,166,,,,,,,,,,,,,,,8.671875,8.994140625,0,0,1,1.85910582542,,,,,2015_Nov_05_1224,K,facesParametric,14,59.5841063742,
./stim/MorphM3_05_orig.jpg,167,,,,,,,,,0,167,167,167,,,,,,,,,,,,,,,8.583984375,8.96484375,0,0,1,2.91497302055,,,,,2015_Nov_05_1224,K,facesParametric,14,59.5841063742,
./stim/MorphM10_04_orig.jpg,168,,,,,,,,,0,168,168,168,,,,,,,,,,,,,,,8.61328125,9.0234375,0,0,1,3.06567287445,,,,,2015_Nov_05_1224,K,facesParametric,14,59.5841063742,
./stim/MorphM2_07_orig.jpg,169,,,,,,,,,0,169,169,169,,,,,,,,,,,,,,,8.61328125,9.0234375,0,0,1,0.851969003677,,,,,2015_Nov_05_1224,K,facesParametric,14,59.5841063742,
./stim/MorphM8_06_orig.jpg,170,,,,,,,,,0,170,170,170,,,,,,,,,,,,,,,8.671875,8.96484375,0,0,1,2.73094105721,,,,,2015_Nov_05_1224,K,facesParametric,14,59.5841063742,
./stim/MorphM6_05_orig.jpg,171,,,,,,,,,0,171,171,171,,,,,,,,,,,,,,,8.671875,8.876953125,0,0,1,0.801823139191,,,,,2015_Nov_05_1224,K,facesParametric,14,59.5841063742,
./stim/MorphM7_09_orig.jpg,172,,,,,,,,,0,172,172,172,,,,,,,,,,,,,,,8.73046875,8.90625,1,0,0,1.18784189224,,,,,2015_Nov_05_1224,K,facesParametric,14,59.5841063742,
./stim/MorphM3_08_orig.jpg,173,,,,,,,,,0,173,173,173,,,,,,,,,,,,,,,8.73046875,8.90625,1,0,0,0.786106109619,,,,,2015_Nov_05_1224,K,facesParametric,14,59.5841063742,
./stim/MorphF4_03_orig.jpg,174,,,,,,,,,0,174,174,174,,,,,,,,,,,,,,,8.642578125,8.84765625,0,0,1,0.970753908157,,,,,2015_Nov_05_1224,K,facesParametric,14,59.5841063742,
./stim/MorphM3_10_orig.jpg,175,,,,,,,,,0,175,175,175,,,,,,,,,,,,,,,8.7890625,8.876953125,1,0,0,0.703091859818,,,,,2015_Nov_05_1224,K,facesParametric,14,59.5841063742,
./stim/MorphF9_10_orig.jpg,176,,,,,,,,,0,176,176,176,,,,,,,,,,,,,,,8.876953125,8.84765625,1,0,0,1.121778965,,,,,2015_Nov_05_1224,K,facesParametric,14,59.5841063742,
./stim/MorphM2_06_orig.jpg,177,,,,,,,,,0,177,177,177,,,,,,,,,,,,,,,8.7890625,9.08203125,0,0,1,2.76271915436,,,,,2015_Nov_05_1224,K,facesParametric,14,59.5841063742,
./stim/MorphM1_01_orig.jpg,178,,,,,,,,,0,178,178,178,,,,,,,,,,,,,,,8.5546875,9.375,1,0,0,1.67435312271,,,,,2015_Nov_05_1224,K,facesParametric,14,59.5841063742,
./stim/MorphM3_01_orig.jpg,179,,,,,,,,,0,179,179,179,,,,,,,,,,,,,,,8.583984375,9.345703125,0,0,1,2.17785811424,,,,,2015_Nov_05_1224,K,facesParametric,14,59.5841063742,
./stim/MorphM10_07_orig.jpg,180,,,,,,,,,0,180,180,180,,,,,,,,,,,,,,,8.61328125,9.31640625,1,0,0,0.684381961823,,,,,2015_Nov_05_1224,K,facesParametric,14,59.5841063742,
./stim/MorphM2_09_orig.jpg,181,,,,,,,,,0,181,181,181,,,,,,,,,,,,,,,8.642578125,9.345703125,1,0,0,1.3060529232,,,,,2015_Nov_05_1224,K,facesParametric,14,59.5841063742,
./stim/MorphF2_09_orig.jpg,182,,,,,,,,,0,182,182,182,,,,,,,,,,,,,,,8.642578125,9.31640625,1,0,0,0.651548147202,,,,,2015_Nov_05_1224,K,facesParametric,14,59.5841063742,
./stim/MorphF5_07_orig.jpg,183,,,,,,,,,0,183,183,183,,,,,,,,,,,,,,,8.642578125,9.287109375,1,0,0,0.837111949921,,,,,2015_Nov_05_1224,K,facesParametric,14,59.5841063742,
./stim/MorphM9_04_orig.jpg,184,,,,,,,,,0,184,184,184,,,,,,,,,,,,,,,8.671875,9.2578125,0,0,1,1.23882603645,,,,,2015_Nov_05_1224,K,facesParametric,14,59.5841063742,
./stim/MorphM4_06_orig.jpg,185,,,,,,,,,0,185,185,185,,,,,,,,,,,,,,,8.701171875,9.111328125,1,0,0,0.78648018837,,,,,2015_Nov_05_1224,K,facesParametric,14,59.5841063742,
./stim/MorphF3_05_orig.jpg,186,,,,,,,,,0,186,186,186,,,,,,,,,,,,,,,8.759765625,8.96484375,1,0,0,3.92004990578,,,,,2015_Nov_05_1224,K,facesParametric,14,59.5841063742,
./stim/MorphM5_07_orig.jpg,187,,,,,,,,,0,187,187,187,,,,,,,,,,,,,,,8.759765625,8.96484375,1,0,0,1.07082104683,,,,,2015_Nov_05_1224,K,facesParametric,14,59.5841063742,
./stim/MorphF8_01_orig.jpg,188,,,,,,,,,0,188,188,188,,,,,,,,,,,,,,,8.759765625,8.96484375,0,0,1,0.90199804306,,,,,2015_Nov_05_1224,K,facesParametric,14,59.5841063742,
./stim/MorphF9_01_orig.jpg,189,,,,,,,,,0,189,189,189,,,,,,,,,,,,,,,8.759765625,8.876953125,0,0,1,0.83690404892,,,,,2015_Nov_05_1224,K,facesParametric,14,59.5841063742,
./stim/MorphF10_03_orig.jpg,190,,,,,,,,,0,190,190,190,,,,,,,,,,,,,,,8.73046875,8.90625,0,0,1,0.98638677597,,,,,2015_Nov_05_1224,K,facesParametric,14,59.5841063742,
./stim/MorphM1_06_orig.jpg,191,,,,,,,,,0,191,191,191,,,,,,,,,,,,,,,8.7890625,8.935546875,0,0,1,5.09185409546,,,,,2015_Nov_05_1224,K,facesParametric,14,59.5841063742,
./stim/MorphF1_09_orig.jpg,192,,,,,,,,,0,192,192,192,,,,,,,,,,,,,,,8.84765625,8.994140625,1,0,0,1.12194609642,,,,,2015_Nov_05_1224,K,facesParametric,14,59.5841063742,
./stim/MorphM3_04_orig.jpg,193,,,,,,,,,0,193,193,193,,,,,,,,,,,,,,,8.818359375,9.0234375,1,0,0,2.32844114304,,,,,2015_Nov_05_1224,K,facesParametric,14,59.5841063742,
./stim/MorphF2_08_orig.jpg,194,,,,,,,,,0,194,194,194,,,,,,,,,,,,,,,8.818359375,9.0234375,1,0,0,0.702474832535,,,,,2015_Nov_05_1224,K,facesParametric,14,59.5841063742,
./stim/MorphM8_05_orig.jpg,195,,,,,,,,,0,195,195,195,,,,,,,,,,,,,,,8.90625,8.994140625,0,0,1,1.80859899521,,,,,2015_Nov_05_1224,K,facesParametric,14,59.5841063742,
./stim/MorphM6_01_orig.jpg,196,,,,,,,,,0,196,196,196,,,,,,,,,,,,,,,8.96484375,9.0234375,0,0,1,1.99317908287,,,,,2015_Nov_05_1224,K,facesParametric,14,59.5841063742,
./stim/MorphM4_10_orig.jpg,197,,,,,,,,,0,197,197,197,,,,,,,,,,,,,,,8.96484375,9.0234375,1,0,0,0.802059173584,,,,,2015_Nov_05_1224,K,facesParametric,14,59.5841063742,
./stim/MorphF6_07_orig.jpg,198,,,,,,,,,0,198,198,198,,,,,,,,,,,,,,,9.052734375,9.140625,1,0,0,2.19280600548,,,,,2015_Nov_05_1224,K,facesParametric,14,59.5841063742,
./stim/MorphM8_10_orig.jpg,199,,,,,,,,,0,199,199,199,,,,,,,,,,,,,,,9.052734375,9.140625,1,0,0,1.33919692039,,,,,2015_Nov_05_1224,K,facesParametric,14,59.5841063742,
./stim/MorphM4_07_orig.jpg,200,,,,,,,,,0,200,200,200,,,,,,,,,,,,,,,9.052734375,9.140625,1,0,0,1.25586819649,,,,,2015_Nov_05_1224,K,facesParametric,14,59.5841063742,
./stim/MorphM9_06_orig.jpg,201,,,,,,,,,0,201,201,201,,,,,,,,,,,,,,,9.08203125,9.111328125,0,0,1,0.870084047318,,,,,2015_Nov_05_1224,K,facesParametric,14,59.5841063742,
./stim/MorphM7_05_orig.jpg,202,,,,,,,,,0,202,202,202,,,,,,,,,,,,,,,9.111328125,9.140625,1,0,0,0.686011075974,,,,,2015_Nov_05_1224,K,facesParametric,14,59.5841063742,
./stim/MorphM1_02_orig.jpg,203,,,,,,,,,0,203,203,203,,,,,,,,,,,,,,,9.404296875,9.08203125,0,0,1,5.20598602295,,,,,2015_Nov_05_1224,K,facesParametric,14,59.5841063742,
./stim/MorphM7_00_orig.jpg,204,,,,,,,,,0,204,204,204,,,,,,,,,,,,,,,9.43359375,9.0234375,1,0,0,1.73947906494,,,,,2015_Nov_05_1224,K,facesParametric,14,59.5841063742,
./stim/MorphF6_05_orig.jpg,205,,,,,,,,,0,205,205,205,,,,,,,,,,,,,,,9.755859375,8.96484375,1,0,0,1.8416030407,,,,,2015_Nov_05_1224,K,facesParametric,14,59.5841063742,
./stim/MorphM9_10_orig.jpg,206,,,,,,,,,0,206,206,206,,,,,,,,,,,,,,,9.78515625,8.84765625,1,0,0,1.60792899132,,,,,2015_Nov_05_1224,K,facesParametric,14,59.5841063742,
./stim/MorphM7_03_orig.jpg,207,,,,,,,,,0,207,207,207,,,,,,,,,,,,,,,9.814453125,8.818359375,1,0,0,0.65119600296,,,,,2015_Nov_05_1224,K,facesParametric,14,59.5841063742,
./stim/MorphM2_10_orig.jpg,208,,,,,,,,,0,208,208,208,,,,,,,,,,,,,,,9.814453125,8.759765625,1,0,0,0.820774078369,,,,,2015_Nov_05_1224,K,facesParametric,14,59.5841063742,
./stim/MorphF3_06_orig.jpg,209,,,,,,,,,0,209,209,209,,,,,,,,,,,,,,,9.78515625,8.759765625,1,0,0,1.74009394646,,,,,2015_Nov_05_1224,K,facesParametric,14,59.5841063742,
./stim/MorphM9_02_orig.jpg,210,,,,,,,,,0,210,210,210,,,,,,,,,,,,,,,9.78515625,8.759765625,0,0,1,2.88131093979,,,,,2015_Nov_05_1224,K,facesParametric,14,59.5841063742,
./stim/MorphF2_02_orig.jpg,211,,,,,,,,,0,211,211,211,,,,,,,,,,,,,,,9.814453125,8.876953125,0,0,1,1.06900501251,,,,,2015_Nov_05_1224,K,facesParametric,14,59.5841063742,
./stim/MorphF4_01_orig.jpg,212,,,,,,,,,0,212,212,212,,,,,,,,,,,,,,,9.78515625,8.759765625,0,0,1,1.1388759613,,,,,2015_Nov_05_1224,K,facesParametric,14,59.5841063742,
./stim/MorphM8_00_orig.jpg,213,,,,,,,,,0,213,213,213,,,,,,,,,,,,,,,9.814453125,8.818359375,0,0,1,2.81450605392,,,,,2015_Nov_05_1224,K,facesParametric,14,59.5841063742,
./stim/MorphM3_06_orig.jpg,214,,,,,,,,,0,214,214,214,,,,,,,,,,,,,,,9.814453125,8.818359375,1,0,0,1.15486311913,,,,,2015_Nov_05_1224,K,facesParametric,14,59.5841063742,
./stim/MorphF6_09_orig.jpg,215,,,,,,,,,0,215,215,215,,,,,,,,,,,,,,,9.638671875,8.759765625,1,0,0,0.818977117538,,,,,2015_Nov_05_1224,K,facesParametric,14,59.5841063742,
./stim/MorphM9_03_orig.jpg,216,,,,,,,,,0,216,216,216,,,,,,,,,,,,,,,9.609375,8.73046875,0,0,1,0.903188943863,,,,,2015_Nov_05_1224,K,facesParametric,14,59.5841063742,
./stim/MorphF6_00_orig.jpg,217,,,,,,,,,0,217,217,217,,,,,,,,,,,,,,,9.697265625,8.84765625,0,0,1,1.27151584625,,,,,2015_Nov_05_1224,K,facesParametric,14,59.5841063742,
./stim/MorphM4_03_orig.jpg,218,,,,,,,,,0,218,218,218,,,,,,,,,,,,,,,9.78515625,8.642578125,1,0,0,5.66345000267,,,,,2015_Nov_05_1224,K,facesParametric,14,59.5841063742,
./stim/MorphF3_10_orig.jpg,219,,,,,,,,,0,219,219,219,,,,,,,,,,,,,,,9.78515625,8.642578125,1,0,0,1.64123916626,,,,,2015_Nov_05_1224,K,facesParametric,14,59.5841063742,
,,,,,,,,,,,,,,,,,,,,,,,,,,,,,,,,,,,,return,1.83310389519,2015_Nov_05_1224,K,facesParametric,14,59.5841063742,
