img,num,basicLoop.thisRepN,basicLoop.thisTrialN,basicLoop.thisN,basicLoop.thisIndex,trials.thisRepN,trials.thisTrialN,trials.thisN,trials.thisIndex,trials2.thisRepN,trials2.thisTrialN,trials2.thisN,trials2.thisIndex,key_resp_2.keys,key_resp_2.rt,basicRating1.response,basicRating1.rt,basicRating2.response,basicRating2.rt,basicRating3.response,basicRating3.rt,basicRating4.response,basicRating4.rt,key_resp_3.keys,key_resp_3.rt,key_resp_4.keys,key_resp_4.rt,mouseResp.x,mouseResp.y,mouseResp.leftButton,mouseResp.midButton,mouseResp.rightButton,mouseResp.time,key_resp_5.keys,key_resp_5.rt,key_resp_7.keys,key_resp_7.rt,date,group,expName,participant,frameRate,
,,,,,,,,,,,,,,return,1.85253500938,,,,,,,,,,,,,,,,,,,,,,,2015_Nov_06_1629,K,facesParametric,15,59.6759180874,
./basicStim/09F_NE_C.jpg,,0,0,0,41,,,,,,,,,,,None,None,None,None,None,None,NTR,1.732,,,,,,,,,,,,,,,2015_Nov_06_1629,K,facesParametric,15,59.6759180874,
./basicStim/34M_AN_O.jpg,,0,1,1,70,,,,,,,,,,,None,None,ANG,2.417,None,None,None,None,,,,,,,,,,,,,,,2015_Nov_06_1629,K,facesParametric,15,59.6759180874,
./basicStim/03F_HA_O.jpg,,0,2,2,17,,,,,,,,,,,HAP,1.213,None,None,None,None,None,None,,,,,,,,,,,,,,,2015_Nov_06_1629,K,facesParametric,15,59.6759180874,
./basicStim/09F_SP_O.jpg,,0,3,3,40,,,,,,,,,,,None,None,None,None,SUP,3.17,None,None,,,,,,,,,,,,,,,2015_Nov_06_1629,K,facesParametric,15,59.6759180874,
./basicStim/09F_AN_O.jpg,,0,4,4,35,,,,,,,,,,,None,None,ANG,1.376,None,None,None,None,,,,,,,,,,,,,,,2015_Nov_06_1629,K,facesParametric,15,59.6759180874,
./basicStim/34M_SA_C.jpg,,0,5,5,74,,,,,,,,,,,SAD,1.162,None,None,None,None,None,None,,,,,,,,,,,,,,,2015_Nov_06_1629,K,facesParametric,15,59.6759180874,
./basicStim/03F_NE_C.jpg,,0,6,6,20,,,,,,,,,,,None,None,None,None,None,None,NTR,1.257,,,,,,,,,,,,,,,2015_Nov_06_1629,K,facesParametric,15,59.6759180874,
./basicStim/06F_DI_O.jpg,,0,7,7,22,,,,,,,,,,,None,None,None,None,DIS,1.539,None,None,,,,,,,,,,,,,,,2015_Nov_06_1629,K,facesParametric,15,59.6759180874,
./basicStim/23M_DI_O.jpg,,0,8,8,50,,,,,,,,,,,None,None,None,None,DIS,1.363,None,None,,,,,,,,,,,,,,,2015_Nov_06_1629,K,facesParametric,15,59.6759180874,
./basicStim/23M_SP_O.jpg,,0,9,9,54,,,,,,,,,,,None,None,None,None,SUP,1.514,None,None,,,,,,,,,,,,,,,2015_Nov_06_1629,K,facesParametric,15,59.6759180874,
./basicStim/07F_FE_O.jpg,,0,10,10,30,,,,,,,,,,,None,None,None,None,SUP,1.58,None,None,,,,,,,,,,,,,,,2015_Nov_06_1629,K,facesParametric,15,59.6759180874,
./basicStim/23M_NE_C.jpg,,0,11,11,55,,,,,,,,,,,None,None,None,None,None,None,NTR,1.072,,,,,,,,,,,,,,,2015_Nov_06_1629,K,facesParametric,15,59.6759180874,
./basicStim/09F_FE_O.jpg,,0,12,12,37,,,,,,,,,,,None,None,None,None,SUP,1.461,None,None,,,,,,,,,,,,,,,2015_Nov_06_1629,K,facesParametric,15,59.6759180874,
./basicStim/36M_SP_O.jpg,,0,13,13,82,,,,,,,,,,,None,None,None,None,SUP,0.726,None,None,,,,,,,,,,,,,,,2015_Nov_06_1629,K,facesParametric,15,59.6759180874,
./basicStim/21M_SA_C.jpg,,0,14,14,46,,,,,,,,,,,None,None,None,None,DIS,7.264,None,None,,,,,,,,,,,,,,,2015_Nov_06_1629,K,facesParametric,15,59.6759180874,
./basicStim/28M_AN_O.jpg,,0,15,15,63,,,,,,,,,,,None,None,ANG,1.935,None,None,None,None,,,,,,,,,,,,,,,2015_Nov_06_1629,K,facesParametric,15,59.6759180874,
./basicStim/02F_FE_O.jpg,,0,16,16,9,,,,,,,,,,,None,None,FEA,2.418,None,None,None,None,,,,,,,,,,,,,,,2015_Nov_06_1629,K,facesParametric,15,59.6759180874,
./basicStim/21M_DI_O.jpg,,0,17,17,43,,,,,,,,,,,None,None,None,None,DIS,0.954,None,None,,,,,,,,,,,,,,,2015_Nov_06_1629,K,facesParametric,15,59.6759180874,
./basicStim/09F_DI_O.jpg,,0,18,18,36,,,,,,,,,,,None,None,None,None,DIS,0.789,None,None,,,,,,,,,,,,,,,2015_Nov_06_1629,K,facesParametric,15,59.6759180874,
./basicStim/02F_NE_C.jpg,,0,19,19,13,,,,,,,,,,,None,None,None,None,None,None,NTR,1.105,,,,,,,,,,,,,,,2015_Nov_06_1629,K,facesParametric,15,59.6759180874,
./basicStim/34M_DI_O.jpg,,0,20,20,71,,,,,,,,,,,None,None,None,None,DIS,1.383,None,None,,,,,,,,,,,,,,,2015_Nov_06_1629,K,facesParametric,15,59.6759180874,
./basicStim/06F_FE_O.jpg,,0,21,21,23,,,,,,,,,,,None,None,FEA,1.485,None,None,None,None,,,,,,,,,,,,,,,2015_Nov_06_1629,K,facesParametric,15,59.6759180874,
./basicStim/23M_HA_O.jpg,,0,22,22,52,,,,,,,,,,,HAP,1.079,None,None,None,None,None,None,,,,,,,,,,,,,,,2015_Nov_06_1629,K,facesParametric,15,59.6759180874,
./basicStim/07F_AN_O.jpg,,0,23,23,28,,,,,,,,,,,None,None,ANG,1.217,None,None,None,None,,,,,,,,,,,,,,,2015_Nov_06_1629,K,facesParametric,15,59.6759180874,
./basicStim/06F_AN_O.jpg,,0,24,24,21,,,,,,,,,,,None,None,ANG,0.715,None,None,None,None,,,,,,,,,,,,,,,2015_Nov_06_1629,K,facesParametric,15,59.6759180874,
./basicStim/03F_SA_C.jpg,,0,25,25,18,,,,,,,,,,,None,None,None,None,None,None,NTR,2.131,,,,,,,,,,,,,,,2015_Nov_06_1629,K,facesParametric,15,59.6759180874,
./basicStim/21M_AN_O.jpg,,0,26,26,42,,,,,,,,,,,None,None,ANG,1.378,None,None,None,None,,,,,,,,,,,,,,,2015_Nov_06_1629,K,facesParametric,15,59.6759180874,
./basicStim/01F_DI_O.jpg,,0,27,27,1,,,,,,,,,,,None,None,None,None,DIS,2.956,None,None,,,,,,,,,,,,,,,2015_Nov_06_1629,K,facesParametric,15,59.6759180874,
./basicStim/06F_SP_O.jpg,,0,28,28,26,,,,,,,,,,,None,None,None,None,SUP,1.645,None,None,,,,,,,,,,,,,,,2015_Nov_06_1629,K,facesParametric,15,59.6759180874,
./basicStim/03F_SP_O.jpg,,0,29,29,19,,,,,,,,,,,None,None,None,None,SUP,0.675,None,None,,,,,,,,,,,,,,,2015_Nov_06_1629,K,facesParametric,15,59.6759180874,
./basicStim/28M_SA_C.jpg,,0,30,30,67,,,,,,,,,,,None,None,None,None,None,None,NTR,4.411,,,,,,,,,,,,,,,2015_Nov_06_1629,K,facesParametric,15,59.6759180874,
./basicStim/36M_FE_O.jpg,,0,31,31,79,,,,,,,,,,,None,None,FEA,5.433,None,None,None,None,,,,,,,,,,,,,,,2015_Nov_06_1629,K,facesParametric,15,59.6759180874,
./basicStim/01F_SA_C.jpg,,0,32,32,4,,,,,,,,,,,SAD,3.243,None,None,None,None,None,None,,,,,,,,,,,,,,,2015_Nov_06_1629,K,facesParametric,15,59.6759180874,
./basicStim/03F_DI_O.jpg,,0,33,33,15,,,,,,,,,,,None,None,None,None,DIS,1.61,None,None,,,,,,,,,,,,,,,2015_Nov_06_1629,K,facesParametric,15,59.6759180874,
./basicStim/34M_HA_O.jpg,,0,34,34,73,,,,,,,,,,,HAP,0.951,None,None,None,None,None,None,,,,,,,,,,,,,,,2015_Nov_06_1629,K,facesParametric,15,59.6759180874,
./basicStim/23M_SA_C.jpg,,0,35,35,53,,,,,,,,,,,SAD,2.912,None,None,None,None,None,None,,,,,,,,,,,,,,,2015_Nov_06_1629,K,facesParametric,15,59.6759180874,
./basicStim/01F_SP_O.jpg,,0,36,36,5,,,,,,,,,,,None,None,None,None,SUP,1.41,None,None,,,,,,,,,,,,,,,2015_Nov_06_1629,K,facesParametric,15,59.6759180874,
./basicStim/21M_FE_O.jpg,,0,37,37,44,,,,,,,,,,,None,None,FEA,1.68,None,None,None,None,,,,,,,,,,,,,,,2015_Nov_06_1629,K,facesParametric,15,59.6759180874,
./basicStim/36M_NE_C.jpg,,0,38,38,83,,,,,,,,,,,None,None,None,None,None,None,NTR,1.204,,,,,,,,,,,,,,,2015_Nov_06_1629,K,facesParametric,15,59.6759180874,
./basicStim/03F_AN_O.jpg,,0,39,39,14,,,,,,,,,,,None,None,ANG,2.268,None,None,None,None,,,,,,,,,,,,,,,2015_Nov_06_1629,K,facesParametric,15,59.6759180874,
./basicStim/28M_DI_O.jpg,,0,40,40,64,,,,,,,,,,,None,None,None,None,DIS,1.441,None,None,,,,,,,,,,,,,,,2015_Nov_06_1629,K,facesParametric,15,59.6759180874,
./basicStim/07F_NE_C.jpg,,0,41,41,34,,,,,,,,,,,None,None,None,None,None,None,NTR,1.465,,,,,,,,,,,,,,,2015_Nov_06_1629,K,facesParametric,15,59.6759180874,
./basicStim/01F_NE_C.jpg,,0,42,42,6,,,,,,,,,,,None,None,None,None,None,None,NTR,0.63,,,,,,,,,,,,,,,2015_Nov_06_1629,K,facesParametric,15,59.6759180874,
./basicStim/24M_HA_O.jpg,,0,43,43,59,,,,,,,,,,,HAP,1.13,None,None,None,None,None,None,,,,,,,,,,,,,,,2015_Nov_06_1629,K,facesParametric,15,59.6759180874,
./basicStim/06F_HA_O.jpg,,0,44,44,24,,,,,,,,,,,HAP,0.642,None,None,None,None,None,None,,,,,,,,,,,,,,,2015_Nov_06_1629,K,facesParametric,15,59.6759180874,
./basicStim/24M_SP_O.jpg,,0,45,45,61,,,,,,,,,,,None,None,None,None,SUP,2.312,None,None,,,,,,,,,,,,,,,2015_Nov_06_1629,K,facesParametric,15,59.6759180874,
./basicStim/07F_DI_O.jpg,,0,46,46,29,,,,,,,,,,,None,None,ANG,8.454,None,None,None,None,,,,,,,,,,,,,,,2015_Nov_06_1629,K,facesParametric,15,59.6759180874,
./basicStim/24M_FE_O.jpg,,0,47,47,58,,,,,,,,,,,None,None,FEA,3.796,None,None,None,None,,,,,,,,,,,,,,,2015_Nov_06_1629,K,facesParametric,15,59.6759180874,
./basicStim/34M_NE_C.jpg,,0,48,48,76,,,,,,,,,,,None,None,None,None,None,None,NTR,1.308,,,,,,,,,,,,,,,2015_Nov_06_1629,K,facesParametric,15,59.6759180874,
./basicStim/02F_AN_O.jpg,,0,49,49,7,,,,,,,,,,,None,None,ANG,1.308,None,None,None,None,,,,,,,,,,,,,,,2015_Nov_06_1629,K,facesParametric,15,59.6759180874,
./basicStim/24M_SA_C.jpg,,0,50,50,60,,,,,,,,,,,SAD,2.255,None,None,None,None,None,None,,,,,,,,,,,,,,,2015_Nov_06_1629,K,facesParametric,15,59.6759180874,
./basicStim/36M_DI_O.jpg,,0,51,51,78,,,,,,,,,,,None,None,None,None,DIS,2.047,None,None,,,,,,,,,,,,,,,2015_Nov_06_1629,K,facesParametric,15,59.6759180874,
./basicStim/36M_AN_O.jpg,,0,52,52,77,,,,,,,,,,,None,None,ANG,1.41,None,None,None,None,,,,,,,,,,,,,,,2015_Nov_06_1629,K,facesParametric,15,59.6759180874,
./basicStim/23M_AN_O.jpg,,0,53,53,49,,,,,,,,,,,None,None,ANG,0.62,None,None,None,None,,,,,,,,,,,,,,,2015_Nov_06_1629,K,facesParametric,15,59.6759180874,
./basicStim/01F_FE_O.jpg,,0,54,54,2,,,,,,,,,,,None,None,None,None,SUP,4.736,None,None,,,,,,,,,,,,,,,2015_Nov_06_1629,K,facesParametric,15,59.6759180874,
./basicStim/23M_FE_O.jpg,,0,55,55,51,,,,,,,,,,,None,None,FEA,6.245,None,None,None,None,,,,,,,,,,,,,,,2015_Nov_06_1629,K,facesParametric,15,59.6759180874,
./basicStim/07F_SP_O.jpg,,0,56,56,33,,,,,,,,,,,None,None,None,None,SUP,2.298,None,None,,,,,,,,,,,,,,,2015_Nov_06_1629,K,facesParametric,15,59.6759180874,
./basicStim/06F_SA_C.jpg,,0,57,57,25,,,,,,,,,,,None,None,None,None,None,None,NTR,2.038,,,,,,,,,,,,,,,2015_Nov_06_1629,K,facesParametric,15,59.6759180874,
./basicStim/28M_HA_O.jpg,,0,58,58,66,,,,,,,,,,,HAP,1.179,None,None,None,None,None,None,,,,,,,,,,,,,,,2015_Nov_06_1629,K,facesParametric,15,59.6759180874,
./basicStim/07F_SA_C.jpg,,0,59,59,32,,,,,,,,,,,SAD,1.109,None,None,None,None,None,None,,,,,,,,,,,,,,,2015_Nov_06_1629,K,facesParametric,15,59.6759180874,
./basicStim/36M_HA_O.jpg,,0,60,60,80,,,,,,,,,,,HAP,1.345,None,None,None,None,None,None,,,,,,,,,,,,,,,2015_Nov_06_1629,K,facesParametric,15,59.6759180874,
./basicStim/24M_DI_O.jpg,,0,61,61,57,,,,,,,,,,,None,None,None,None,None,None,NTR,10.442,,,,,,,,,,,,,,,2015_Nov_06_1629,K,facesParametric,15,59.6759180874,
./basicStim/36M_SA_C.jpg,,0,62,62,81,,,,,,,,,,,SAD,1.143,None,None,None,None,None,None,,,,,,,,,,,,,,,2015_Nov_06_1629,K,facesParametric,15,59.6759180874,
./basicStim/09F_HA_O.jpg,,0,63,63,38,,,,,,,,,,,HAP,1.403,None,None,None,None,None,None,,,,,,,,,,,,,,,2015_Nov_06_1629,K,facesParametric,15,59.6759180874,
./basicStim/34M_FE_O.jpg,,0,64,64,72,,,,,,,,,,,None,None,FEA,3.338,None,None,None,None,,,,,,,,,,,,,,,2015_Nov_06_1629,K,facesParametric,15,59.6759180874,
./basicStim/02F_HA_O.jpg,,0,65,65,10,,,,,,,,,,,HAP,0.992,None,None,None,None,None,None,,,,,,,,,,,,,,,2015_Nov_06_1629,K,facesParametric,15,59.6759180874,
./basicStim/24M_AN_O.jpg,,0,66,66,56,,,,,,,,,,,None,None,ANG,1.384,None,None,None,None,,,,,,,,,,,,,,,2015_Nov_06_1629,K,facesParametric,15,59.6759180874,
./basicStim/06F_NE_C.jpg,,0,67,67,27,,,,,,,,,,,None,None,None,None,None,None,NTR,1.561,,,,,,,,,,,,,,,2015_Nov_06_1629,K,facesParametric,15,59.6759180874,
./basicStim/28M_NE_C.jpg,,0,68,68,69,,,,,,,,,,,None,None,None,None,None,None,NTR,0.609,,,,,,,,,,,,,,,2015_Nov_06_1629,K,facesParametric,15,59.6759180874,
./basicStim/21M_SP_O.jpg,,0,69,69,47,,,,,,,,,,,None,None,None,None,SUP,2.235,None,None,,,,,,,,,,,,,,,2015_Nov_06_1629,K,facesParametric,15,59.6759180874,
./basicStim/02F_SP_O.jpg,,0,70,70,12,,,,,,,,,,,None,None,None,None,SUP,0.88,None,None,,,,,,,,,,,,,,,2015_Nov_06_1629,K,facesParametric,15,59.6759180874,
./basicStim/34M_SP_O.jpg,,0,71,71,75,,,,,,,,,,,None,None,None,None,SUP,0.641,None,None,,,,,,,,,,,,,,,2015_Nov_06_1629,K,facesParametric,15,59.6759180874,
./basicStim/03F_FE_O.jpg,,0,72,72,16,,,,,,,,,,,None,None,None,None,DIS,3.224,None,None,,,,,,,,,,,,,,,2015_Nov_06_1629,K,facesParametric,15,59.6759180874,
./basicStim/21M_NE_C.jpg,,0,73,73,48,,,,,,,,,,,None,None,None,None,None,None,NTR,1.463,,,,,,,,,,,,,,,2015_Nov_06_1629,K,facesParametric,15,59.6759180874,
./basicStim/09F_SA_C.jpg,,0,74,74,39,,,,,,,,,,,SAD,1.297,None,None,None,None,None,None,,,,,,,,,,,,,,,2015_Nov_06_1629,K,facesParametric,15,59.6759180874,
./basicStim/02F_SA_C.jpg,,0,75,75,11,,,,,,,,,,,SAD,0.625,None,None,None,None,None,None,,,,,,,,,,,,,,,2015_Nov_06_1629,K,facesParametric,15,59.6759180874,
./basicStim/07F_HA_O.jpg,,0,76,76,31,,,,,,,,,,,HAP,1.285,None,None,None,None,None,None,,,,,,,,,,,,,,,2015_Nov_06_1629,K,facesParametric,15,59.6759180874,
./basicStim/24M_NE_C.jpg,,0,77,77,62,,,,,,,,,,,None,None,None,None,None,None,NTR,1.363,,,,,,,,,,,,,,,2015_Nov_06_1629,K,facesParametric,15,59.6759180874,
./basicStim/28M_FE_O.jpg,,0,78,78,65,,,,,,,,,,,None,None,FEA,3.075,None,None,None,None,,,,,,,,,,,,,,,2015_Nov_06_1629,K,facesParametric,15,59.6759180874,
./basicStim/01F_HA_O.jpg,,0,79,79,3,,,,,,,,,,,HAP,1.046,None,None,None,None,None,None,,,,,,,,,,,,,,,2015_Nov_06_1629,K,facesParametric,15,59.6759180874,
./basicStim/02F_DI_O.jpg,,0,80,80,8,,,,,,,,,,,None,None,ANG,2.837,None,None,None,None,,,,,,,,,,,,,,,2015_Nov_06_1629,K,facesParametric,15,59.6759180874,
./basicStim/01F_AN_O.jpg,,0,81,81,0,,,,,,,,,,,None,None,ANG,0.615,None,None,None,None,,,,,,,,,,,,,,,2015_Nov_06_1629,K,facesParametric,15,59.6759180874,
./basicStim/28M_SP_O.jpg,,0,82,82,68,,,,,,,,,,,None,None,FEA,2.532,None,None,None,None,,,,,,,,,,,,,,,2015_Nov_06_1629,K,facesParametric,15,59.6759180874,
./basicStim/21M_HA_O.jpg,,0,83,83,45,,,,,,,,,,,HAP,1.078,None,None,None,None,None,None,,,,,,,,,,,,,,,2015_Nov_06_1629,K,facesParametric,15,59.6759180874,
,,,,,,,,,,,,,,,,,,,,,,,,return,1.10740995407,,,,,,,,,,,,,2015_Nov_06_1629,K,facesParametric,15,59.6759180874,
,,,,,,,,,,,,,,return,1.69203281403,,,,,,,,,,,,,,,,,,,,,,,2015_Nov_06_1629,K,facesParametric,15,59.6759180874,
,,,,,,,,,,,,,,,,,,,,,,,,return,22.4077479839,,,,,,,,,,,,,2015_Nov_06_1629,K,facesParametric,15,59.6759180874,
,,,,,,,,,,,,,,,,,,,,,,,,,,return,0.787410020828,,,,,,,,,,,2015_Nov_06_1629,K,facesParametric,15,59.6759180874,
./stim/MorphM10_06_orig.jpg,0,,,,,0,0,0,0,,,,,,,,,,,,,,,,,,,-3.984375,-7.8515625,0,0,1,2.19143915176,,,,,2015_Nov_06_1629,K,facesParametric,15,59.6759180874,
./stim/MorphF9_03_orig.jpg,1,,,,,0,1,1,1,,,,,,,,,,,,,,,,,,,-3.984375,-7.8515625,1,0,0,2.12682104111,,,,,2015_Nov_06_1629,K,facesParametric,15,59.6759180874,
./stim/MorphM4_05_orig.jpg,2,,,,,0,2,2,2,,,,,,,,,,,,,,,,,,,-3.984375,-7.8515625,0,0,1,0.987373113632,,,,,2015_Nov_06_1629,K,facesParametric,15,59.6759180874,
./stim/MorphF3_04_orig.jpg,3,,,,,0,3,3,3,,,,,,,,,,,,,,,,,,,-3.984375,-7.8515625,1,0,0,0.836311101913,,,,,2015_Nov_06_1629,K,facesParametric,15,59.6759180874,
./stim/MorphM6_04_orig.jpg,4,,,,,0,4,4,4,,,,,,,,,,,,,,,,,,,-3.984375,-7.8515625,1,0,0,1.45687294006,,,,,2015_Nov_06_1629,K,facesParametric,15,59.6759180874,
./stim/MorphM10_03_orig.jpg,5,,,,,0,5,5,5,,,,,,,,,,,,,,,,,,,-3.984375,-7.8515625,1,0,0,1.48965501785,,,,,2015_Nov_06_1629,K,facesParametric,15,59.6759180874,
./stim/MorphF4_05_orig.jpg,6,,,,,0,6,6,6,,,,,,,,,,,,,,,,,,,-3.984375,-7.8515625,1,0,0,1.22223496437,,,,,2015_Nov_06_1629,K,facesParametric,15,59.6759180874,
./stim/MorphF1_06_orig.jpg,7,,,,,0,7,7,7,,,,,,,,,,,,,,,,,,,-3.984375,-7.8515625,1,0,0,2.06024098396,,,,,2015_Nov_06_1629,K,facesParametric,15,59.6759180874,
./stim/MorphF10_08_orig.jpg,8,,,,,0,8,8,8,,,,,,,,,,,,,,,,,,,-3.984375,-7.8515625,0,0,1,0.735175132751,,,,,2015_Nov_06_1629,K,facesParametric,15,59.6759180874,
./stim/MorphF6_00_orig.jpg,9,,,,,0,9,9,9,,,,,,,,,,,,,,,,,,,-3.984375,-7.8515625,1,0,0,1.45686006546,,,,,2015_Nov_06_1629,K,facesParametric,15,59.6759180874,
./stim/MorphM4_06_orig.jpg,10,,,,,0,10,10,10,,,,,,,,,,,,,,,,,,,-3.984375,-7.8515625,0,0,1,1.07094502449,,,,,2015_Nov_06_1629,K,facesParametric,15,59.6759180874,
./stim/MorphM7_06_orig.jpg,11,,,,,0,11,11,11,,,,,,,,,,,,,,,,,,,-3.984375,-7.8515625,0,0,1,1.13625693321,,,,,2015_Nov_06_1629,K,facesParametric,15,59.6759180874,
./stim/MorphM1_02_orig.jpg,12,,,,,0,12,12,12,,,,,,,,,,,,,,,,,,,-3.984375,-7.8515625,1,0,0,0.753103971481,,,,,2015_Nov_06_1629,K,facesParametric,15,59.6759180874,
./stim/MorphM9_04_orig.jpg,13,,,,,0,13,13,13,,,,,,,,,,,,,,,,,,,-3.984375,-7.8515625,0,0,1,1.75832819939,,,,,2015_Nov_06_1629,K,facesParametric,15,59.6759180874,
./stim/MorphM1_06_orig.jpg,14,,,,,0,14,14,14,,,,,,,,,,,,,,,,,,,-3.984375,-7.8515625,1,0,0,1.94326496124,,,,,2015_Nov_06_1629,K,facesParametric,15,59.6759180874,
./stim/MorphF1_09_orig.jpg,15,,,,,0,15,15,15,,,,,,,,,,,,,,,,,,,-3.984375,-7.8515625,0,0,1,1.054459095,,,,,2015_Nov_06_1629,K,facesParametric,15,59.6759180874,
./stim/MorphM8_07_orig.jpg,16,,,,,0,16,16,16,,,,,,,,,,,,,,,,,,,-3.984375,-7.8515625,0,0,1,0.852747917175,,,,,2015_Nov_06_1629,K,facesParametric,15,59.6759180874,
./stim/MorphF10_03_orig.jpg,17,,,,,0,17,17,17,,,,,,,,,,,,,,,,,,,-3.984375,-7.8515625,1,0,0,0.86834692955,,,,,2015_Nov_06_1629,K,facesParametric,15,59.6759180874,
./stim/MorphM10_04_orig.jpg,18,,,,,0,18,18,18,,,,,,,,,,,,,,,,,,,-3.984375,-7.8515625,0,0,1,5.15927791595,,,,,2015_Nov_06_1629,K,facesParametric,15,59.6759180874,
./stim/MorphF8_03_orig.jpg,19,,,,,0,19,19,19,,,,,,,,,,,,,,,,,,,-3.984375,-7.8515625,1,0,0,1.03789997101,,,,,2015_Nov_06_1629,K,facesParametric,15,59.6759180874,
./stim/MorphM1_04_orig.jpg,20,,,,,0,20,20,20,,,,,,,,,,,,,,,,,,,-3.984375,-7.8515625,1,0,0,1.59104990959,,,,,2015_Nov_06_1629,K,facesParametric,15,59.6759180874,
./stim/MorphM10_05_orig.jpg,21,,,,,0,21,21,21,,,,,,,,,,,,,,,,,,,-3.984375,-7.8515625,0,0,1,0.786483764648,,,,,2015_Nov_06_1629,K,facesParametric,15,59.6759180874,
./stim/MorphF10_09_orig.jpg,22,,,,,0,22,22,22,,,,,,,,,,,,,,,,,,,-3.984375,-7.8515625,0,0,1,0.770299911499,,,,,2015_Nov_06_1629,K,facesParametric,15,59.6759180874,
./stim/MorphF9_02_orig.jpg,23,,,,,0,23,23,23,,,,,,,,,,,,,,,,,,,-3.984375,-7.8515625,1,0,0,1.77228999138,,,,,2015_Nov_06_1629,K,facesParametric,15,59.6759180874,
./stim/MorphM5_04_orig.jpg,24,,,,,0,24,24,24,,,,,,,,,,,,,,,,,,,-3.984375,-7.8515625,0,0,1,1.48863387108,,,,,2015_Nov_06_1629,K,facesParametric,15,59.6759180874,
./stim/MorphM2_02_orig.jpg,25,,,,,0,25,25,25,,,,,,,,,,,,,,,,,,,-3.984375,-7.8515625,1,0,0,1.7069029808,,,,,2015_Nov_06_1629,K,facesParametric,15,59.6759180874,
./stim/MorphF5_07_orig.jpg,26,,,,,0,26,26,26,,,,,,,,,,,,,,,,,,,-3.984375,-7.8515625,0,0,1,1.37288379669,,,,,2015_Nov_06_1629,K,facesParametric,15,59.6759180874,
./stim/MorphM5_10_orig.jpg,27,,,,,0,27,27,27,,,,,,,,,,,,,,,,,,,-3.984375,-7.8515625,0,0,1,1.10508203506,,,,,2015_Nov_06_1629,K,facesParametric,15,59.6759180874,
./stim/MorphM7_00_orig.jpg,28,,,,,0,28,28,28,,,,,,,,,,,,,,,,,,,-3.984375,-7.8515625,1,0,0,1.23818302155,,,,,2015_Nov_06_1629,K,facesParametric,15,59.6759180874,
./stim/MorphM8_02_orig.jpg,29,,,,,0,29,29,29,,,,,,,,,,,,,,,,,,,-3.984375,-7.8515625,0,0,1,7.40655088425,,,,,2015_Nov_06_1629,K,facesParametric,15,59.6759180874,
./stim/MorphF7_10_orig.jpg,30,,,,,0,30,30,30,,,,,,,,,,,,,,,,,,,-3.984375,-7.8515625,0,0,1,0.970364093781,,,,,2015_Nov_06_1629,K,facesParametric,15,59.6759180874,
./stim/MorphF9_08_orig.jpg,31,,,,,0,31,31,31,,,,,,,,,,,,,,,,,,,-3.984375,-7.8515625,0,0,1,0.870505094528,,,,,2015_Nov_06_1629,K,facesParametric,15,59.6759180874,
./stim/MorphM10_02_orig.jpg,32,,,,,0,32,32,32,,,,,,,,,,,,,,,,,,,-3.984375,-7.8515625,1,0,0,0.735785961151,,,,,2015_Nov_06_1629,K,facesParametric,15,59.6759180874,
./stim/MorphF6_03_orig.jpg,33,,,,,0,33,33,33,,,,,,,,,,,,,,,,,,,-3.984375,-7.8515625,0,0,1,1.08820796013,,,,,2015_Nov_06_1629,K,facesParametric,15,59.6759180874,
./stim/MorphM5_07_orig.jpg,34,,,,,0,34,34,34,,,,,,,,,,,,,,,,,,,-3.984375,-7.8515625,0,0,1,1.20353007317,,,,,2015_Nov_06_1629,K,facesParametric,15,59.6759180874,
./stim/MorphF6_01_orig.jpg,35,,,,,0,35,35,35,,,,,,,,,,,,,,,,,,,-3.984375,-7.8515625,1,0,0,2.14344620705,,,,,2015_Nov_06_1629,K,facesParametric,15,59.6759180874,
./stim/MorphM10_01_orig.jpg,36,,,,,0,36,36,36,,,,,,,,,,,,,,,,,,,-3.984375,-7.8515625,1,0,0,1.25489497185,,,,,2015_Nov_06_1629,K,facesParametric,15,59.6759180874,
./stim/MorphF3_03_orig.jpg,37,,,,,0,37,37,37,,,,,,,,,,,,,,,,,,,-3.984375,-7.8515625,1,0,0,1.25536108017,,,,,2015_Nov_06_1629,K,facesParametric,15,59.6759180874,
./stim/MorphF7_02_orig.jpg,38,,,,,0,38,38,38,,,,,,,,,,,,,,,,,,,-3.984375,-7.8515625,0,0,1,1.08827900887,,,,,2015_Nov_06_1629,K,facesParametric,15,59.6759180874,
./stim/MorphM5_08_orig.jpg,39,,,,,0,39,39,39,,,,,,,,,,,,,,,,,,,-3.984375,-7.8515625,0,0,1,1.03701090813,,,,,2015_Nov_06_1629,K,facesParametric,15,59.6759180874,
./stim/MorphF8_00_orig.jpg,40,,,,,0,40,40,40,,,,,,,,,,,,,,,,,,,-3.984375,-7.8515625,1,0,0,0.920711994171,,,,,2015_Nov_06_1629,K,facesParametric,15,59.6759180874,
./stim/MorphM9_10_orig.jpg,41,,,,,0,41,41,41,,,,,,,,,,,,,,,,,,,-3.984375,-7.8515625,0,0,1,0.818359851837,,,,,2015_Nov_06_1629,K,facesParametric,15,59.6759180874,
./stim/MorphF5_01_orig.jpg,42,,,,,0,42,42,42,,,,,,,,,,,,,,,,,,,-3.984375,-7.8515625,1,0,0,1.42329883575,,,,,2015_Nov_06_1629,K,facesParametric,15,59.6759180874,
./stim/MorphF2_00_orig.jpg,43,,,,,0,43,43,43,,,,,,,,,,,,,,,,,,,-3.984375,-7.8515625,0,0,1,0.870366096497,,,,,2015_Nov_06_1629,K,facesParametric,15,59.6759180874,
./stim/MorphF10_02_orig.jpg,44,,,,,0,44,44,44,,,,,,,,,,,,,,,,,,,-3.984375,-7.8515625,1,0,0,2.51246714592,,,,,2015_Nov_06_1629,K,facesParametric,15,59.6759180874,
./stim/MorphM7_02_orig.jpg,45,,,,,0,45,45,45,,,,,,,,,,,,,,,,,,,-3.984375,-7.8515625,1,0,0,0.801959991455,,,,,2015_Nov_06_1629,K,facesParametric,15,59.6759180874,
./stim/MorphF6_07_orig.jpg,46,,,,,0,46,46,46,,,,,,,,,,,,,,,,,,,-3.984375,-7.8515625,0,0,1,2.20956611633,,,,,2015_Nov_06_1629,K,facesParametric,15,59.6759180874,
./stim/MorphM4_09_orig.jpg,47,,,,,0,47,47,47,,,,,,,,,,,,,,,,,,,-3.984375,-7.8515625,0,0,1,1.22002100945,,,,,2015_Nov_06_1629,K,facesParametric,15,59.6759180874,
./stim/MorphM8_04_orig.jpg,48,,,,,0,48,48,48,,,,,,,,,,,,,,,,,,,-3.984375,-7.8515625,0,0,1,3.01445293427,,,,,2015_Nov_06_1629,K,facesParametric,15,59.6759180874,
./stim/MorphF8_05_orig.jpg,49,,,,,0,49,49,49,,,,,,,,,,,,,,,,,,,-3.984375,-7.8515625,1,0,0,1.20300388336,,,,,2015_Nov_06_1629,K,facesParametric,15,59.6759180874,
./stim/MorphF6_06_orig.jpg,50,,,,,0,50,50,50,,,,,,,,,,,,,,,,,,,-3.984375,-7.8515625,0,0,1,2.09360408783,,,,,2015_Nov_06_1629,K,facesParametric,15,59.6759180874,
./stim/MorphF2_03_orig.jpg,51,,,,,0,51,51,51,,,,,,,,,,,,,,,,,,,-3.984375,-7.8515625,1,0,0,3.23313689232,,,,,2015_Nov_06_1629,K,facesParametric,15,59.6759180874,
./stim/MorphM2_10_orig.jpg,52,,,,,0,52,52,52,,,,,,,,,,,,,,,,,,,-3.984375,-7.8515625,0,0,1,0.804494142532,,,,,2015_Nov_06_1629,K,facesParametric,15,59.6759180874,
./stim/MorphF9_07_orig.jpg,53,,,,,0,53,53,53,,,,,,,,,,,,,,,,,,,-3.984375,-7.8515625,1,0,0,0.986673116684,,,,,2015_Nov_06_1629,K,facesParametric,15,59.6759180874,
./stim/MorphM3_07_orig.jpg,54,,,,,0,54,54,54,,,,,,,,,,,,,,,,,,,-3.984375,-7.8515625,1,0,0,4.65733289719,,,,,2015_Nov_06_1629,K,facesParametric,15,59.6759180874,
./stim/MorphM4_01_orig.jpg,55,,,,,0,55,55,55,,,,,,,,,,,,,,,,,,,-3.984375,-7.8515625,1,0,0,3.01567292213,,,,,2015_Nov_06_1629,K,facesParametric,15,59.6759180874,
./stim/MorphM9_08_orig.jpg,56,,,,,0,56,56,56,,,,,,,,,,,,,,,,,,,-3.984375,-7.8515625,0,0,1,2.0769329071,,,,,2015_Nov_06_1629,K,facesParametric,15,59.6759180874,
./stim/MorphM7_04_orig.jpg,57,,,,,0,57,57,57,,,,,,,,,,,,,,,,,,,-3.984375,-7.8515625,0,0,1,2.32640695572,,,,,2015_Nov_06_1629,K,facesParametric,15,59.6759180874,
./stim/MorphM6_08_orig.jpg,58,,,,,0,58,58,58,,,,,,,,,,,,,,,,,,,-3.984375,-7.8515625,0,0,1,2.52969098091,,,,,2015_Nov_06_1629,K,facesParametric,15,59.6759180874,
./stim/MorphM7_08_orig.jpg,59,,,,,0,59,59,59,,,,,,,,,,,,,,,,,,,-3.984375,-7.8515625,0,0,1,1.0878059864,,,,,2015_Nov_06_1629,K,facesParametric,15,59.6759180874,
./stim/MorphF9_09_orig.jpg,60,,,,,0,60,60,60,,,,,,,,,,,,,,,,,,,-3.984375,-7.8515625,0,0,1,1.52371478081,,,,,2015_Nov_06_1629,K,facesParametric,15,59.6759180874,
./stim/MorphF10_06_orig.jpg,61,,,,,0,61,61,61,,,,,,,,,,,,,,,,,,,-3.984375,-7.8515625,1,0,0,0.719531059265,,,,,2015_Nov_06_1629,K,facesParametric,15,59.6759180874,
./stim/MorphM4_03_orig.jpg,62,,,,,0,62,62,62,,,,,,,,,,,,,,,,,,,-3.984375,-7.8515625,1,0,0,1.48985004425,,,,,2015_Nov_06_1629,K,facesParametric,15,59.6759180874,
./stim/MorphM6_03_orig.jpg,63,,,,,0,63,63,63,,,,,,,,,,,,,,,,,,,-3.984375,-7.8515625,1,0,0,3.13198590279,,,,,2015_Nov_06_1629,K,facesParametric,15,59.6759180874,
./stim/MorphM3_02_orig.jpg,64,,,,,0,64,64,64,,,,,,,,,,,,,,,,,,,-3.984375,-7.8515625,1,0,0,0.821262836456,,,,,2015_Nov_06_1629,K,facesParametric,15,59.6759180874,
./stim/MorphF3_06_orig.jpg,65,,,,,0,65,65,65,,,,,,,,,,,,,,,,,,,-3.984375,-7.8515625,1,0,0,2.05840015411,,,,,2015_Nov_06_1629,K,facesParametric,15,59.6759180874,
./stim/MorphM1_07_orig.jpg,66,,,,,0,66,66,66,,,,,,,,,,,,,,,,,,,-3.984375,-7.8515625,1,0,0,6.51706004143,,,,,2015_Nov_06_1629,K,facesParametric,15,59.6759180874,
./stim/MorphF4_10_orig.jpg,67,,,,,0,67,67,67,,,,,,,,,,,,,,,,,,,-3.984375,-7.8515625,0,0,1,0.702274084091,,,,,2015_Nov_06_1629,K,facesParametric,15,59.6759180874,
./stim/MorphF7_06_orig.jpg,68,,,,,0,68,68,68,,,,,,,,,,,,,,,,,,,-3.984375,-7.8515625,0,0,1,1.70733880997,,,,,2015_Nov_06_1629,K,facesParametric,15,59.6759180874,
./stim/MorphM7_03_orig.jpg,69,,,,,0,69,69,69,,,,,,,,,,,,,,,,,,,-3.984375,-7.8515625,1,0,0,2.93129301071,,,,,2015_Nov_06_1629,K,facesParametric,15,59.6759180874,
./stim/MorphM3_06_orig.jpg,70,,,,,0,70,70,70,,,,,,,,,,,,,,,,,,,-3.984375,-7.8515625,1,0,0,3.45089888573,,,,,2015_Nov_06_1629,K,facesParametric,15,59.6759180874,
./stim/MorphF1_10_orig.jpg,71,,,,,0,71,71,71,,,,,,,,,,,,,,,,,,,-3.984375,-7.8515625,0,0,1,1.205286026,,,,,2015_Nov_06_1629,K,facesParametric,15,59.6759180874,
./stim/MorphF7_03_orig.jpg,72,,,,,0,72,72,72,,,,,,,,,,,,,,,,,,,-3.984375,-7.8515625,0,0,1,1.72550201416,,,,,2015_Nov_06_1629,K,facesParametric,15,59.6759180874,
./stim/MorphF10_01_orig.jpg,73,,,,,0,73,73,73,,,,,,,,,,,,,,,,,,,-3.984375,-7.8515625,0,0,1,0.734755992889,,,,,2015_Nov_06_1629,K,facesParametric,15,59.6759180874,
./stim/MorphF6_08_orig.jpg,74,,,,,0,74,74,74,,,,,,,,,,,,,,,,,,,-3.984375,-7.8515625,0,0,1,1.55724406242,,,,,2015_Nov_06_1629,K,facesParametric,15,59.6759180874,
./stim/MorphM8_10_orig.jpg,75,,,,,0,75,75,75,,,,,,,,,,,,,,,,,,,-3.984375,-7.8515625,0,0,1,2.93216896057,,,,,2015_Nov_06_1629,K,facesParametric,15,59.6759180874,
./stim/MorphM9_03_orig.jpg,76,,,,,0,76,76,76,,,,,,,,,,,,,,,,,,,-3.984375,-7.8515625,1,0,0,1.10237288475,,,,,2015_Nov_06_1629,K,facesParametric,15,59.6759180874,
./stim/MorphM3_10_orig.jpg,77,,,,,0,77,77,77,,,,,,,,,,,,,,,,,,,-3.984375,-7.8515625,0,0,1,1.27307486534,,,,,2015_Nov_06_1629,K,facesParametric,15,59.6759180874,
./stim/MorphM1_05_orig.jpg,78,,,,,0,78,78,78,,,,,,,,,,,,,,,,,,,-3.984375,-7.8515625,1,0,0,1.72271800041,,,,,2015_Nov_06_1629,K,facesParametric,15,59.6759180874,
./stim/MorphM10_10_orig.jpg,79,,,,,0,79,79,79,,,,,,,,,,,,,,,,,,,-3.984375,-7.8515625,0,0,1,0.9714179039,,,,,2015_Nov_06_1629,K,facesParametric,15,59.6759180874,
./stim/MorphM1_10_orig.jpg,80,,,,,0,80,80,80,,,,,,,,,,,,,,,,,,,-3.984375,-7.8515625,0,0,1,0.835052013397,,,,,2015_Nov_06_1629,K,facesParametric,15,59.6759180874,
./stim/MorphF5_03_orig.jpg,81,,,,,0,81,81,81,,,,,,,,,,,,,,,,,,,-3.984375,-7.8515625,1,0,0,2.32832407951,,,,,2015_Nov_06_1629,K,facesParametric,15,59.6759180874,
./stim/MorphM5_06_orig.jpg,82,,,,,0,82,82,82,,,,,,,,,,,,,,,,,,,-3.984375,-7.8515625,0,0,1,1.03808188438,,,,,2015_Nov_06_1629,K,facesParametric,15,59.6759180874,
./stim/MorphM10_08_orig.jpg,83,,,,,0,83,83,83,,,,,,,,,,,,,,,,,,,-3.984375,-7.8515625,0,0,1,2.16055297852,,,,,2015_Nov_06_1629,K,facesParametric,15,59.6759180874,
./stim/MorphM1_03_orig.jpg,84,,,,,0,84,84,84,,,,,,,,,,,,,,,,,,,-3.984375,-7.8515625,1,0,0,0.987215042114,,,,,2015_Nov_06_1629,K,facesParametric,15,59.6759180874,
./stim/MorphF3_02_orig.jpg,85,,,,,0,85,85,85,,,,,,,,,,,,,,,,,,,-3.984375,-7.8515625,1,0,0,1.63927912712,,,,,2015_Nov_06_1629,K,facesParametric,15,59.6759180874,
./stim/MorphM3_08_orig.jpg,86,,,,,0,86,86,86,,,,,,,,,,,,,,,,,,,-3.984375,-7.8515625,0,0,1,2.32885098457,,,,,2015_Nov_06_1629,K,facesParametric,15,59.6759180874,
./stim/MorphM9_06_orig.jpg,87,,,,,0,87,87,87,,,,,,,,,,,,,,,,,,,-3.984375,-7.8515625,1,0,0,4.53836989403,,,,,2015_Nov_06_1629,K,facesParametric,15,59.6759180874,
./stim/MorphM4_08_orig.jpg,88,,,,,0,88,88,88,,,,,,,,,,,,,,,,,,,-3.984375,-7.8515625,0,0,1,0.970338106155,,,,,2015_Nov_06_1629,K,facesParametric,15,59.6759180874,
./stim/MorphM1_00_orig.jpg,89,,,,,0,89,89,89,,,,,,,,,,,,,,,,,,,-3.984375,-7.8515625,1,0,0,0.971020936966,,,,,2015_Nov_06_1629,K,facesParametric,15,59.6759180874,
./stim/MorphF5_00_orig.jpg,90,,,,,0,90,90,90,,,,,,,,,,,,,,,,,,,-3.984375,-7.8515625,1,0,0,3.68578600883,,,,,2015_Nov_06_1629,K,facesParametric,15,59.6759180874,
./stim/MorphM3_00_orig.jpg,91,,,,,0,91,91,91,,,,,,,,,,,,,,,,,,,-3.984375,-7.8515625,1,0,0,1.79174900055,,,,,2015_Nov_06_1629,K,facesParametric,15,59.6759180874,
./stim/MorphF6_10_orig.jpg,92,,,,,0,92,92,92,,,,,,,,,,,,,,,,,,,-3.984375,-7.8515625,0,0,1,0.853793144226,,,,,2015_Nov_06_1629,K,facesParametric,15,59.6759180874,
./stim/MorphF9_01_orig.jpg,93,,,,,0,93,93,93,,,,,,,,,,,,,,,,,,,-3.984375,-7.8515625,1,0,0,0.970509052277,,,,,2015_Nov_06_1629,K,facesParametric,15,59.6759180874,
./stim/MorphM9_05_orig.jpg,94,,,,,0,94,94,94,,,,,,,,,,,,,,,,,,,-3.984375,-7.8515625,1,0,0,3.66883182526,,,,,2015_Nov_06_1629,K,facesParametric,15,59.6759180874,
./stim/MorphF4_07_orig.jpg,95,,,,,0,95,95,95,,,,,,,,,,,,,,,,,,,-3.984375,-7.8515625,1,0,0,5.11031889915,,,,,2015_Nov_06_1629,K,facesParametric,15,59.6759180874,
./stim/MorphF2_05_orig.jpg,96,,,,,0,96,96,96,,,,,,,,,,,,,,,,,,,-3.984375,-7.8515625,0,0,1,1.0517001152,,,,,2015_Nov_06_1629,K,facesParametric,15,59.6759180874,
./stim/MorphF4_00_orig.jpg,97,,,,,0,97,97,97,,,,,,,,,,,,,,,,,,,-3.984375,-7.8515625,1,0,0,0.786429166794,,,,,2015_Nov_06_1629,K,facesParametric,15,59.6759180874,
./stim/MorphM4_02_orig.jpg,98,,,,,0,98,98,98,,,,,,,,,,,,,,,,,,,-3.984375,-7.8515625,1,0,0,2.41244506836,,,,,2015_Nov_06_1629,K,facesParametric,15,59.6759180874,
./stim/MorphM5_03_orig.jpg,99,,,,,0,99,99,99,,,,,,,,,,,,,,,,,,,-3.984375,-7.8515625,0,0,1,0.919596910477,,,,,2015_Nov_06_1629,K,facesParametric,15,59.6759180874,
./stim/MorphM7_07_orig.jpg,100,,,,,0,100,100,100,,,,,,,,,,,,,,,,,,,-3.984375,-7.8515625,0,0,1,1.74187493324,,,,,2015_Nov_06_1629,K,facesParametric,15,59.6759180874,
./stim/MorphF9_06_orig.jpg,101,,,,,0,101,101,101,,,,,,,,,,,,,,,,,,,-3.984375,-7.8515625,0,0,1,7.38913297653,,,,,2015_Nov_06_1629,K,facesParametric,15,59.6759180874,
./stim/MorphF4_09_orig.jpg,102,,,,,0,102,102,102,,,,,,,,,,,,,,,,,,,-3.984375,-7.8515625,0,0,1,1.87424993515,,,,,2015_Nov_06_1629,K,facesParametric,15,59.6759180874,
./stim/MorphF2_02_orig.jpg,103,,,,,0,103,103,103,,,,,,,,,,,,,,,,,,,-3.984375,-7.8515625,1,0,0,2.81416678429,,,,,2015_Nov_06_1629,K,facesParametric,15,59.6759180874,
./stim/MorphM5_02_orig.jpg,104,,,,,0,104,104,104,,,,,,,,,,,,,,,,,,,-3.984375,-7.8515625,1,0,0,1.54075098038,,,,,2015_Nov_06_1629,K,facesParametric,15,59.6759180874,
./stim/MorphF10_07_orig.jpg,105,,,,,0,105,105,105,,,,,,,,,,,,,,,,,,,-3.984375,-7.8515625,0,0,1,1.84152698517,,,,,2015_Nov_06_1629,K,facesParametric,15,59.6759180874,
./stim/MorphM6_05_orig.jpg,106,,,,,0,106,106,106,,,,,,,,,,,,,,,,,,,-3.984375,-7.8515625,1,0,0,1.69166994095,,,,,2015_Nov_06_1629,K,facesParametric,15,59.6759180874,
./stim/MorphF6_09_orig.jpg,107,,,,,0,107,107,107,,,,,,,,,,,,,,,,,,,-3.984375,-7.8515625,0,0,1,0.970942020416,,,,,2015_Nov_06_1629,K,facesParametric,15,59.6759180874,
./stim/MorphF2_01_orig.jpg,108,,,,,0,108,108,108,,,,,,,,,,,,,,,,,,,-3.984375,-7.8515625,1,0,0,1.27111101151,,,,,2015_Nov_06_1629,K,facesParametric,15,59.6759180874,
./stim/MorphM4_07_orig.jpg,109,,,,,0,109,109,109,,,,,,,,,,,,,,,,,,,-3.984375,-7.8515625,0,0,1,1.6578400135,,,,,2015_Nov_06_1629,K,facesParametric,15,59.6759180874,
./stim/MorphF7_07_orig.jpg,110,,,,,0,110,110,110,,,,,,,,,,,,,,,,,,,-3.984375,-7.8515625,0,0,1,1.65601420403,,,,,2015_Nov_06_1629,K,facesParametric,15,59.6759180874,
./stim/MorphM1_08_orig.jpg,111,,,,,0,111,111,111,,,,,,,,,,,,,,,,,,,-3.984375,-7.8515625,1,0,0,0.970143795013,,,,,2015_Nov_06_1629,K,facesParametric,15,59.6759180874,
./stim/MorphF2_08_orig.jpg,112,,,,,0,112,112,112,,,,,,,,,,,,,,,,,,,-3.984375,-7.8515625,0,0,1,0.768989086151,,,,,2015_Nov_06_1629,K,facesParametric,15,59.6759180874,
./stim/MorphF5_02_orig.jpg,113,,,,,0,113,113,113,,,,,,,,,,,,,,,,,,,-3.984375,-7.8515625,1,0,0,1.9264318943,,,,,2015_Nov_06_1629,K,facesParametric,15,59.6759180874,
./stim/MorphM7_01_orig.jpg,114,,,,,0,114,114,114,,,,,,,,,,,,,,,,,,,-3.984375,-7.8515625,1,0,0,1.60730004311,,,,,2015_Nov_06_1629,K,facesParametric,15,59.6759180874,
./stim/MorphM2_04_orig.jpg,115,,,,,0,115,115,115,,,,,,,,,,,,,,,,,,,-3.984375,-7.8515625,1,0,0,1.89246797562,,,,,2015_Nov_06_1629,K,facesParametric,15,59.6759180874,
./stim/MorphF9_04_orig.jpg,116,,,,,0,116,116,116,,,,,,,,,,,,,,,,,,,-3.984375,-7.8515625,0,0,1,5.44427394867,,,,,2015_Nov_06_1629,K,facesParametric,15,59.6759180874,
./stim/MorphF2_09_orig.jpg,117,,,,,0,117,117,117,,,,,,,,,,,,,,,,,,,-3.984375,-7.8515625,0,0,1,1.99217009544,,,,,2015_Nov_06_1629,K,facesParametric,15,59.6759180874,
./stim/MorphF4_06_orig.jpg,118,,,,,0,118,118,118,,,,,,,,,,,,,,,,,,,-3.984375,-7.8515625,0,0,1,5.73094105721,,,,,2015_Nov_06_1629,K,facesParametric,15,59.6759180874,
./stim/MorphM3_09_orig.jpg,119,,,,,0,119,119,119,,,,,,,,,,,,,,,,,,,-3.984375,-7.8515625,0,0,1,3.88578796387,,,,,2015_Nov_06_1629,K,facesParametric,15,59.6759180874,
./stim/MorphM2_07_orig.jpg,120,,,,,0,120,120,120,,,,,,,,,,,,,,,,,,,-3.984375,-7.8515625,0,0,1,1.15510201454,,,,,2015_Nov_06_1629,K,facesParametric,15,59.6759180874,
./stim/MorphF3_10_orig.jpg,121,,,,,0,121,121,121,,,,,,,,,,,,,,,,,,,-3.984375,-7.8515625,0,0,1,2.49598407745,,,,,2015_Nov_06_1629,K,facesParametric,15,59.6759180874,
./stim/MorphF5_05_orig.jpg,122,,,,,0,122,122,122,,,,,,,,,,,,,,,,,,,-3.984375,-7.8515625,0,0,1,1.18801307678,,,,,2015_Nov_06_1629,K,facesParametric,15,59.6759180874,
./stim/MorphF7_09_orig.jpg,123,,,,,0,123,123,123,,,,,,,,,,,,,,,,,,,-3.984375,-7.8515625,0,0,1,1.32209300995,,,,,2015_Nov_06_1629,K,facesParametric,15,59.6759180874,
./stim/MorphF3_08_orig.jpg,124,,,,,0,124,124,124,,,,,,,,,,,,,,,,,,,-3.984375,-7.8515625,0,0,1,2.44563484192,,,,,2015_Nov_06_1629,K,facesParametric,15,59.6759180874,
./stim/MorphM5_09_orig.jpg,125,,,,,0,125,125,125,,,,,,,,,,,,,,,,,,,-3.984375,-7.8515625,0,0,1,1.0524559021,,,,,2015_Nov_06_1629,K,facesParametric,15,59.6759180874,
./stim/MorphF3_01_orig.jpg,126,,,,,0,126,126,126,,,,,,,,,,,,,,,,,,,-3.984375,-7.8515625,1,0,0,1.52158498764,,,,,2015_Nov_06_1629,K,facesParametric,15,59.6759180874,
./stim/MorphM9_07_orig.jpg,127,,,,,0,127,127,127,,,,,,,,,,,,,,,,,,,-3.984375,-7.8515625,1,0,0,3.14910793304,,,,,2015_Nov_06_1629,K,facesParametric,15,59.6759180874,
./stim/MorphF10_00_orig.jpg,128,,,,,0,128,128,128,,,,,,,,,,,,,,,,,,,-3.984375,-7.8515625,1,0,0,1.15351605415,,,,,2015_Nov_06_1629,K,facesParametric,15,59.6759180874,
./stim/MorphM6_01_orig.jpg,129,,,,,0,129,129,129,,,,,,,,,,,,,,,,,,,-3.984375,-7.8515625,1,0,0,0.870935916901,,,,,2015_Nov_06_1629,K,facesParametric,15,59.6759180874,
./stim/MorphF1_02_orig.jpg,130,,,,,0,130,130,130,,,,,,,,,,,,,,,,,,,-3.984375,-7.8515625,1,0,0,0.685058832169,,,,,2015_Nov_06_1629,K,facesParametric,15,59.6759180874,
./stim/MorphF8_09_orig.jpg,131,,,,,0,131,131,131,,,,,,,,,,,,,,,,,,,-3.984375,-7.8515625,0,0,1,1.5405960083,,,,,2015_Nov_06_1629,K,facesParametric,15,59.6759180874,
./stim/MorphM2_03_orig.jpg,132,,,,,0,132,132,132,,,,,,,,,,,,,,,,,,,-3.984375,-7.8515625,1,0,0,0.921036958694,,,,,2015_Nov_06_1629,K,facesParametric,15,59.6759180874,
./stim/MorphF4_03_orig.jpg,133,,,,,0,133,133,133,,,,,,,,,,,,,,,,,,,-3.984375,-7.8515625,1,0,0,0.802239894867,,,,,2015_Nov_06_1629,K,facesParametric,15,59.6759180874,
./stim/MorphM3_03_orig.jpg,134,,,,,0,134,134,134,,,,,,,,,,,,,,,,,,,-3.984375,-7.8515625,1,0,0,1.00300717354,,,,,2015_Nov_06_1629,K,facesParametric,15,59.6759180874,
./stim/MorphM8_01_orig.jpg,135,,,,,0,135,135,135,,,,,,,,,,,,,,,,,,,-3.984375,-7.8515625,1,0,0,2.54644012451,,,,,2015_Nov_06_1629,K,facesParametric,15,59.6759180874,
./stim/MorphF7_05_orig.jpg,136,,,,,0,136,136,136,,,,,,,,,,,,,,,,,,,-3.984375,-7.8515625,1,0,0,3.18121504784,,,,,2015_Nov_06_1629,K,facesParametric,15,59.6759180874,
./stim/MorphF3_09_orig.jpg,137,,,,,0,137,137,137,,,,,,,,,,,,,,,,,,,-3.984375,-7.8515625,0,0,1,1.57457780838,,,,,2015_Nov_06_1629,K,facesParametric,15,59.6759180874,
./stim/MorphM8_08_orig.jpg,138,,,,,0,138,138,138,,,,,,,,,,,,,,,,,,,-3.984375,-7.8515625,0,0,1,1.35362100601,,,,,2015_Nov_06_1629,K,facesParametric,15,59.6759180874,
./stim/MorphF1_04_orig.jpg,139,,,,,0,139,139,139,,,,,,,,,,,,,,,,,,,-3.984375,-7.8515625,1,0,0,1.32323598862,,,,,2015_Nov_06_1629,K,facesParametric,15,59.6759180874,
./stim/MorphM10_07_orig.jpg,140,,,,,0,140,140,140,,,,,,,,,,,,,,,,,,,-3.984375,-7.8515625,0,0,1,0.786174058914,,,,,2015_Nov_06_1629,K,facesParametric,15,59.6759180874,
./stim/MorphF8_02_orig.jpg,141,,,,,0,141,141,141,,,,,,,,,,,,,,,,,,,-3.984375,-7.8515625,1,0,0,2.6804060936,,,,,2015_Nov_06_1629,K,facesParametric,15,59.6759180874,
./stim/MorphM2_00_orig.jpg,142,,,,,0,142,142,142,,,,,,,,,,,,,,,,,,,-3.984375,-7.8515625,1,0,0,0.70185303688,,,,,2015_Nov_06_1629,K,facesParametric,15,59.6759180874,
./stim/MorphF2_04_orig.jpg,143,,,,,0,143,143,143,,,,,,,,,,,,,,,,,,,-3.984375,-7.8515625,1,0,0,2.42870879173,,,,,2015_Nov_06_1629,K,facesParametric,15,59.6759180874,
./stim/MorphF10_05_orig.jpg,144,,,,,0,144,144,144,,,,,,,,,,,,,,,,,,,-3.984375,-7.8515625,0,0,1,1.55731391907,,,,,2015_Nov_06_1629,K,facesParametric,15,59.6759180874,
./stim/MorphM6_02_orig.jpg,145,,,,,0,145,145,145,,,,,,,,,,,,,,,,,,,-3.984375,-7.8515625,1,0,0,2.79614210129,,,,,2015_Nov_06_1629,K,facesParametric,15,59.6759180874,
./stim/MorphF5_08_orig.jpg,146,,,,,0,146,146,146,,,,,,,,,,,,,,,,,,,-3.984375,-7.8515625,0,0,1,1.18839597702,,,,,2015_Nov_06_1629,K,facesParametric,15,59.6759180874,
./stim/MorphF10_10_orig.jpg,147,,,,,0,147,147,147,,,,,,,,,,,,,,,,,,,-3.984375,-7.8515625,0,0,1,0.836753129959,,,,,2015_Nov_06_1629,K,facesParametric,15,59.6759180874,
./stim/MorphF4_01_orig.jpg,148,,,,,0,148,148,148,,,,,,,,,,,,,,,,,,,-3.984375,-7.8515625,1,0,0,0.886976957321,,,,,2015_Nov_06_1629,K,facesParametric,15,59.6759180874,
./stim/MorphF6_02_orig.jpg,149,,,,,0,149,149,149,,,,,,,,,,,,,,,,,,,-3.984375,-7.8515625,1,0,0,0.869988918304,,,,,2015_Nov_06_1629,K,facesParametric,15,59.6759180874,
./stim/MorphF7_01_orig.jpg,150,,,,,0,150,150,150,,,,,,,,,,,,,,,,,,,-3.984375,-7.8515625,1,0,0,1.22250199318,,,,,2015_Nov_06_1629,K,facesParametric,15,59.6759180874,
./stim/MorphF2_10_orig.jpg,151,,,,,0,151,151,151,,,,,,,,,,,,,,,,,,,-3.984375,-7.8515625,0,0,1,1.054874897,,,,,2015_Nov_06_1629,K,facesParametric,15,59.6759180874,
./stim/MorphF4_04_orig.jpg,152,,,,,0,152,152,152,,,,,,,,,,,,,,,,,,,-3.984375,-7.8515625,1,0,0,1.50674319267,,,,,2015_Nov_06_1629,K,facesParametric,15,59.6759180874,
./stim/MorphF1_03_orig.jpg,153,,,,,0,153,153,153,,,,,,,,,,,,,,,,,,,-3.984375,-7.8515625,1,0,0,2.73057317734,,,,,2015_Nov_06_1629,K,facesParametric,15,59.6759180874,
./stim/MorphF9_10_orig.jpg,154,,,,,0,154,154,154,,,,,,,,,,,,,,,,,,,-3.984375,-7.8515625,0,0,1,0.920166969299,,,,,2015_Nov_06_1629,K,facesParametric,15,59.6759180874,
./stim/MorphF8_06_orig.jpg,155,,,,,0,155,155,155,,,,,,,,,,,,,,,,,,,-3.984375,-7.8515625,0,0,1,1.02126002312,,,,,2015_Nov_06_1629,K,facesParametric,15,59.6759180874,
./stim/MorphM6_06_orig.jpg,156,,,,,0,156,156,156,,,,,,,,,,,,,,,,,,,-3.984375,-7.8515625,1,0,0,3.34877490997,,,,,2015_Nov_06_1629,K,facesParametric,15,59.6759180874,
./stim/MorphF1_05_orig.jpg,157,,,,,0,157,157,157,,,,,,,,,,,,,,,,,,,-3.984375,-7.8515625,1,0,0,3.33401799202,,,,,2015_Nov_06_1629,K,facesParametric,15,59.6759180874,
./stim/MorphM4_00_orig.jpg,158,,,,,0,158,158,158,,,,,,,,,,,,,,,,,,,-3.984375,-7.8515625,1,0,0,1.08821487427,,,,,2015_Nov_06_1629,K,facesParametric,15,59.6759180874,
./stim/MorphF1_01_orig.jpg,159,,,,,0,159,159,159,,,,,,,,,,,,,,,,,,,-3.984375,-7.8515625,1,0,0,0.752567052841,,,,,2015_Nov_06_1629,K,facesParametric,15,59.6759180874,
./stim/MorphF4_08_orig.jpg,160,,,,,0,160,160,160,,,,,,,,,,,,,,,,,,,-3.984375,-7.8515625,0,0,1,1.17316007614,,,,,2015_Nov_06_1629,K,facesParametric,15,59.6759180874,
./stim/MorphM4_04_orig.jpg,161,,,,,0,161,161,161,,,,,,,,,,,,,,,,,,,-3.984375,-7.8515625,0,0,1,3.7180788517,,,,,2015_Nov_06_1629,K,facesParametric,15,59.6759180874,
./stim/MorphF3_07_orig.jpg,162,,,,,0,162,162,162,,,,,,,,,,,,,,,,,,,-3.984375,-7.8515625,1,0,0,0.954015016556,,,,,2015_Nov_06_1629,K,facesParametric,15,59.6759180874,
./stim/MorphF8_04_orig.jpg,163,,,,,0,163,163,163,,,,,,,,,,,,,,,,,,,-3.984375,-7.8515625,0,0,1,1.10491085052,,,,,2015_Nov_06_1629,K,facesParametric,15,59.6759180874,
./stim/MorphM7_09_orig.jpg,164,,,,,0,164,164,164,,,,,,,,,,,,,,,,,,,-3.984375,-7.8515625,0,0,1,1.35556507111,,,,,2015_Nov_06_1629,K,facesParametric,15,59.6759180874,
./stim/MorphF8_08_orig.jpg,165,,,,,0,165,165,165,,,,,,,,,,,,,,,,,,,-3.984375,-7.8515625,0,0,1,0.970164060593,,,,,2015_Nov_06_1629,K,facesParametric,15,59.6759180874,
./stim/MorphF5_06_orig.jpg,166,,,,,0,166,166,166,,,,,,,,,,,,,,,,,,,-3.984375,-7.8515625,1,0,0,0.769526958466,,,,,2015_Nov_06_1629,K,facesParametric,15,59.6759180874,
./stim/MorphF4_02_orig.jpg,167,,,,,0,167,167,167,,,,,,,,,,,,,,,,,,,-3.984375,-7.8515625,1,0,0,1.20541095734,,,,,2015_Nov_06_1629,K,facesParametric,15,59.6759180874,
./stim/MorphM2_06_orig.jpg,168,,,,,0,168,168,168,,,,,,,,,,,,,,,,,,,-3.984375,-7.8515625,1,0,0,1.99339389801,,,,,2015_Nov_06_1629,K,facesParametric,15,59.6759180874,
./stim/MorphM9_09_orig.jpg,169,,,,,0,169,169,169,,,,,,,,,,,,,,,,,,,-3.984375,-7.8515625,0,0,1,1.92537713051,,,,,2015_Nov_06_1629,K,facesParametric,15,59.6759180874,
./stim/MorphF9_05_orig.jpg,170,,,,,0,170,170,170,,,,,,,,,,,,,,,,,,,-3.984375,-7.8515625,1,0,0,1.32307314873,,,,,2015_Nov_06_1629,K,facesParametric,15,59.6759180874,
./stim/MorphF3_00_orig.jpg,171,,,,,0,171,171,171,,,,,,,,,,,,,,,,,,,-3.984375,-7.8515625,1,0,0,0.702339172363,,,,,2015_Nov_06_1629,K,facesParametric,15,59.6759180874,
./stim/MorphM5_05_orig.jpg,172,,,,,0,172,172,172,,,,,,,,,,,,,,,,,,,-3.984375,-7.8515625,0,0,1,0.886914014816,,,,,2015_Nov_06_1629,K,facesParametric,15,59.6759180874,
./stim/MorphM8_05_orig.jpg,173,,,,,0,173,173,173,,,,,,,,,,,,,,,,,,,-3.984375,-7.8515625,0,0,1,2.44590902328,,,,,2015_Nov_06_1629,K,facesParametric,15,59.6759180874,
./stim/MorphF5_04_orig.jpg,174,,,,,0,174,174,174,,,,,,,,,,,,,,,,,,,-3.984375,-7.8515625,1,0,0,0.769783973694,,,,,2015_Nov_06_1629,K,facesParametric,15,59.6759180874,
./stim/MorphF7_08_orig.jpg,175,,,,,0,175,175,175,,,,,,,,,,,,,,,,,,,-3.984375,-7.8515625,0,0,1,1.33933281898,,,,,2015_Nov_06_1629,K,facesParametric,15,59.6759180874,
./stim/MorphM10_00_orig.jpg,176,,,,,0,176,176,176,,,,,,,,,,,,,,,,,,,-3.984375,-7.8515625,1,0,0,0.818145990372,,,,,2015_Nov_06_1629,K,facesParametric,15,59.6759180874,
./stim/MorphM1_01_orig.jpg,177,,,,,0,177,177,177,,,,,,,,,,,,,,,,,,,-3.984375,-7.8515625,1,0,0,1.3222630024,,,,,2015_Nov_06_1629,K,facesParametric,15,59.6759180874,
./stim/MorphF6_04_orig.jpg,178,,,,,0,178,178,178,,,,,,,,,,,,,,,,,,,-3.984375,-7.8515625,1,0,0,1.15553116798,,,,,2015_Nov_06_1629,K,facesParametric,15,59.6759180874,
./stim/MorphM3_05_orig.jpg,179,,,,,0,179,179,179,,,,,,,,,,,,,,,,,,,-3.984375,-7.8515625,1,0,0,6.93702411652,,,,,2015_Nov_06_1629,K,facesParametric,15,59.6759180874,
./stim/MorphM1_09_orig.jpg,180,,,,,0,180,180,180,,,,,,,,,,,,,,,,,,,-3.984375,-7.8515625,0,0,1,2.05869102478,,,,,2015_Nov_06_1629,K,facesParametric,15,59.6759180874,
./stim/MorphF10_04_orig.jpg,181,,,,,0,181,181,181,,,,,,,,,,,,,,,,,,,-3.984375,-7.8515625,0,0,1,4.18896007538,,,,,2015_Nov_06_1629,K,facesParametric,15,59.6759180874,
./stim/MorphM4_10_orig.jpg,182,,,,,0,182,182,182,,,,,,,,,,,,,,,,,,,-3.984375,-7.8515625,0,0,1,0.986534833908,,,,,2015_Nov_06_1629,K,facesParametric,15,59.6759180874,
./stim/MorphF8_10_orig.jpg,183,,,,,0,183,183,183,,,,,,,,,,,,,,,,,,,-3.984375,-7.8515625,0,0,1,0.835217952728,,,,,2015_Nov_06_1629,K,facesParametric,15,59.6759180874,
./stim/MorphM8_09_orig.jpg,184,,,,,0,184,184,184,,,,,,,,,,,,,,,,,,,-3.984375,-7.8515625,0,0,1,0.937377929688,,,,,2015_Nov_06_1629,K,facesParametric,15,59.6759180874,
./stim/MorphF9_00_orig.jpg,185,,,,,0,185,185,185,,,,,,,,,,,,,,,,,,,-3.984375,-7.8515625,1,0,0,1.10501194,,,,,2015_Nov_06_1629,K,facesParametric,15,59.6759180874,
./stim/MorphF1_00_orig.jpg,186,,,,,0,186,186,186,,,,,,,,,,,,,,,,,,,-3.984375,-7.8515625,1,0,0,0.953248977661,,,,,2015_Nov_06_1629,K,facesParametric,15,59.6759180874,
./stim/MorphF7_00_orig.jpg,187,,,,,0,187,187,187,,,,,,,,,,,,,,,,,,,-3.984375,-7.8515625,1,0,0,0.95454788208,,,,,2015_Nov_06_1629,K,facesParametric,15,59.6759180874,
./stim/MorphM7_05_orig.jpg,188,,,,,0,188,188,188,,,,,,,,,,,,,,,,,,,-3.984375,-7.8515625,0,0,1,2.21073198318,,,,,2015_Nov_06_1629,K,facesParametric,15,59.6759180874,
./stim/MorphM5_00_orig.jpg,189,,,,,0,189,189,189,,,,,,,,,,,,,,,,,,,-3.984375,-7.8515625,1,0,0,1.25606608391,,,,,2015_Nov_06_1629,K,facesParametric,15,59.6759180874,
./stim/MorphF1_07_orig.jpg,190,,,,,0,190,190,190,,,,,,,,,,,,,,,,,,,-3.984375,-7.8515625,0,0,1,2.02610206604,,,,,2015_Nov_06_1629,K,facesParametric,15,59.6759180874,
./stim/MorphM10_09_orig.jpg,191,,,,,0,191,191,191,,,,,,,,,,,,,,,,,,,-3.984375,-7.8515625,0,0,1,0.870516061783,,,,,2015_Nov_06_1629,K,facesParametric,15,59.6759180874,
./stim/MorphM9_01_orig.jpg,192,,,,,0,192,192,192,,,,,,,,,,,,,,,,,,,-3.984375,-7.8515625,1,0,0,0.903567075729,,,,,2015_Nov_06_1629,K,facesParametric,15,59.6759180874,
./stim/MorphF5_10_orig.jpg,193,,,,,0,193,193,193,,,,,,,,,,,,,,,,,,,-3.984375,-7.8515625,0,0,1,1.4061961174,,,,,2015_Nov_06_1629,K,facesParametric,15,59.6759180874,
./stim/MorphM6_09_orig.jpg,194,,,,,0,194,194,194,,,,,,,,,,,,,,,,,,,-3.984375,-7.8515625,0,0,1,1.77522516251,,,,,2015_Nov_06_1629,K,facesParametric,15,59.6759180874,
./stim/MorphM9_02_orig.jpg,195,,,,,0,195,195,195,,,,,,,,,,,,,,,,,,,-3.984375,-7.8515625,1,0,0,1.6405711174,,,,,2015_Nov_06_1629,K,facesParametric,15,59.6759180874,
./stim/MorphM2_08_orig.jpg,196,,,,,0,196,196,196,,,,,,,,,,,,,,,,,,,-3.984375,-7.8515625,1,0,0,1.33974003792,,,,,2015_Nov_06_1629,K,facesParametric,15,59.6759180874,
./stim/MorphF2_07_orig.jpg,197,,,,,0,197,197,197,,,,,,,,,,,,,,,,,,,-3.984375,-7.8515625,0,0,1,0.853307962418,,,,,2015_Nov_06_1629,K,facesParametric,15,59.6759180874,
./stim/MorphM6_07_orig.jpg,198,,,,,0,198,198,198,,,,,,,,,,,,,,,,,,,-3.984375,-7.8515625,1,0,0,1.62435698509,,,,,2015_Nov_06_1629,K,facesParametric,15,59.6759180874,
./stim/MorphM8_00_orig.jpg,199,,,,,0,199,199,199,,,,,,,,,,,,,,,,,,,-3.984375,-7.8515625,1,0,0,1.30654978752,,,,,2015_Nov_06_1629,K,facesParametric,15,59.6759180874,
./stim/MorphF5_09_orig.jpg,200,,,,,0,200,200,200,,,,,,,,,,,,,,,,,,,-3.984375,-7.8515625,0,0,1,1.30441498756,,,,,2015_Nov_06_1629,K,facesParametric,15,59.6759180874,
./stim/MorphF7_04_orig.jpg,201,,,,,0,201,201,201,,,,,,,,,,,,,,,,,,,-3.984375,-7.8515625,0,0,1,3.41730308533,,,,,2015_Nov_06_1629,K,facesParametric,15,59.6759180874,
./stim/MorphM9_00_orig.jpg,202,,,,,0,202,202,202,,,,,,,,,,,,,,,,,,,-3.984375,-7.8515625,1,0,0,1.54048991203,,,,,2015_Nov_06_1629,K,facesParametric,15,59.6759180874,
./stim/MorphF3_05_orig.jpg,203,,,,,0,203,203,203,,,,,,,,,,,,,,,,,,,-3.984375,-7.8515625,1,0,0,1.50735092163,,,,,2015_Nov_06_1629,K,facesParametric,15,59.6759180874,
./stim/MorphM5_01_orig.jpg,204,,,,,0,204,204,204,,,,,,,,,,,,,,,,,,,-3.984375,-7.8515625,1,0,0,1.12178516388,,,,,2015_Nov_06_1629,K,facesParametric,15,59.6759180874,
./stim/MorphM7_10_orig.jpg,205,,,,,0,205,205,205,,,,,,,,,,,,,,,,,,,-3.984375,-7.8515625,0,0,1,1.20539903641,,,,,2015_Nov_06_1629,K,facesParametric,15,59.6759180874,
./stim/MorphF8_01_orig.jpg,206,,,,,0,206,206,206,,,,,,,,,,,,,,,,,,,-3.984375,-7.8515625,1,0,0,3.41577792168,,,,,2015_Nov_06_1629,K,facesParametric,15,59.6759180874,
./stim/MorphM2_09_orig.jpg,207,,,,,0,207,207,207,,,,,,,,,,,,,,,,,,,-3.984375,-7.8515625,0,0,1,1.89123916626,,,,,2015_Nov_06_1629,K,facesParametric,15,59.6759180874,
./stim/MorphM6_10_orig.jpg,208,,,,,0,208,208,208,,,,,,,,,,,,,,,,,,,-3.984375,-7.8515625,0,0,1,0.87001991272,,,,,2015_Nov_06_1629,K,facesParametric,15,59.6759180874,
./stim/MorphM8_06_orig.jpg,209,,,,,0,209,209,209,,,,,,,,,,,,,,,,,,,-3.984375,-7.8515625,0,0,1,1.60802912712,,,,,2015_Nov_06_1629,K,facesParametric,15,59.6759180874,
./stim/MorphM2_01_orig.jpg,210,,,,,0,210,210,210,,,,,,,,,,,,,,,,,,,-3.984375,-7.8515625,1,0,0,0.786237955093,,,,,2015_Nov_06_1629,K,facesParametric,15,59.6759180874,
./stim/MorphF8_07_orig.jpg,211,,,,,0,211,211,211,,,,,,,,,,,,,,,,,,,-3.984375,-7.8515625,1,0,0,4.65759301186,,,,,2015_Nov_06_1629,K,facesParametric,15,59.6759180874,
./stim/MorphF6_05_orig.jpg,212,,,,,0,212,212,212,,,,,,,,,,,,,,,,,,,-3.984375,-7.8515625,0,0,1,1.17225003242,,,,,2015_Nov_06_1629,K,facesParametric,15,59.6759180874,
./stim/MorphF1_08_orig.jpg,213,,,,,0,213,213,213,,,,,,,,,,,,,,,,,,,-3.984375,-7.8515625,0,0,1,0.920392990112,,,,,2015_Nov_06_1629,K,facesParametric,15,59.6759180874,
./stim/MorphM2_05_orig.jpg,214,,,,,0,214,214,214,,,,,,,,,,,,,,,,,,,-3.984375,-7.8515625,1,0,0,2.64540195465,,,,,2015_Nov_06_1629,K,facesParametric,15,59.6759180874,
./stim/MorphM6_00_orig.jpg,215,,,,,0,215,215,215,,,,,,,,,,,,,,,,,,,-3.984375,-7.8515625,1,0,0,0.735613107681,,,,,2015_Nov_06_1629,K,facesParametric,15,59.6759180874,
./stim/MorphF2_06_orig.jpg,216,,,,,0,216,216,216,,,,,,,,,,,,,,,,,,,-3.984375,-7.8515625,0,0,1,0.970613956451,,,,,2015_Nov_06_1629,K,facesParametric,15,59.6759180874,
./stim/MorphM3_04_orig.jpg,217,,,,,0,217,217,217,,,,,,,,,,,,,,,,,,,-3.984375,-7.8515625,1,0,0,2.00971198082,,,,,2015_Nov_06_1629,K,facesParametric,15,59.6759180874,
./stim/MorphM8_03_orig.jpg,218,,,,,0,218,218,218,,,,,,,,,,,,,,,,,,,-3.984375,-7.8515625,0,0,1,1.60606002808,,,,,2015_Nov_06_1629,K,facesParametric,15,59.6759180874,
./stim/MorphM3_01_orig.jpg,219,,,,,0,219,219,219,,,,,,,,,,,,,,,,,,,-3.984375,-7.8515625,1,0,0,2.76405310631,,,,,2015_Nov_06_1629,K,facesParametric,15,59.6759180874,
,,,,,,,,,,,,,,,,,,,,,,,,,,,,,,,,,,return,41.5982439518,,,2015_Nov_06_1629,K,facesParametric,15,59.6759180874,
./stim/MorphM7_04_orig.jpg,0,,,,,,,,,0,0,0,0,,,,,,,,,,,,,,,-14.765625,-8.759765625,1,0,0,2.65059995651,,,,,2015_Nov_06_1629,K,facesParametric,15,59.6759180874,
./stim/MorphF3_03_orig.jpg,1,,,,,,,,,0,1,1,1,,,,,,,,,,,,,,,-14.765625,-8.759765625,1,0,0,0.903551101685,,,,,2015_Nov_06_1629,K,facesParametric,15,59.6759180874,
./stim/MorphF6_01_orig.jpg,2,,,,,,,,,0,2,2,2,,,,,,,,,,,,,,,-14.765625,-8.759765625,1,0,0,1.57387518883,,,,,2015_Nov_06_1629,K,facesParametric,15,59.6759180874,
./stim/MorphM10_09_orig.jpg,3,,,,,,,,,0,3,3,3,,,,,,,,,,,,,,,-14.765625,-8.759765625,0,0,1,0.869939088821,,,,,2015_Nov_06_1629,K,facesParametric,15,59.6759180874,
./stim/MorphF2_00_orig.jpg,4,,,,,,,,,0,4,4,4,,,,,,,,,,,,,,,-14.765625,-8.759765625,1,0,0,1.07126188278,,,,,2015_Nov_06_1629,K,facesParametric,15,59.6759180874,
./stim/MorphF10_05_orig.jpg,5,,,,,,,,,0,5,5,5,,,,,,,,,,,,,,,-14.765625,-8.759765625,0,0,1,1.39012002945,,,,,2015_Nov_06_1629,K,facesParametric,15,59.6759180874,
./stim/MorphF6_02_orig.jpg,6,,,,,,,,,0,6,6,6,,,,,,,,,,,,,,,-14.765625,-8.759765625,1,0,0,1.05435013771,,,,,2015_Nov_06_1629,K,facesParametric,15,59.6759180874,
./stim/MorphF9_06_orig.jpg,7,,,,,,,,,0,7,7,7,,,,,,,,,,,,,,,-14.765625,-8.759765625,1,0,0,1.00236392021,,,,,2015_Nov_06_1629,K,facesParametric,15,59.6759180874,
./stim/MorphF6_05_orig.jpg,8,,,,,,,,,0,8,8,8,,,,,,,,,,,,,,,-14.765625,-8.759765625,1,0,0,1.45720720291,,,,,2015_Nov_06_1629,K,facesParametric,15,59.6759180874,
./stim/MorphM5_07_orig.jpg,9,,,,,,,,,0,9,9,9,,,,,,,,,,,,,,,-14.765625,-8.759765625,0,0,1,1.65678215027,,,,,2015_Nov_06_1629,K,facesParametric,15,59.6759180874,
./stim/MorphF1_01_orig.jpg,10,,,,,,,,,0,10,10,10,,,,,,,,,,,,,,,-14.765625,-8.759765625,1,0,0,1.25231289864,,,,,2015_Nov_06_1629,K,facesParametric,15,59.6759180874,
./stim/MorphM10_06_orig.jpg,11,,,,,,,,,0,11,11,11,,,,,,,,,,,,,,,-14.765625,-8.759765625,0,0,1,0.684151887894,,,,,2015_Nov_06_1629,K,facesParametric,15,59.6759180874,
./stim/MorphM1_05_orig.jpg,12,,,,,,,,,0,12,12,12,,,,,,,,,,,,,,,-14.765625,-8.759765625,1,0,0,1.18753504753,,,,,2015_Nov_06_1629,K,facesParametric,15,59.6759180874,
./stim/MorphF4_01_orig.jpg,13,,,,,,,,,0,13,13,13,,,,,,,,,,,,,,,-14.765625,-8.759765625,0,0,1,1.94306588173,,,,,2015_Nov_06_1629,K,facesParametric,15,59.6759180874,
./stim/MorphM8_06_orig.jpg,14,,,,,,,,,0,14,14,14,,,,,,,,,,,,,,,-14.765625,-8.759765625,0,0,1,0.719380140305,,,,,2015_Nov_06_1629,K,facesParametric,15,59.6759180874,
./stim/MorphM1_00_orig.jpg,15,,,,,,,,,0,15,15,15,,,,,,,,,,,,,,,-14.765625,-8.759765625,1,0,0,1.08738183975,,,,,2015_Nov_06_1629,K,facesParametric,15,59.6759180874,
./stim/MorphF8_10_orig.jpg,16,,,,,,,,,0,16,16,16,,,,,,,,,,,,,,,-14.765625,-8.759765625,0,0,1,3.35080194473,,,,,2015_Nov_06_1629,K,facesParametric,15,59.6759180874,
./stim/MorphM9_03_orig.jpg,17,,,,,,,,,0,17,17,17,,,,,,,,,,,,,,,-14.765625,-8.759765625,1,0,0,3.03151607513,,,,,2015_Nov_06_1629,K,facesParametric,15,59.6759180874,
./stim/MorphF1_03_orig.jpg,18,,,,,,,,,0,18,18,18,,,,,,,,,,,,,,,-14.765625,-8.759765625,1,0,0,4.10506701469,,,,,2015_Nov_06_1629,K,facesParametric,15,59.6759180874,
./stim/MorphM7_10_orig.jpg,19,,,,,,,,,0,19,19,19,,,,,,,,,,,,,,,-14.765625,-8.759765625,0,0,1,0.937146186829,,,,,2015_Nov_06_1629,K,facesParametric,15,59.6759180874,
./stim/MorphF7_02_orig.jpg,20,,,,,,,,,0,20,20,20,,,,,,,,,,,,,,,-14.765625,-8.759765625,0,0,1,1.22219920158,,,,,2015_Nov_06_1629,K,facesParametric,15,59.6759180874,
./stim/MorphF4_03_orig.jpg,21,,,,,,,,,0,21,21,21,,,,,,,,,,,,,,,-14.765625,-8.759765625,1,0,0,1.03797316551,,,,,2015_Nov_06_1629,K,facesParametric,15,59.6759180874,
./stim/MorphM10_10_orig.jpg,22,,,,,,,,,0,22,22,22,,,,,,,,,,,,,,,-14.765625,-8.759765625,0,0,1,0.734090089798,,,,,2015_Nov_06_1629,K,facesParametric,15,59.6759180874,
./stim/MorphF7_04_orig.jpg,23,,,,,,,,,0,23,23,23,,,,,,,,,,,,,,,-14.765625,-8.759765625,1,0,0,3.90335798264,,,,,2015_Nov_06_1629,K,facesParametric,15,59.6759180874,
./stim/MorphF10_10_orig.jpg,24,,,,,,,,,0,24,24,24,,,,,,,,,,,,,,,-14.765625,-8.759765625,0,0,1,0.635726928711,,,,,2015_Nov_06_1629,K,facesParametric,15,59.6759180874,
./stim/MorphM3_08_orig.jpg,25,,,,,,,,,0,25,25,25,,,,,,,,,,,,,,,-14.765625,-8.818359375,0,0,1,1.23853993416,,,,,2015_Nov_06_1629,K,facesParametric,15,59.6759180874,
./stim/MorphM4_08_orig.jpg,26,,,,,,,,,0,26,26,26,,,,,,,,,,,,,,,-14.794921875,-8.84765625,0,0,1,0.968320131302,,,,,2015_Nov_06_1629,K,facesParametric,15,59.6759180874,
./stim/MorphM10_03_orig.jpg,27,,,,,,,,,0,27,27,27,,,,,,,,,,,,,,,-14.853515625,-8.84765625,1,0,0,3.97009587288,,,,,2015_Nov_06_1629,K,facesParametric,15,59.6759180874,
./stim/MorphM1_07_orig.jpg,28,,,,,,,,,0,28,28,28,,,,,,,,,,,,,,,-14.853515625,-8.84765625,1,0,0,2.05956983566,,,,,2015_Nov_06_1629,K,facesParametric,15,59.6759180874,
./stim/MorphF6_09_orig.jpg,29,,,,,,,,,0,29,29,29,,,,,,,,,,,,,,,-14.853515625,-8.96484375,0,0,1,0.668508052826,,,,,2015_Nov_06_1629,K,facesParametric,15,59.6759180874,
./stim/MorphM3_09_orig.jpg,30,,,,,,,,,0,30,30,30,,,,,,,,,,,,,,,-14.853515625,-8.994140625,0,0,1,1.25413012505,,,,,2015_Nov_06_1629,K,facesParametric,15,59.6759180874,
./stim/MorphM5_09_orig.jpg,31,,,,,,,,,0,31,31,31,,,,,,,,,,,,,,,-14.853515625,-9.0234375,0,0,1,0.870151042938,,,,,2015_Nov_06_1629,K,facesParametric,15,59.6759180874,
./stim/MorphM6_01_orig.jpg,32,,,,,,,,,0,32,32,32,,,,,,,,,,,,,,,-14.853515625,-9.0234375,1,0,0,1.28779792786,,,,,2015_Nov_06_1629,K,facesParametric,15,59.6759180874,
./stim/MorphF5_03_orig.jpg,33,,,,,,,,,0,33,33,33,,,,,,,,,,,,,,,-14.853515625,-9.0234375,1,0,0,0.836460113525,,,,,2015_Nov_06_1629,K,facesParametric,15,59.6759180874,
./stim/MorphF3_09_orig.jpg,34,,,,,,,,,0,34,34,34,,,,,,,,,,,,,,,-14.853515625,-9.0234375,0,0,1,1.99315190315,,,,,2015_Nov_06_1629,K,facesParametric,15,59.6759180874,
./stim/MorphM5_02_orig.jpg,35,,,,,,,,,0,35,35,35,,,,,,,,,,,,,,,-14.853515625,-9.0234375,1,0,0,0.9207239151,,,,,2015_Nov_06_1629,K,facesParametric,15,59.6759180874,
./stim/MorphF7_03_orig.jpg,36,,,,,,,,,0,36,36,36,,,,,,,,,,,,,,,-14.853515625,-9.0234375,1,0,0,1.65792107582,,,,,2015_Nov_06_1629,K,facesParametric,15,59.6759180874,
./stim/MorphM10_02_orig.jpg,37,,,,,,,,,0,37,37,37,,,,,,,,,,,,,,,-14.853515625,-9.0234375,1,0,0,1.236743927,,,,,2015_Nov_06_1629,K,facesParametric,15,59.6759180874,
./stim/MorphF3_00_orig.jpg,38,,,,,,,,,0,38,38,38,,,,,,,,,,,,,,,-14.853515625,-9.0234375,1,0,0,1.05239009857,,,,,2015_Nov_06_1629,K,facesParametric,15,59.6759180874,
./stim/MorphF8_04_orig.jpg,39,,,,,,,,,0,39,39,39,,,,,,,,,,,,,,,-14.853515625,-9.0234375,1,0,0,1.35459303856,,,,,2015_Nov_06_1629,K,facesParametric,15,59.6759180874,
./stim/MorphM3_01_orig.jpg,40,,,,,,,,,0,40,40,40,,,,,,,,,,,,,,,-14.853515625,-9.0234375,1,0,0,1.92707586288,,,,,2015_Nov_06_1629,K,facesParametric,15,59.6759180874,
./stim/MorphM10_05_orig.jpg,41,,,,,,,,,0,41,41,41,,,,,,,,,,,,,,,-14.853515625,-9.0234375,1,0,0,3.13218712807,,,,,2015_Nov_06_1629,K,facesParametric,15,59.6759180874,
./stim/MorphF1_08_orig.jpg,42,,,,,,,,,0,42,42,42,,,,,,,,,,,,,,,-14.853515625,-9.052734375,0,0,1,1.4221508503,,,,,2015_Nov_06_1629,K,facesParametric,15,59.6759180874,
./stim/MorphF9_04_orig.jpg,43,,,,,,,,,0,43,43,43,,,,,,,,,,,,,,,-14.853515625,-9.052734375,1,0,0,1.07118701935,,,,,2015_Nov_06_1629,K,facesParametric,15,59.6759180874,
./stim/MorphF1_05_orig.jpg,44,,,,,,,,,0,44,44,44,,,,,,,,,,,,,,,-14.853515625,-9.111328125,1,0,0,1.32059597969,,,,,2015_Nov_06_1629,K,facesParametric,15,59.6759180874,
./stim/MorphM5_10_orig.jpg,45,,,,,,,,,0,45,45,45,,,,,,,,,,,,,,,-14.853515625,-9.111328125,0,0,1,1.02059102058,,,,,2015_Nov_06_1629,K,facesParametric,15,59.6759180874,
./stim/MorphF4_08_orig.jpg,46,,,,,,,,,0,46,46,46,,,,,,,,,,,,,,,-14.853515625,-9.111328125,0,0,1,1.3564081192,,,,,2015_Nov_06_1629,K,facesParametric,15,59.6759180874,
./stim/MorphM2_04_orig.jpg,47,,,,,,,,,0,47,47,47,,,,,,,,,,,,,,,-14.853515625,-9.111328125,1,0,0,0.985611915588,,,,,2015_Nov_06_1629,K,facesParametric,15,59.6759180874,
./stim/MorphM3_07_orig.jpg,48,,,,,,,,,0,48,48,48,,,,,,,,,,,,,,,-14.853515625,-9.111328125,0,0,1,1.00405311584,,,,,2015_Nov_06_1629,K,facesParametric,15,59.6759180874,
./stim/MorphM8_03_orig.jpg,49,,,,,,,,,0,49,49,49,,,,,,,,,,,,,,,-14.853515625,-9.111328125,0,0,1,2.1608979702,,,,,2015_Nov_06_1629,K,facesParametric,15,59.6759180874,
./stim/MorphF2_10_orig.jpg,50,,,,,,,,,0,50,50,50,,,,,,,,,,,,,,,-14.853515625,-9.111328125,0,0,1,0.803131103516,,,,,2015_Nov_06_1629,K,facesParametric,15,59.6759180874,
./stim/MorphF4_09_orig.jpg,51,,,,,,,,,0,51,51,51,,,,,,,,,,,,,,,-14.853515625,-9.140625,0,0,1,0.988489151001,,,,,2015_Nov_06_1629,K,facesParametric,15,59.6759180874,
./stim/MorphM2_09_orig.jpg,52,,,,,,,,,0,52,52,52,,,,,,,,,,,,,,,-14.853515625,-9.140625,0,0,1,1.12086009979,,,,,2015_Nov_06_1629,K,facesParametric,15,59.6759180874,
./stim/MorphF2_04_orig.jpg,53,,,,,,,,,0,53,53,53,,,,,,,,,,,,,,,-14.853515625,-9.140625,0,0,1,1.42344903946,,,,,2015_Nov_06_1629,K,facesParametric,15,59.6759180874,
./stim/MorphF5_02_orig.jpg,54,,,,,,,,,0,54,54,54,,,,,,,,,,,,,,,-14.853515625,-9.140625,1,0,0,1.07116293907,,,,,2015_Nov_06_1629,K,facesParametric,15,59.6759180874,
./stim/MorphF9_00_orig.jpg,55,,,,,,,,,0,55,55,55,,,,,,,,,,,,,,,-14.853515625,-9.140625,0,0,1,0.886729001999,,,,,2015_Nov_06_1629,K,facesParametric,15,59.6759180874,
./stim/MorphF5_07_orig.jpg,56,,,,,,,,,0,56,56,56,,,,,,,,,,,,,,,-14.853515625,-9.140625,0,0,1,5.56296014786,,,,,2015_Nov_06_1629,K,facesParametric,15,59.6759180874,
./stim/MorphF8_01_orig.jpg,57,,,,,,,,,0,57,57,57,,,,,,,,,,,,,,,-14.853515625,-9.140625,0,0,1,1.6912009716,,,,,2015_Nov_06_1629,K,facesParametric,15,59.6759180874,
./stim/MorphF5_06_orig.jpg,58,,,,,,,,,0,58,58,58,,,,,,,,,,,,,,,-14.853515625,-9.140625,0,0,1,1.60740089417,,,,,2015_Nov_06_1629,K,facesParametric,15,59.6759180874,
./stim/MorphM2_00_orig.jpg,59,,,,,,,,,0,59,59,59,,,,,,,,,,,,,,,-14.853515625,-9.140625,1,0,0,0.969108104706,,,,,2015_Nov_06_1629,K,facesParametric,15,59.6759180874,
./stim/MorphM7_07_orig.jpg,60,,,,,,,,,0,60,60,60,,,,,,,,,,,,,,,-14.853515625,-9.140625,0,0,1,1.08595705032,,,,,2015_Nov_06_1629,K,facesParametric,15,59.6759180874,
./stim/MorphF7_08_orig.jpg,61,,,,,,,,,0,61,61,61,,,,,,,,,,,,,,,-14.853515625,-9.140625,0,0,1,2.11089706421,,,,,2015_Nov_06_1629,K,facesParametric,15,59.6759180874,
./stim/MorphF4_06_orig.jpg,62,,,,,,,,,0,62,62,62,,,,,,,,,,,,,,,-14.853515625,-9.140625,0,0,1,0.853482961655,,,,,2015_Nov_06_1629,K,facesParametric,15,59.6759180874,
./stim/MorphM1_01_orig.jpg,63,,,,,,,,,0,63,63,63,,,,,,,,,,,,,,,-14.853515625,-9.140625,1,0,0,0.885143041611,,,,,2015_Nov_06_1629,K,facesParametric,15,59.6759180874,
./stim/MorphF5_10_orig.jpg,64,,,,,,,,,0,64,64,64,,,,,,,,,,,,,,,-14.853515625,-9.140625,0,0,1,0.902001142502,,,,,2015_Nov_06_1629,K,facesParametric,15,59.6759180874,
./stim/MorphM4_06_orig.jpg,65,,,,,,,,,0,65,65,65,,,,,,,,,,,,,,,-14.853515625,-9.140625,0,0,1,0.921326875687,,,,,2015_Nov_06_1629,K,facesParametric,15,59.6759180874,
./stim/MorphF4_10_orig.jpg,66,,,,,,,,,0,66,66,66,,,,,,,,,,,,,,,-14.853515625,-9.140625,0,0,1,0.699800014496,,,,,2015_Nov_06_1629,K,facesParametric,15,59.6759180874,
./stim/MorphF6_04_orig.jpg,67,,,,,,,,,0,67,67,67,,,,,,,,,,,,,,,-14.853515625,-9.140625,1,0,0,1.92596697807,,,,,2015_Nov_06_1629,K,facesParametric,15,59.6759180874,
./stim/MorphF2_09_orig.jpg,68,,,,,,,,,0,68,68,68,,,,,,,,,,,,,,,-14.853515625,-9.140625,0,0,1,0.752687931061,,,,,2015_Nov_06_1629,K,facesParametric,15,59.6759180874,
./stim/MorphF5_04_orig.jpg,69,,,,,,,,,0,69,69,69,,,,,,,,,,,,,,,-14.853515625,-9.140625,1,0,0,3.18325686455,,,,,2015_Nov_06_1629,K,facesParametric,15,59.6759180874,
./stim/MorphM4_07_orig.jpg,70,,,,,,,,,0,70,70,70,,,,,,,,,,,,,,,-14.853515625,-9.140625,0,0,1,1.85892510414,,,,,2015_Nov_06_1629,K,facesParametric,15,59.6759180874,
./stim/MorphF9_08_orig.jpg,71,,,,,,,,,0,71,71,71,,,,,,,,,,,,,,,-14.853515625,-9.140625,0,0,1,1.57388997078,,,,,2015_Nov_06_1629,K,facesParametric,15,59.6759180874,
./stim/MorphM4_02_orig.jpg,72,,,,,,,,,0,72,72,72,,,,,,,,,,,,,,,-14.853515625,-9.140625,1,0,0,0.836727142334,,,,,2015_Nov_06_1629,K,facesParametric,15,59.6759180874,
./stim/MorphF10_09_orig.jpg,73,,,,,,,,,0,73,73,73,,,,,,,,,,,,,,,-14.853515625,-9.140625,0,0,1,0.786401987076,,,,,2015_Nov_06_1629,K,facesParametric,15,59.6759180874,
./stim/MorphM9_07_orig.jpg,74,,,,,,,,,0,74,74,74,,,,,,,,,,,,,,,-14.853515625,-9.140625,1,0,0,1.30625200272,,,,,2015_Nov_06_1629,K,facesParametric,15,59.6759180874,
./stim/MorphM4_05_orig.jpg,75,,,,,,,,,0,75,75,75,,,,,,,,,,,,,,,-14.853515625,-9.140625,0,0,1,1.72502398491,,,,,2015_Nov_06_1629,K,facesParametric,15,59.6759180874,
./stim/MorphM9_05_orig.jpg,76,,,,,,,,,0,76,76,76,,,,,,,,,,,,,,,-14.853515625,-9.140625,1,0,0,1.42153501511,,,,,2015_Nov_06_1629,K,facesParametric,15,59.6759180874,
./stim/MorphM8_10_orig.jpg,77,,,,,,,,,0,77,77,77,,,,,,,,,,,,,,,-14.853515625,-9.140625,0,0,1,1.99084210396,,,,,2015_Nov_06_1629,K,facesParametric,15,59.6759180874,
./stim/MorphM6_03_orig.jpg,78,,,,,,,,,0,78,78,78,,,,,,,,,,,,,,,-14.853515625,-9.140625,1,0,0,1.90922212601,,,,,2015_Nov_06_1629,K,facesParametric,15,59.6759180874,
./stim/MorphF8_07_orig.jpg,79,,,,,,,,,0,79,79,79,,,,,,,,,,,,,,,-14.853515625,-9.140625,0,0,1,1.1386051178,,,,,2015_Nov_06_1629,K,facesParametric,15,59.6759180874,
./stim/MorphF4_07_orig.jpg,80,,,,,,,,,0,80,80,80,,,,,,,,,,,,,,,-14.853515625,-9.140625,0,0,1,0.736763000488,,,,,2015_Nov_06_1629,K,facesParametric,15,59.6759180874,
./stim/MorphM1_06_orig.jpg,81,,,,,,,,,0,81,81,81,,,,,,,,,,,,,,,-14.853515625,-9.140625,1,0,0,3.24982905388,,,,,2015_Nov_06_1629,K,facesParametric,15,59.6759180874,
./stim/MorphF6_06_orig.jpg,82,,,,,,,,,0,82,82,82,,,,,,,,,,,,,,,-14.853515625,-9.169921875,0,0,1,1.02011919022,,,,,2015_Nov_06_1629,K,facesParametric,15,59.6759180874,
./stim/MorphM9_01_orig.jpg,83,,,,,,,,,0,83,83,83,,,,,,,,,,,,,,,-14.853515625,-9.169921875,1,0,0,0.751391887665,,,,,2015_Nov_06_1629,K,facesParametric,15,59.6759180874,
./stim/MorphF5_00_orig.jpg,84,,,,,,,,,0,84,84,84,,,,,,,,,,,,,,,-14.853515625,-9.169921875,1,0,0,0.803848981857,,,,,2015_Nov_06_1629,K,facesParametric,15,59.6759180874,
./stim/MorphF2_05_orig.jpg,85,,,,,,,,,0,85,85,85,,,,,,,,,,,,,,,-14.853515625,-9.169921875,0,0,1,1.84064507484,,,,,2015_Nov_06_1629,K,facesParametric,15,59.6759180874,
./stim/MorphM8_02_orig.jpg,86,,,,,,,,,0,86,86,86,,,,,,,,,,,,,,,-14.853515625,-9.169921875,1,0,0,1.15503382683,,,,,2015_Nov_06_1629,K,facesParametric,15,59.6759180874,
./stim/MorphF7_00_orig.jpg,87,,,,,,,,,0,87,87,87,,,,,,,,,,,,,,,-14.853515625,-9.169921875,1,0,0,0.752497911453,,,,,2015_Nov_06_1629,K,facesParametric,15,59.6759180874,
./stim/MorphF10_08_orig.jpg,88,,,,,,,,,0,88,88,88,,,,,,,,,,,,,,,-14.853515625,-9.169921875,0,0,1,0.769644975662,,,,,2015_Nov_06_1629,K,facesParametric,15,59.6759180874,
./stim/MorphF4_02_orig.jpg,89,,,,,,,,,0,89,89,89,,,,,,,,,,,,,,,-14.853515625,-9.2578125,1,0,0,6.18190097809,,,,,2015_Nov_06_1629,K,facesParametric,15,59.6759180874,
./stim/MorphM2_03_orig.jpg,90,,,,,,,,,0,90,90,90,,,,,,,,,,,,,,,-14.853515625,-9.2578125,1,0,0,0.951308012009,,,,,2015_Nov_06_1629,K,facesParametric,15,59.6759180874,
./stim/MorphM4_01_orig.jpg,91,,,,,,,,,0,91,91,91,,,,,,,,,,,,,,,-14.853515625,-9.2578125,1,0,0,1.22118115425,,,,,2015_Nov_06_1629,K,facesParametric,15,59.6759180874,
./stim/MorphF9_05_orig.jpg,92,,,,,,,,,0,92,92,92,,,,,,,,,,,,,,,-14.853515625,-9.2578125,1,0,0,1.20544910431,,,,,2015_Nov_06_1629,K,facesParametric,15,59.6759180874,
./stim/MorphM9_10_orig.jpg,93,,,,,,,,,0,93,93,93,,,,,,,,,,,,,,,-14.853515625,-9.2578125,0,0,1,0.803046941757,,,,,2015_Nov_06_1629,K,facesParametric,15,59.6759180874,
./stim/MorphF2_03_orig.jpg,94,,,,,,,,,0,94,94,94,,,,,,,,,,,,,,,-14.853515625,-9.2578125,1,0,0,4.70879817009,,,,,2015_Nov_06_1629,K,facesParametric,15,59.6759180874,
./stim/MorphF8_06_orig.jpg,95,,,,,,,,,0,95,95,95,,,,,,,,,,,,,,,-14.853515625,-9.2578125,0,0,1,1.99114012718,,,,,2015_Nov_06_1629,K,facesParametric,15,59.6759180874,
./stim/MorphM5_05_orig.jpg,96,,,,,,,,,0,96,96,96,,,,,,,,,,,,,,,-14.853515625,-9.2578125,1,0,0,1.33955717087,,,,,2015_Nov_06_1629,K,facesParametric,15,59.6759180874,
./stim/MorphF3_02_orig.jpg,97,,,,,,,,,0,97,97,97,,,,,,,,,,,,,,,-14.853515625,-9.2578125,1,0,0,0.97062420845,,,,,2015_Nov_06_1629,K,facesParametric,15,59.6759180874,
./stim/MorphF8_09_orig.jpg,98,,,,,,,,,0,98,98,98,,,,,,,,,,,,,,,-14.853515625,-9.2578125,0,0,1,0.819435119629,,,,,2015_Nov_06_1629,K,facesParametric,15,59.6759180874,
./stim/MorphF9_10_orig.jpg,99,,,,,,,,,0,99,99,99,,,,,,,,,,,,,,,-14.853515625,-9.2578125,0,0,1,0.767265796661,,,,,2015_Nov_06_1629,K,facesParametric,15,59.6759180874,
./stim/MorphF1_04_orig.jpg,100,,,,,,,,,0,100,100,100,,,,,,,,,,,,,,,-14.853515625,-9.2578125,1,0,0,0.702003002167,,,,,2015_Nov_06_1629,K,facesParametric,15,59.6759180874,
./stim/MorphM6_02_orig.jpg,101,,,,,,,,,0,101,101,101,,,,,,,,,,,,,,,-14.853515625,-9.2578125,1,0,0,1.54042100906,,,,,2015_Nov_06_1629,K,facesParametric,15,59.6759180874,
./stim/MorphF2_01_orig.jpg,102,,,,,,,,,0,102,102,102,,,,,,,,,,,,,,,-14.853515625,-9.2578125,1,0,0,2.04343390465,,,,,2015_Nov_06_1629,K,facesParametric,15,59.6759180874,
./stim/MorphM5_01_orig.jpg,103,,,,,,,,,0,103,103,103,,,,,,,,,,,,,,,-14.853515625,-9.2578125,1,0,0,1.18871617317,,,,,2015_Nov_06_1629,K,facesParametric,15,59.6759180874,
./stim/MorphM7_08_orig.jpg,104,,,,,,,,,0,104,104,104,,,,,,,,,,,,,,,-14.853515625,-9.2578125,1,0,0,1.3724091053,,,,,2015_Nov_06_1629,K,facesParametric,15,59.6759180874,
./stim/MorphM5_08_orig.jpg,105,,,,,,,,,0,105,105,105,,,,,,,,,,,,,,,-14.853515625,-9.2578125,0,0,1,1.6415810585,,,,,2015_Nov_06_1629,K,facesParametric,15,59.6759180874,
./stim/MorphM8_04_orig.jpg,106,,,,,,,,,0,106,106,106,,,,,,,,,,,,,,,-14.853515625,-9.2578125,1,0,0,1.89218878746,,,,,2015_Nov_06_1629,K,facesParametric,15,59.6759180874,
./stim/MorphM2_01_orig.jpg,107,,,,,,,,,0,107,107,107,,,,,,,,,,,,,,,-14.853515625,-9.2578125,1,0,0,1.54071903229,,,,,2015_Nov_06_1629,K,facesParametric,15,59.6759180874,
./stim/MorphF9_09_orig.jpg,108,,,,,,,,,0,108,108,108,,,,,,,,,,,,,,,-14.853515625,-9.2578125,0,0,1,1.13645911217,,,,,2015_Nov_06_1629,K,facesParametric,15,59.6759180874,
./stim/MorphM5_06_orig.jpg,109,,,,,,,,,0,109,109,109,,,,,,,,,,,,,,,-14.853515625,-9.2578125,0,0,1,1.25570988655,,,,,2015_Nov_06_1629,K,facesParametric,15,59.6759180874,
./stim/MorphF2_08_orig.jpg,110,,,,,,,,,0,110,110,110,,,,,,,,,,,,,,,-14.853515625,-9.2578125,0,0,1,1.60665607452,,,,,2015_Nov_06_1629,K,facesParametric,15,59.6759180874,
./stim/MorphF3_06_orig.jpg,111,,,,,,,,,0,111,111,111,,,,,,,,,,,,,,,-14.853515625,-9.2578125,1,0,0,1.03770017624,,,,,2015_Nov_06_1629,K,facesParametric,15,59.6759180874,
./stim/MorphM5_00_orig.jpg,112,,,,,,,,,0,112,112,112,,,,,,,,,,,,,,,-14.853515625,-9.2578125,1,0,0,1.10488414764,,,,,2015_Nov_06_1629,K,facesParametric,15,59.6759180874,
./stim/MorphF6_10_orig.jpg,113,,,,,,,,,0,113,113,113,,,,,,,,,,,,,,,-14.853515625,-9.2578125,0,0,1,0.786041021347,,,,,2015_Nov_06_1629,K,facesParametric,15,59.6759180874,
./stim/MorphM2_02_orig.jpg,114,,,,,,,,,0,114,114,114,,,,,,,,,,,,,,,-14.853515625,-9.2578125,1,0,0,0.76925110817,,,,,2015_Nov_06_1629,K,facesParametric,15,59.6759180874,
./stim/MorphF6_07_orig.jpg,115,,,,,,,,,0,115,115,115,,,,,,,,,,,,,,,-14.853515625,-9.2578125,0,0,1,0.753098964691,,,,,2015_Nov_06_1629,K,facesParametric,15,59.6759180874,
./stim/MorphF8_03_orig.jpg,116,,,,,,,,,0,116,116,116,,,,,,,,,,,,,,,-14.853515625,-9.2578125,1,0,0,2.64637708664,,,,,2015_Nov_06_1629,K,facesParametric,15,59.6759180874,
./stim/MorphF6_08_orig.jpg,117,,,,,,,,,0,117,117,117,,,,,,,,,,,,,,,-14.853515625,-9.2578125,0,0,1,1.85845208168,,,,,2015_Nov_06_1629,K,facesParametric,15,59.6759180874,
./stim/MorphM7_06_orig.jpg,118,,,,,,,,,0,118,118,118,,,,,,,,,,,,,,,-14.853515625,-9.2578125,1,0,0,0.91837310791,,,,,2015_Nov_06_1629,K,facesParametric,15,59.6759180874,
./stim/MorphF3_10_orig.jpg,119,,,,,,,,,0,119,119,119,,,,,,,,,,,,,,,-14.853515625,-9.2578125,1,0,0,1.82530498505,,,,,2015_Nov_06_1629,K,facesParametric,15,59.6759180874,
./stim/MorphF9_03_orig.jpg,120,,,,,,,,,0,120,120,120,,,,,,,,,,,,,,,-14.853515625,-9.2578125,1,0,0,3.21626591682,,,,,2015_Nov_06_1629,K,facesParametric,15,59.6759180874,
./stim/MorphM4_10_orig.jpg,121,,,,,,,,,0,121,121,121,,,,,,,,,,,,,,,-14.853515625,-9.2578125,0,0,1,1.15519213676,,,,,2015_Nov_06_1629,K,facesParametric,15,59.6759180874,
./stim/MorphM10_07_orig.jpg,122,,,,,,,,,0,122,122,122,,,,,,,,,,,,,,,-14.853515625,-9.2578125,0,0,1,0.920506954193,,,,,2015_Nov_06_1629,K,facesParametric,15,59.6759180874,
./stim/MorphF2_07_orig.jpg,123,,,,,,,,,0,123,123,123,,,,,,,,,,,,,,,-14.853515625,-9.2578125,0,0,1,0.736173152924,,,,,2015_Nov_06_1629,K,facesParametric,15,59.6759180874,
./stim/MorphM2_06_orig.jpg,124,,,,,,,,,0,124,124,124,,,,,,,,,,,,,,,-14.853515625,-9.2578125,0,0,1,2.88221907616,,,,,2015_Nov_06_1629,K,facesParametric,15,59.6759180874,
./stim/MorphM9_06_orig.jpg,125,,,,,,,,,0,125,125,125,,,,,,,,,,,,,,,-14.853515625,-9.2578125,0,0,1,2.16043782234,,,,,2015_Nov_06_1629,K,facesParametric,15,59.6759180874,
./stim/MorphM6_08_orig.jpg,126,,,,,,,,,0,126,126,126,,,,,,,,,,,,,,,-14.853515625,-9.2578125,0,0,1,0.902819156647,,,,,2015_Nov_06_1629,K,facesParametric,15,59.6759180874,
./stim/MorphM4_09_orig.jpg,127,,,,,,,,,0,127,127,127,,,,,,,,,,,,,,,-14.853515625,-9.2578125,0,0,1,0.786195993423,,,,,2015_Nov_06_1629,K,facesParametric,15,59.6759180874,
./stim/MorphM2_08_orig.jpg,128,,,,,,,,,0,128,128,128,,,,,,,,,,,,,,,-14.853515625,-9.2578125,0,0,1,1.27075099945,,,,,2015_Nov_06_1629,K,facesParametric,15,59.6759180874,
./stim/MorphM1_03_orig.jpg,129,,,,,,,,,0,129,129,129,,,,,,,,,,,,,,,-14.853515625,-9.2578125,1,0,0,0.736204147339,,,,,2015_Nov_06_1629,K,facesParametric,15,59.6759180874,
./stim/MorphM2_10_orig.jpg,130,,,,,,,,,0,130,130,130,,,,,,,,,,,,,,,-14.853515625,-9.2578125,0,0,1,0.887233972549,,,,,2015_Nov_06_1629,K,facesParametric,15,59.6759180874,
./stim/MorphM9_02_orig.jpg,131,,,,,,,,,0,131,131,131,,,,,,,,,,,,,,,-14.853515625,-9.2578125,1,0,0,1.57381510735,,,,,2015_Nov_06_1629,K,facesParametric,15,59.6759180874,
./stim/MorphM1_09_orig.jpg,132,,,,,,,,,0,132,132,132,,,,,,,,,,,,,,,-14.853515625,-9.2578125,0,0,1,1.12223792076,,,,,2015_Nov_06_1629,K,facesParametric,15,59.6759180874,
./stim/MorphM8_09_orig.jpg,133,,,,,,,,,0,133,133,133,,,,,,,,,,,,,,,-14.853515625,-9.2578125,0,0,1,0.870549917221,,,,,2015_Nov_06_1629,K,facesParametric,15,59.6759180874,
./stim/MorphF5_08_orig.jpg,134,,,,,,,,,0,134,134,134,,,,,,,,,,,,,,,-14.853515625,-9.2578125,0,0,1,0.819122076035,,,,,2015_Nov_06_1629,K,facesParametric,15,59.6759180874,
./stim/MorphM5_04_orig.jpg,135,,,,,,,,,0,135,135,135,,,,,,,,,,,,,,,-14.853515625,-9.2578125,1,0,0,1.37312221527,,,,,2015_Nov_06_1629,K,facesParametric,15,59.6759180874,
./stim/MorphF4_05_orig.jpg,136,,,,,,,,,0,136,136,136,,,,,,,,,,,,,,,-14.853515625,-9.2578125,0,0,1,2.09164595604,,,,,2015_Nov_06_1629,K,facesParametric,15,59.6759180874,
./stim/MorphF10_04_orig.jpg,137,,,,,,,,,0,137,137,137,,,,,,,,,,,,,,,-14.853515625,-9.2578125,0,0,1,2.04222488403,,,,,2015_Nov_06_1629,K,facesParametric,15,59.6759180874,
./stim/MorphF5_09_orig.jpg,138,,,,,,,,,0,138,138,138,,,,,,,,,,,,,,,-14.853515625,-9.2578125,0,0,1,1.23713779449,,,,,2015_Nov_06_1629,K,facesParametric,15,59.6759180874,
./stim/MorphF3_05_orig.jpg,139,,,,,,,,,0,139,139,139,,,,,,,,,,,,,,,-14.853515625,-9.2578125,1,0,0,1.25402712822,,,,,2015_Nov_06_1629,K,facesParametric,15,59.6759180874,
./stim/MorphF5_01_orig.jpg,140,,,,,,,,,0,140,140,140,,,,,,,,,,,,,,,-14.853515625,-9.2578125,1,0,0,1.071352005,,,,,2015_Nov_06_1629,K,facesParametric,15,59.6759180874,
./stim/MorphM6_10_orig.jpg,141,,,,,,,,,0,141,141,141,,,,,,,,,,,,,,,-14.853515625,-9.2578125,0,0,1,1.05446887016,,,,,2015_Nov_06_1629,K,facesParametric,15,59.6759180874,
./stim/MorphM5_03_orig.jpg,142,,,,,,,,,0,142,142,142,,,,,,,,,,,,,,,-14.853515625,-9.2578125,1,0,0,1.49026608467,,,,,2015_Nov_06_1629,K,facesParametric,15,59.6759180874,
./stim/MorphM1_02_orig.jpg,143,,,,,,,,,0,143,143,143,,,,,,,,,,,,,,,-14.853515625,-9.2578125,1,0,0,1.2726380825,,,,,2015_Nov_06_1629,K,facesParametric,15,59.6759180874,
./stim/MorphF9_07_orig.jpg,144,,,,,,,,,0,144,144,144,,,,,,,,,,,,,,,-14.853515625,-9.2578125,0,0,1,1.99342417717,,,,,2015_Nov_06_1629,K,facesParametric,15,59.6759180874,
./stim/MorphM1_10_orig.jpg,145,,,,,,,,,0,145,145,145,,,,,,,,,,,,,,,-14.853515625,-9.2578125,0,0,1,0.936611890793,,,,,2015_Nov_06_1629,K,facesParametric,15,59.6759180874,
./stim/MorphM2_07_orig.jpg,146,,,,,,,,,0,146,146,146,,,,,,,,,,,,,,,-14.853515625,-9.2578125,0,0,1,0.902727127075,,,,,2015_Nov_06_1629,K,facesParametric,15,59.6759180874,
./stim/MorphF2_02_orig.jpg,147,,,,,,,,,0,147,147,147,,,,,,,,,,,,,,,-14.853515625,-9.2578125,0,0,1,1.80830788612,,,,,2015_Nov_06_1629,K,facesParametric,15,59.6759180874,
./stim/MorphM9_08_orig.jpg,148,,,,,,,,,0,148,148,148,,,,,,,,,,,,,,,-14.853515625,-9.2578125,0,0,1,1.03897285461,,,,,2015_Nov_06_1629,K,facesParametric,15,59.6759180874,
./stim/MorphF8_02_orig.jpg,149,,,,,,,,,0,149,149,149,,,,,,,,,,,,,,,-14.853515625,-9.2578125,1,0,0,2.86325788498,,,,,2015_Nov_06_1629,K,facesParametric,15,59.6759180874,
./stim/MorphM4_03_orig.jpg,150,,,,,,,,,0,150,150,150,,,,,,,,,,,,,,,-14.853515625,-9.2578125,1,0,0,0.952198982239,,,,,2015_Nov_06_1629,K,facesParametric,15,59.6759180874,
./stim/MorphF6_03_orig.jpg,151,,,,,,,,,0,151,151,151,,,,,,,,,,,,,,,-14.853515625,-9.2578125,0,0,1,1.5056951046,,,,,2015_Nov_06_1629,K,facesParametric,15,59.6759180874,
./stim/MorphF8_05_orig.jpg,152,,,,,,,,,0,152,152,152,,,,,,,,,,,,,,,-14.853515625,-9.2578125,0,0,1,1.8421959877,,,,,2015_Nov_06_1629,K,facesParametric,15,59.6759180874,
./stim/MorphF7_10_orig.jpg,153,,,,,,,,,0,153,153,153,,,,,,,,,,,,,,,-14.853515625,-9.2578125,0,0,1,1.25621891022,,,,,2015_Nov_06_1629,K,facesParametric,15,59.6759180874,
./stim/MorphF3_01_orig.jpg,154,,,,,,,,,0,154,154,154,,,,,,,,,,,,,,,-14.853515625,-9.2578125,1,0,0,0.987158060074,,,,,2015_Nov_06_1629,K,facesParametric,15,59.6759180874,
./stim/MorphF1_10_orig.jpg,155,,,,,,,,,0,155,155,155,,,,,,,,,,,,,,,-14.853515625,-9.2578125,0,0,1,4.54050898552,,,,,2015_Nov_06_1629,K,facesParametric,15,59.6759180874,
./stim/MorphM6_07_orig.jpg,156,,,,,,,,,0,156,156,156,,,,,,,,,,,,,,,-14.853515625,-9.2578125,0,0,1,1.07140493393,,,,,2015_Nov_06_1629,K,facesParametric,15,59.6759180874,
./stim/MorphF6_00_orig.jpg,157,,,,,,,,,0,157,157,157,,,,,,,,,,,,,,,-14.853515625,-9.2578125,1,0,0,0.869476079941,,,,,2015_Nov_06_1629,K,facesParametric,15,59.6759180874,
./stim/MorphM10_08_orig.jpg,158,,,,,,,,,0,158,158,158,,,,,,,,,,,,,,,-14.853515625,-9.2578125,0,0,1,0.818861961365,,,,,2015_Nov_06_1629,K,facesParametric,15,59.6759180874,
./stim/MorphF3_08_orig.jpg,159,,,,,,,,,0,159,159,159,,,,,,,,,,,,,,,-14.853515625,-9.2578125,1,0,0,0.700486183167,,,,,2015_Nov_06_1629,K,facesParametric,15,59.6759180874,
./stim/MorphM4_04_orig.jpg,160,,,,,,,,,0,160,160,160,,,,,,,,,,,,,,,-14.853515625,-9.2578125,1,0,0,1.68914890289,,,,,2015_Nov_06_1629,K,facesParametric,15,59.6759180874,
./stim/MorphM9_04_orig.jpg,161,,,,,,,,,0,161,161,161,,,,,,,,,,,,,,,-14.853515625,-9.2578125,1,0,0,1.05423808098,,,,,2015_Nov_06_1629,K,facesParametric,15,59.6759180874,
./stim/MorphF4_04_orig.jpg,162,,,,,,,,,0,162,162,162,,,,,,,,,,,,,,,-14.853515625,-9.2578125,1,0,0,1.4398059845,,,,,2015_Nov_06_1629,K,facesParametric,15,59.6759180874,
./stim/MorphM8_08_orig.jpg,163,,,,,,,,,0,163,163,163,,,,,,,,,,,,,,,-14.853515625,-9.2578125,0,0,1,0.988408088684,,,,,2015_Nov_06_1629,K,facesParametric,15,59.6759180874,
./stim/MorphM7_01_orig.jpg,164,,,,,,,,,0,164,164,164,,,,,,,,,,,,,,,-14.853515625,-9.2578125,1,0,0,0.85107922554,,,,,2015_Nov_06_1629,K,facesParametric,15,59.6759180874,
./stim/MorphM8_00_orig.jpg,165,,,,,,,,,0,165,165,165,,,,,,,,,,,,,,,-14.853515625,-9.2578125,1,0,0,1.25651812553,,,,,2015_Nov_06_1629,K,facesParametric,15,59.6759180874,
./stim/MorphM6_04_orig.jpg,166,,,,,,,,,0,166,166,166,,,,,,,,,,,,,,,-14.853515625,-9.2578125,1,0,0,1.27003312111,,,,,2015_Nov_06_1629,K,facesParametric,15,59.6759180874,
./stim/MorphM9_09_orig.jpg,167,,,,,,,,,0,167,167,167,,,,,,,,,,,,,,,-14.853515625,-9.2578125,0,0,1,1.10308003426,,,,,2015_Nov_06_1629,K,facesParametric,15,59.6759180874,
./stim/MorphF1_06_orig.jpg,168,,,,,,,,,0,168,168,168,,,,,,,,,,,,,,,-14.853515625,-9.2578125,0,0,1,2.2960050106,,,,,2015_Nov_06_1629,K,facesParametric,15,59.6759180874,
./stim/MorphM7_02_orig.jpg,169,,,,,,,,,0,169,169,169,,,,,,,,,,,,,,,-14.853515625,-9.2578125,1,0,0,2.50940895081,,,,,2015_Nov_06_1629,K,facesParametric,15,59.6759180874,
./stim/MorphF7_06_orig.jpg,170,,,,,,,,,0,170,170,170,,,,,,,,,,,,,,,-14.853515625,-9.2578125,0,0,1,1.01881504059,,,,,2015_Nov_06_1629,K,facesParametric,15,59.6759180874,
./stim/MorphM9_00_orig.jpg,171,,,,,,,,,0,171,171,171,,,,,,,,,,,,,,,-14.853515625,-9.2578125,1,0,0,0.903345823288,,,,,2015_Nov_06_1629,K,facesParametric,15,59.6759180874,
./stim/MorphM3_04_orig.jpg,172,,,,,,,,,0,172,172,172,,,,,,,,,,,,,,,-14.853515625,-9.2578125,1,0,0,1.92425489426,,,,,2015_Nov_06_1629,K,facesParametric,15,59.6759180874,
./stim/MorphF7_09_orig.jpg,173,,,,,,,,,0,173,173,173,,,,,,,,,,,,,,,-14.853515625,-9.2578125,0,0,1,2.81355714798,,,,,2015_Nov_06_1629,K,facesParametric,15,59.6759180874,
./stim/MorphM8_07_orig.jpg,174,,,,,,,,,0,174,174,174,,,,,,,,,,,,,,,-14.853515625,-9.2578125,0,0,1,0.85345697403,,,,,2015_Nov_06_1629,K,facesParametric,15,59.6759180874,
./stim/MorphF1_02_orig.jpg,175,,,,,,,,,0,175,175,175,,,,,,,,,,,,,,,-14.853515625,-9.2578125,1,0,0,1.00441908836,,,,,2015_Nov_06_1629,K,facesParametric,15,59.6759180874,
./stim/MorphM7_00_orig.jpg,176,,,,,,,,,0,176,176,176,,,,,,,,,,,,,,,-14.853515625,-9.2578125,1,0,0,1.07097387314,,,,,2015_Nov_06_1629,K,facesParametric,15,59.6759180874,
./stim/MorphF10_03_orig.jpg,177,,,,,,,,,0,177,177,177,,,,,,,,,,,,,,,-14.853515625,-9.2578125,0,0,1,2.3777680397,,,,,2015_Nov_06_1629,K,facesParametric,15,59.6759180874,
./stim/MorphM8_01_orig.jpg,178,,,,,,,,,0,178,178,178,,,,,,,,,,,,,,,-14.853515625,-9.2578125,1,0,0,3.9019370079,,,,,2015_Nov_06_1629,K,facesParametric,15,59.6759180874,
./stim/MorphF10_07_orig.jpg,179,,,,,,,,,0,179,179,179,,,,,,,,,,,,,,,-14.853515625,-9.2578125,0,0,1,0.869992017746,,,,,2015_Nov_06_1629,K,facesParametric,15,59.6759180874,
./stim/MorphM3_10_orig.jpg,180,,,,,,,,,0,180,180,180,,,,,,,,,,,,,,,-14.853515625,-9.2578125,0,0,1,1.75757813454,,,,,2015_Nov_06_1629,K,facesParametric,15,59.6759180874,
./stim/MorphF7_07_orig.jpg,181,,,,,,,,,0,181,181,181,,,,,,,,,,,,,,,-14.853515625,-9.2578125,0,0,1,0.716902017593,,,,,2015_Nov_06_1629,K,facesParametric,15,59.6759180874,
./stim/MorphM1_04_orig.jpg,182,,,,,,,,,0,182,182,182,,,,,,,,,,,,,,,-14.853515625,-9.2578125,1,0,0,0.921032905579,,,,,2015_Nov_06_1629,K,facesParametric,15,59.6759180874,
./stim/MorphM6_00_orig.jpg,183,,,,,,,,,0,183,183,183,,,,,,,,,,,,,,,-14.853515625,-9.2578125,1,0,0,0.734682798386,,,,,2015_Nov_06_1629,K,facesParametric,15,59.6759180874,
./stim/MorphF1_00_orig.jpg,184,,,,,,,,,0,184,184,184,,,,,,,,,,,,,,,-14.853515625,-9.2578125,1,0,0,0.685041904449,,,,,2015_Nov_06_1629,K,facesParametric,15,59.6759180874,
./stim/MorphF5_05_orig.jpg,185,,,,,,,,,0,185,185,185,,,,,,,,,,,,,,,-14.853515625,-9.2578125,1,0,0,2.81420993805,,,,,2015_Nov_06_1629,K,facesParametric,15,59.6759180874,
./stim/MorphF9_01_orig.jpg,186,,,,,,,,,0,186,186,186,,,,,,,,,,,,,,,-14.853515625,-9.2578125,1,0,0,1.02078390121,,,,,2015_Nov_06_1629,K,facesParametric,15,59.6759180874,
./stim/MorphF8_08_orig.jpg,187,,,,,,,,,0,187,187,187,,,,,,,,,,,,,,,-14.853515625,-9.2578125,1,0,0,0.71950006485,,,,,2015_Nov_06_1629,K,facesParametric,15,59.6759180874,
./stim/MorphM7_05_orig.jpg,188,,,,,,,,,0,188,188,188,,,,,,,,,,,,,,,-14.853515625,-9.2578125,1,0,0,1.40662288666,,,,,2015_Nov_06_1629,K,facesParametric,15,59.6759180874,
./stim/MorphM8_05_orig.jpg,189,,,,,,,,,0,189,189,189,,,,,,,,,,,,,,,-14.853515625,-9.2578125,1,0,0,2.06024193764,,,,,2015_Nov_06_1629,K,facesParametric,15,59.6759180874,
./stim/MorphF7_01_orig.jpg,190,,,,,,,,,0,190,190,190,,,,,,,,,,,,,,,-14.853515625,-9.2578125,1,0,0,0.736174106598,,,,,2015_Nov_06_1629,K,facesParametric,15,59.6759180874,
./stim/MorphF10_06_orig.jpg,191,,,,,,,,,0,191,191,191,,,,,,,,,,,,,,,-14.853515625,-9.2578125,0,0,1,1.28886508942,,,,,2015_Nov_06_1629,K,facesParametric,15,59.6759180874,
./stim/MorphF1_07_orig.jpg,192,,,,,,,,,0,192,192,192,,,,,,,,,,,,,,,-14.853515625,-9.2578125,0,0,1,1.70804595947,,,,,2015_Nov_06_1629,K,facesParametric,15,59.6759180874,
./stim/MorphM10_01_orig.jpg,193,,,,,,,,,0,193,193,193,,,,,,,,,,,,,,,-14.853515625,-9.2578125,1,0,0,0.936310052872,,,,,2015_Nov_06_1629,K,facesParametric,15,59.6759180874,
./stim/MorphF7_05_orig.jpg,194,,,,,,,,,0,194,194,194,,,,,,,,,,,,,,,-14.853515625,-9.2578125,0,0,1,0.649662017822,,,,,2015_Nov_06_1629,K,facesParametric,15,59.6759180874,
./stim/MorphM7_09_orig.jpg,195,,,,,,,,,0,195,195,195,,,,,,,,,,,,,,,-14.853515625,-9.2578125,0,0,1,1.63867688179,,,,,2015_Nov_06_1629,K,facesParametric,15,59.6759180874,
./stim/MorphM4_00_orig.jpg,196,,,,,,,,,0,196,196,196,,,,,,,,,,,,,,,-14.853515625,-9.2578125,1,0,0,0.954457998276,,,,,2015_Nov_06_1629,K,facesParametric,15,59.6759180874,
./stim/MorphF10_01_orig.jpg,197,,,,,,,,,0,197,197,197,,,,,,,,,,,,,,,-14.853515625,-9.2578125,1,0,0,1.5235478878,,,,,2015_Nov_06_1629,K,facesParametric,15,59.6759180874,
./stim/MorphM6_05_orig.jpg,198,,,,,,,,,0,198,198,198,,,,,,,,,,,,,,,-14.853515625,-9.2578125,1,0,0,1.99232006073,,,,,2015_Nov_06_1629,K,facesParametric,15,59.6759180874,
./stim/MorphM7_03_orig.jpg,199,,,,,,,,,0,199,199,199,,,,,,,,,,,,,,,-14.853515625,-9.2578125,1,0,0,2.32797694206,,,,,2015_Nov_06_1629,K,facesParametric,15,59.6759180874,
./stim/MorphM3_06_orig.jpg,200,,,,,,,,,0,200,200,200,,,,,,,,,,,,,,,-14.853515625,-9.2578125,0,0,1,1.1375951767,,,,,2015_Nov_06_1629,K,facesParametric,15,59.6759180874,
./stim/MorphM6_09_orig.jpg,201,,,,,,,,,0,201,201,201,,,,,,,,,,,,,,,-14.853515625,-9.2578125,0,0,1,0.76994395256,,,,,2015_Nov_06_1629,K,facesParametric,15,59.6759180874,
./stim/MorphF4_00_orig.jpg,202,,,,,,,,,0,202,202,202,,,,,,,,,,,,,,,-14.853515625,-9.2578125,1,0,0,0.736544847488,,,,,2015_Nov_06_1629,K,facesParametric,15,59.6759180874,
./stim/MorphF9_02_orig.jpg,203,,,,,,,,,0,203,203,203,,,,,,,,,,,,,,,-14.853515625,-9.2578125,1,0,0,2.37869501114,,,,,2015_Nov_06_1629,K,facesParametric,15,59.6759180874,
./stim/MorphM3_03_orig.jpg,204,,,,,,,,,0,204,204,204,,,,,,,,,,,,,,,-14.853515625,-9.2578125,0,0,1,1.20343208313,,,,,2015_Nov_06_1629,K,facesParametric,15,59.6759180874,
./stim/MorphF10_00_orig.jpg,205,,,,,,,,,0,205,205,205,,,,,,,,,,,,,,,-14.853515625,-9.2578125,1,0,0,1.08797597885,,,,,2015_Nov_06_1629,K,facesParametric,15,59.6759180874,
./stim/MorphM3_00_orig.jpg,206,,,,,,,,,0,206,206,206,,,,,,,,,,,,,,,-14.853515625,-9.2578125,1,0,0,3.58499383926,,,,,2015_Nov_06_1629,K,facesParametric,15,59.6759180874,
./stim/MorphF10_02_orig.jpg,207,,,,,,,,,0,207,207,207,,,,,,,,,,,,,,,-14.853515625,-9.2578125,0,0,1,0.719099998474,,,,,2015_Nov_06_1629,K,facesParametric,15,59.6759180874,
./stim/MorphM3_05_orig.jpg,208,,,,,,,,,0,208,208,208,,,,,,,,,,,,,,,-14.853515625,-9.2578125,1,0,0,1.00433301926,,,,,2015_Nov_06_1629,K,facesParametric,15,59.6759180874,
./stim/MorphM1_08_orig.jpg,209,,,,,,,,,0,209,209,209,,,,,,,,,,,,,,,-14.853515625,-9.2578125,0,0,1,3.39912199974,,,,,2015_Nov_06_1629,K,facesParametric,15,59.6759180874,
./stim/MorphF8_00_orig.jpg,210,,,,,,,,,0,210,210,210,,,,,,,,,,,,,,,-14.853515625,-9.2578125,1,0,0,1.79221701622,,,,,2015_Nov_06_1629,K,facesParametric,15,59.6759180874,
./stim/MorphM6_06_orig.jpg,211,,,,,,,,,0,211,211,211,,,,,,,,,,,,,,,-14.853515625,-9.2578125,0,0,1,1.7396478653,,,,,2015_Nov_06_1629,K,facesParametric,15,59.6759180874,
./stim/MorphM10_04_orig.jpg,212,,,,,,,,,0,212,212,212,,,,,,,,,,,,,,,-14.853515625,-9.2578125,0,0,1,0.970757961273,,,,,2015_Nov_06_1629,K,facesParametric,15,59.6759180874,
./stim/MorphF1_09_orig.jpg,213,,,,,,,,,0,213,213,213,,,,,,,,,,,,,,,-14.853515625,-9.2578125,0,0,1,0.819212198257,,,,,2015_Nov_06_1629,K,facesParametric,15,59.6759180874,
./stim/MorphM2_05_orig.jpg,214,,,,,,,,,0,214,214,214,,,,,,,,,,,,,,,-14.853515625,-9.2578125,1,0,0,1.87356901169,,,,,2015_Nov_06_1629,K,facesParametric,15,59.6759180874,
./stim/MorphF2_06_orig.jpg,215,,,,,,,,,0,215,215,215,,,,,,,,,,,,,,,-14.853515625,-9.2578125,0,0,1,0.652298927307,,,,,2015_Nov_06_1629,K,facesParametric,15,59.6759180874,
./stim/MorphF3_07_orig.jpg,216,,,,,,,,,0,216,216,216,,,,,,,,,,,,,,,-14.853515625,-9.2578125,1,0,0,1.17157888412,,,,,2015_Nov_06_1629,K,facesParametric,15,59.6759180874,
./stim/MorphM10_00_orig.jpg,217,,,,,,,,,0,217,217,217,,,,,,,,,,,,,,,-14.853515625,-9.2578125,1,0,0,1.02029895782,,,,,2015_Nov_06_1629,K,facesParametric,15,59.6759180874,
./stim/MorphF3_04_orig.jpg,218,,,,,,,,,0,218,218,218,,,,,,,,,,,,,,,-14.853515625,-9.2578125,1,0,0,0.601197004318,,,,,2015_Nov_06_1629,K,facesParametric,15,59.6759180874,
./stim/MorphM3_02_orig.jpg,219,,,,,,,,,0,219,219,219,,,,,,,,,,,,,,,-14.853515625,-9.2578125,1,0,0,3.23341703415,,,,,2015_Nov_06_1629,K,facesParametric,15,59.6759180874,
,,,,,,,,,,,,,,,,,,,,,,,,,,,,,,,,,,,,return,8.21763396263,2015_Nov_06_1629,K,facesParametric,15,59.6759180874,
