img,num,basicLoop.thisRepN,basicLoop.thisTrialN,basicLoop.thisN,basicLoop.thisIndex,trials.thisRepN,trials.thisTrialN,trials.thisN,trials.thisIndex,trials2.thisRepN,trials2.thisTrialN,trials2.thisN,trials2.thisIndex,key_resp_2.keys,key_resp_2.rt,basicRating1.response,basicRating1.rt,basicRating2.response,basicRating2.rt,basicRating3.response,basicRating3.rt,basicRating4.response,basicRating4.rt,key_resp_3.keys,key_resp_3.rt,key_resp_4.keys,key_resp_4.rt,mouseResp.x,mouseResp.y,mouseResp.leftButton,mouseResp.midButton,mouseResp.rightButton,mouseResp.time,key_resp_5.keys,key_resp_5.rt,key_resp_7.keys,key_resp_7.rt,date,group,expName,participant,frameRate,
,,,,,,,,,,,,,,return,378.995048046,,,,,,,,,,,,,,,,,,,,,,,2015_Sep_07_1312,K,facesParametric,1,59.6242551062,
./basicStim/09F_SP_O.jpg,,0,0,0,40,,,,,,,,,,,None,None,None,None,SUP,6.354,None,None,,,,,,,,,,,,,,,2015_Sep_07_1312,K,facesParametric,1,59.6242551062,
./basicStim/36M_FE_O.jpg,,0,1,1,79,,,,,,,,,,,None,None,None,None,DIS,2.999,None,None,,,,,,,,,,,,,,,2015_Sep_07_1312,K,facesParametric,1,59.6242551062,
./basicStim/02F_AN_O.jpg,,0,2,2,7,,,,,,,,,,,None,None,ANG,2.097,None,None,None,None,,,,,,,,,,,,,,,2015_Sep_07_1312,K,facesParametric,1,59.6242551062,
./basicStim/34M_SA_C.jpg,,0,3,3,74,,,,,,,,,,,SAD,8.301,None,None,None,None,None,None,,,,,,,,,,,,,,,2015_Sep_07_1312,K,facesParametric,1,59.6242551062,
./basicStim/09F_DI_O.jpg,,0,4,4,36,,,,,,,,,,,None,None,None,None,DIS,2.867,None,None,,,,,,,,,,,,,,,2015_Sep_07_1312,K,facesParametric,1,59.6242551062,
./basicStim/07F_HA_O.jpg,,0,5,5,31,,,,,,,,,,,HAP,2.041,None,None,None,None,None,None,,,,,,,,,,,,,,,2015_Sep_07_1312,K,facesParametric,1,59.6242551062,
./basicStim/24M_HA_O.jpg,,0,6,6,59,,,,,,,,,,,HAP,10.604,None,None,None,None,None,None,,,,,,,,,,,,,,,2015_Sep_07_1312,K,facesParametric,1,59.6242551062,
./basicStim/03F_HA_O.jpg,,0,7,7,17,,,,,,,,,,,HAP,0.883,None,None,None,None,None,None,,,,,,,,,,,,,,,2015_Sep_07_1312,K,facesParametric,1,59.6242551062,
./basicStim/06F_HA_O.jpg,,0,8,8,24,,,,,,,,,,,HAP,0.843,None,None,None,None,None,None,,,,,,,,,,,,,,,2015_Sep_07_1312,K,facesParametric,1,59.6242551062,
./basicStim/24M_SA_C.jpg,,0,9,9,60,,,,,,,,,,,None,None,None,None,SUP,45.779,None,None,,,,,,,,,,,,,,,2015_Sep_07_1312,K,facesParametric,1,59.6242551062,
./basicStim/28M_NE_C.jpg,,0,10,10,69,,,,,,,,,,,None,None,None,None,None,None,NTR,1.29,,,,,,,,,,,,,,,2015_Sep_07_1312,K,facesParametric,1,59.6242551062,
./basicStim/23M_AN_O.jpg,,0,11,11,49,,,,,,,,,,,None,None,ANG,1.364,None,None,None,None,,,,,,,,,,,,,,,2015_Sep_07_1312,K,facesParametric,1,59.6242551062,
./basicStim/07F_SA_C.jpg,,0,12,12,32,,,,,,,,,,,SAD,1.429,None,None,None,None,None,None,,,,,,,,,,,,,,,2015_Sep_07_1312,K,facesParametric,1,59.6242551062,
./basicStim/28M_DI_O.jpg,,0,13,13,64,,,,,,,,,,,None,None,None,None,DIS,1.244,None,None,,,,,,,,,,,,,,,2015_Sep_07_1312,K,facesParametric,1,59.6242551062,
./basicStim/09F_NE_C.jpg,,0,14,14,41,,,,,,,,,,,None,None,None,None,None,None,NTR,1.846,,,,,,,,,,,,,,,2015_Sep_07_1312,K,facesParametric,1,59.6242551062,
./basicStim/23M_SA_C.jpg,,0,15,15,53,,,,,,,,,,,SAD,7.433,None,None,None,None,None,None,,,,,,,,,,,,,,,2015_Sep_07_1312,K,facesParametric,1,59.6242551062,
./basicStim/03F_SP_O.jpg,,0,16,16,19,,,,,,,,,,,None,None,None,None,SUP,3.392,None,None,,,,,,,,,,,,,,,2015_Sep_07_1312,K,facesParametric,1,59.6242551062,
./basicStim/09F_FE_O.jpg,,0,17,17,37,,,,,,,,,,,None,None,None,None,DIS,1.929,None,None,,,,,,,,,,,,,,,2015_Sep_07_1312,K,facesParametric,1,59.6242551062,
./basicStim/28M_FE_O.jpg,,0,18,18,65,,,,,,,,,,,None,None,FEA,2.923,None,None,None,None,,,,,,,,,,,,,,,2015_Sep_07_1312,K,facesParametric,1,59.6242551062,
./basicStim/07F_DI_O.jpg,,0,19,19,29,,,,,,,,,,,None,None,None,None,DIS,1.16,None,None,,,,,,,,,,,,,,,2015_Sep_07_1312,K,facesParametric,1,59.6242551062,
./basicStim/01F_DI_O.jpg,,0,20,20,1,,,,,,,,,,,None,None,ANG,10.327,None,None,None,None,,,,,,,,,,,,,,,2015_Sep_07_1312,K,facesParametric,1,59.6242551062,
./basicStim/06F_NE_C.jpg,,0,21,21,27,,,,,,,,,,,None,None,None,None,None,None,NTR,1.239,,,,,,,,,,,,,,,2015_Sep_07_1312,K,facesParametric,1,59.6242551062,
./basicStim/02F_SP_O.jpg,,0,22,22,12,,,,,,,,,,,None,None,None,None,SUP,3.826,None,None,,,,,,,,,,,,,,,2015_Sep_07_1312,K,facesParametric,1,59.6242551062,
./basicStim/03F_DI_O.jpg,,0,23,23,15,,,,,,,,,,,None,None,None,None,DIS,2.702,None,None,,,,,,,,,,,,,,,2015_Sep_07_1312,K,facesParametric,1,59.6242551062,
./basicStim/23M_SP_O.jpg,,0,24,24,54,,,,,,,,,,,None,None,FEA,1.176,None,None,None,None,,,,,,,,,,,,,,,2015_Sep_07_1312,K,facesParametric,1,59.6242551062,
./basicStim/02F_NE_C.jpg,,0,25,25,13,,,,,,,,,,,None,None,None,None,None,None,NTR,1.808,,,,,,,,,,,,,,,2015_Sep_07_1312,K,facesParametric,1,59.6242551062,
./basicStim/23M_DI_O.jpg,,0,26,26,50,,,,,,,,,,,SAD,6.391,None,None,None,None,None,None,,,,,,,,,,,,,,,2015_Sep_07_1312,K,facesParametric,1,59.6242551062,
./basicStim/23M_NE_C.jpg,,0,27,27,55,,,,,,,,,,,None,None,None,None,None,None,NTR,1.363,,,,,,,,,,,,,,,2015_Sep_07_1312,K,facesParametric,1,59.6242551062,
./basicStim/24M_AN_O.jpg,,0,28,28,56,,,,,,,,,,,None,None,ANG,3.659,None,None,None,None,,,,,,,,,,,,,,,2015_Sep_07_1312,K,facesParametric,1,59.6242551062,
./basicStim/36M_HA_O.jpg,,0,29,29,80,,,,,,,,,,,HAP,1.462,None,None,None,None,None,None,,,,,,,,,,,,,,,2015_Sep_07_1312,K,facesParametric,1,59.6242551062,
./basicStim/01F_FE_O.jpg,,0,30,30,2,,,,,,,,,,,None,None,ANG,5.218,None,None,None,None,,,,,,,,,,,,,,,2015_Sep_07_1312,K,facesParametric,1,59.6242551062,
./basicStim/21M_FE_O.jpg,,0,31,31,44,,,,,,,,,,,None,None,FEA,2.701,None,None,None,None,,,,,,,,,,,,,,,2015_Sep_07_1312,K,facesParametric,1,59.6242551062,
./basicStim/07F_AN_O.jpg,,0,32,32,28,,,,,,,,,,,None,None,ANG,2.735,None,None,None,None,,,,,,,,,,,,,,,2015_Sep_07_1312,K,facesParametric,1,59.6242551062,
./basicStim/06F_DI_O.jpg,,0,33,33,22,,,,,,,,,,,None,None,None,None,DIS,2.705,None,None,,,,,,,,,,,,,,,2015_Sep_07_1312,K,facesParametric,1,59.6242551062,
./basicStim/34M_AN_O.jpg,,0,34,34,70,,,,,,,,,,,None,None,ANG,3.393,None,None,None,None,,,,,,,,,,,,,,,2015_Sep_07_1312,K,facesParametric,1,59.6242551062,
./basicStim/09F_HA_O.jpg,,0,35,35,38,,,,,,,,,,,HAP,1.251,None,None,None,None,None,None,,,,,,,,,,,,,,,2015_Sep_07_1312,K,facesParametric,1,59.6242551062,
./basicStim/34M_DI_O.jpg,,0,36,36,71,,,,,,,,,,,None,None,None,None,SUP,13.412,None,None,,,,,,,,,,,,,,,2015_Sep_07_1312,K,facesParametric,1,59.6242551062,
./basicStim/24M_DI_O.jpg,,0,37,37,57,,,,,,,,,,,SAD,3.071,None,None,None,None,None,None,,,,,,,,,,,,,,,2015_Sep_07_1312,K,facesParametric,1,59.6242551062,
./basicStim/02F_FE_O.jpg,,0,38,38,9,,,,,,,,,,,None,None,FEA,2.031,None,None,None,None,,,,,,,,,,,,,,,2015_Sep_07_1312,K,facesParametric,1,59.6242551062,
./basicStim/28M_AN_O.jpg,,0,39,39,63,,,,,,,,,,,None,None,ANG,3.19,None,None,None,None,,,,,,,,,,,,,,,2015_Sep_07_1312,K,facesParametric,1,59.6242551062,
./basicStim/28M_SP_O.jpg,,0,40,40,68,,,,,,,,,,,None,None,FEA,8.574,None,None,None,None,,,,,,,,,,,,,,,2015_Sep_07_1312,K,facesParametric,1,59.6242551062,
./basicStim/07F_NE_C.jpg,,0,41,41,34,,,,,,,,,,,None,None,None,None,None,None,NTR,0.923,,,,,,,,,,,,,,,2015_Sep_07_1312,K,facesParametric,1,59.6242551062,
./basicStim/06F_FE_O.jpg,,0,42,42,23,,,,,,,,,,,None,None,FEA,3.255,None,None,None,None,,,,,,,,,,,,,,,2015_Sep_07_1312,K,facesParametric,1,59.6242551062,
./basicStim/23M_FE_O.jpg,,0,43,43,51,,,,,,,,,,,None,None,None,None,SUP,13.58,None,None,,,,,,,,,,,,,,,2015_Sep_07_1312,K,facesParametric,1,59.6242551062,
./basicStim/03F_NE_C.jpg,,0,44,44,20,,,,,,,,,,,None,None,None,None,None,None,NTR,0.862,,,,,,,,,,,,,,,2015_Sep_07_1312,K,facesParametric,1,59.6242551062,
./basicStim/28M_HA_O.jpg,,0,45,45,66,,,,,,,,,,,HAP,1.197,None,None,None,None,None,None,,,,,,,,,,,,,,,2015_Sep_07_1312,K,facesParametric,1,59.6242551062,
./basicStim/36M_NE_C.jpg,,0,46,46,83,,,,,,,,,,,None,None,None,None,None,None,NTR,1.343,,,,,,,,,,,,,,,2015_Sep_07_1312,K,facesParametric,1,59.6242551062,
./basicStim/09F_AN_O.jpg,,0,47,47,35,,,,,,,,,,,None,None,ANG,7.786,None,None,None,None,,,,,,,,,,,,,,,2015_Sep_07_1312,K,facesParametric,1,59.6242551062,
./basicStim/36M_DI_O.jpg,,0,48,48,78,,,,,,,,,,,None,None,None,None,DIS,3.234,None,None,,,,,,,,,,,,,,,2015_Sep_07_1312,K,facesParametric,1,59.6242551062,
./basicStim/03F_FE_O.jpg,,0,49,49,16,,,,,,,,,,,None,None,FEA,5.235,None,None,None,None,,,,,,,,,,,,,,,2015_Sep_07_1312,K,facesParametric,1,59.6242551062,
./basicStim/21M_HA_O.jpg,,0,50,50,45,,,,,,,,,,,HAP,1.134,None,None,None,None,None,None,,,,,,,,,,,,,,,2015_Sep_07_1312,K,facesParametric,1,59.6242551062,
./basicStim/06F_SA_C.jpg,,0,51,51,25,,,,,,,,,,,None,None,ANG,4.444,None,None,None,None,,,,,,,,,,,,,,,2015_Sep_07_1312,K,facesParametric,1,59.6242551062,
./basicStim/36M_AN_O.jpg,,0,52,52,77,,,,,,,,,,,None,None,ANG,3.648,None,None,None,None,,,,,,,,,,,,,,,2015_Sep_07_1312,K,facesParametric,1,59.6242551062,
./basicStim/24M_SP_O.jpg,,0,53,53,61,,,,,,,,,,,None,None,FEA,4.06,None,None,None,None,,,,,,,,,,,,,,,2015_Sep_07_1312,K,facesParametric,1,59.6242551062,
./basicStim/34M_HA_O.jpg,,0,54,54,73,,,,,,,,,,,HAP,1.128,None,None,None,None,None,None,,,,,,,,,,,,,,,2015_Sep_07_1312,K,facesParametric,1,59.6242551062,
./basicStim/34M_FE_O.jpg,,0,55,55,72,,,,,,,,,,,None,None,FEA,7.243,None,None,None,None,,,,,,,,,,,,,,,2015_Sep_07_1312,K,facesParametric,1,59.6242551062,
./basicStim/06F_AN_O.jpg,,0,56,56,21,,,,,,,,,,,None,None,ANG,1.313,None,None,None,None,,,,,,,,,,,,,,,2015_Sep_07_1312,K,facesParametric,1,59.6242551062,
./basicStim/24M_FE_O.jpg,,0,57,57,58,,,,,,,,,,,None,None,FEA,2.888,None,None,None,None,,,,,,,,,,,,,,,2015_Sep_07_1312,K,facesParametric,1,59.6242551062,
./basicStim/01F_SA_C.jpg,,0,58,58,4,,,,,,,,,,,None,None,ANG,2.875,None,None,None,None,,,,,,,,,,,,,,,2015_Sep_07_1312,K,facesParametric,1,59.6242551062,
./basicStim/21M_SP_O.jpg,,0,59,59,47,,,,,,,,,,,None,None,None,None,SUP,1.383,None,None,,,,,,,,,,,,,,,2015_Sep_07_1312,K,facesParametric,1,59.6242551062,
./basicStim/24M_NE_C.jpg,,0,60,60,62,,,,,,,,,,,None,None,None,None,None,None,NTR,1.094,,,,,,,,,,,,,,,2015_Sep_07_1312,K,facesParametric,1,59.6242551062,
./basicStim/28M_SA_C.jpg,,0,61,61,67,,,,,,,,,,,None,None,FEA,8.705,None,None,None,None,,,,,,,,,,,,,,,2015_Sep_07_1312,K,facesParametric,1,59.6242551062,
./basicStim/36M_SP_O.jpg,,0,62,62,82,,,,,,,,,,,None,None,None,None,SUP,3.338,None,None,,,,,,,,,,,,,,,2015_Sep_07_1312,K,facesParametric,1,59.6242551062,
./basicStim/06F_SP_O.jpg,,0,63,63,26,,,,,,,,,,,None,None,None,None,SUP,4.008,None,None,,,,,,,,,,,,,,,2015_Sep_07_1312,K,facesParametric,1,59.6242551062,
./basicStim/21M_DI_O.jpg,,0,64,64,43,,,,,,,,,,,None,None,None,None,DIS,4.378,None,None,,,,,,,,,,,,,,,2015_Sep_07_1312,K,facesParametric,1,59.6242551062,
./basicStim/34M_NE_C.jpg,,0,65,65,76,,,,,,,,,,,None,None,None,None,None,None,NTR,1.732,,,,,,,,,,,,,,,2015_Sep_07_1312,K,facesParametric,1,59.6242551062,
./basicStim/01F_NE_C.jpg,,0,66,66,6,,,,,,,,,,,None,None,None,None,None,None,NTR,1.797,,,,,,,,,,,,,,,2015_Sep_07_1312,K,facesParametric,1,59.6242551062,
./basicStim/01F_SP_O.jpg,,0,67,67,5,,,,,,,,,,,None,None,None,None,SUP,2.13,None,None,,,,,,,,,,,,,,,2015_Sep_07_1312,K,facesParametric,1,59.6242551062,
./basicStim/03F_AN_O.jpg,,0,68,68,14,,,,,,,,,,,None,None,ANG,2.422,None,None,None,None,,,,,,,,,,,,,,,2015_Sep_07_1312,K,facesParametric,1,59.6242551062,
./basicStim/07F_SP_O.jpg,,0,69,69,33,,,,,,,,,,,None,None,FEA,2.051,None,None,None,None,,,,,,,,,,,,,,,2015_Sep_07_1312,K,facesParametric,1,59.6242551062,
./basicStim/21M_AN_O.jpg,,0,70,70,42,,,,,,,,,,,None,None,ANG,1.544,None,None,None,None,,,,,,,,,,,,,,,2015_Sep_07_1312,K,facesParametric,1,59.6242551062,
./basicStim/02F_DI_O.jpg,,0,71,71,8,,,,,,,,,,,None,None,ANG,1.498,None,None,None,None,,,,,,,,,,,,,,,2015_Sep_07_1312,K,facesParametric,1,59.6242551062,
./basicStim/03F_SA_C.jpg,,0,72,72,18,,,,,,,,,,,SAD,3.976,None,None,None,None,None,None,,,,,,,,,,,,,,,2015_Sep_07_1312,K,facesParametric,1,59.6242551062,
./basicStim/02F_SA_C.jpg,,0,73,73,11,,,,,,,,,,,SAD,0.876,None,None,None,None,None,None,,,,,,,,,,,,,,,2015_Sep_07_1312,K,facesParametric,1,59.6242551062,
./basicStim/21M_NE_C.jpg,,0,74,74,48,,,,,,,,,,,None,None,None,None,None,None,NTR,0.972,,,,,,,,,,,,,,,2015_Sep_07_1312,K,facesParametric,1,59.6242551062,
./basicStim/01F_AN_O.jpg,,0,75,75,0,,,,,,,,,,,None,None,ANG,1.681,None,None,None,None,,,,,,,,,,,,,,,2015_Sep_07_1312,K,facesParametric,1,59.6242551062,
./basicStim/36M_SA_C.jpg,,0,76,76,81,,,,,,,,,,,SAD,4.034,None,None,None,None,None,None,,,,,,,,,,,,,,,2015_Sep_07_1312,K,facesParametric,1,59.6242551062,
./basicStim/23M_HA_O.jpg,,0,77,77,52,,,,,,,,,,,HAP,1.128,None,None,None,None,None,None,,,,,,,,,,,,,,,2015_Sep_07_1312,K,facesParametric,1,59.6242551062,
./basicStim/34M_SP_O.jpg,,0,78,78,75,,,,,,,,,,,None,None,None,None,SUP,1.796,None,None,,,,,,,,,,,,,,,2015_Sep_07_1312,K,facesParametric,1,59.6242551062,
./basicStim/07F_FE_O.jpg,,0,79,79,30,,,,,,,,,,,None,None,FEA,2.951,None,None,None,None,,,,,,,,,,,,,,,2015_Sep_07_1312,K,facesParametric,1,59.6242551062,
./basicStim/02F_HA_O.jpg,,0,80,80,10,,,,,,,,,,,HAP,1.481,None,None,None,None,None,None,,,,,,,,,,,,,,,2015_Sep_07_1312,K,facesParametric,1,59.6242551062,
./basicStim/01F_HA_O.jpg,,0,81,81,3,,,,,,,,,,,HAP,0.725,None,None,None,None,None,None,,,,,,,,,,,,,,,2015_Sep_07_1312,K,facesParametric,1,59.6242551062,
./basicStim/21M_SA_C.jpg,,0,82,82,46,,,,,,,,,,,None,None,FEA,6.644,None,None,None,None,,,,,,,,,,,,,,,2015_Sep_07_1312,K,facesParametric,1,59.6242551062,
./basicStim/09F_SA_C.jpg,,0,83,83,39,,,,,,,,,,,SAD,8.886,None,None,None,None,None,None,,,,,,,,,,,,,,,2015_Sep_07_1312,K,facesParametric,1,59.6242551062,
,,,,,,,,,,,,,,,,,,,,,,,,return,2.96718096733,,,,,,,,,,,,,2015_Sep_07_1312,K,facesParametric,1,59.6242551062,
,,,,,,,,,,,,,,return,52.088709116,,,,,,,,,,,,,,,,,,,,,,,2015_Sep_07_1312,K,facesParametric,1,59.6242551062,
,,,,,,,,,,,,,,,,,,,,,,,,return,14.815279007,,,,,,,,,,,,,2015_Sep_07_1312,K,facesParametric,1,59.6242551062,
,,,,,,,,,,,,,,,,,,,,,,,,,,return,7.15638113022,,,,,,,,,,,2015_Sep_07_1312,K,facesParametric,1,59.6242551062,
./stim/MorphM6_10_orig.jpg,0,,,,,0,0,0,0,,,,,,,,,,,,,,,,,,,-23.4375,-13.154296875,1,0,0,52.2724621296,,,,,2015_Sep_07_1312,K,facesParametric,1,59.6242551062,
./stim/MorphF9_04_orig.jpg,1,,,,,0,1,1,1,,,,,,,,,,,,,,,,,,,-23.4375,-13.154296875,1,0,0,3.51732397079,,,,,2015_Sep_07_1312,K,facesParametric,1,59.6242551062,
./stim/MorphM3_03_orig.jpg,2,,,,,0,2,2,2,,,,,,,,,,,,,,,,,,,-23.4375,-13.154296875,0,0,1,1.4045791626,,,,,2015_Sep_07_1312,K,facesParametric,1,59.6242551062,
./stim/MorphM1_00_orig.jpg,3,,,,,0,3,3,3,,,,,,,,,,,,,,,,,,,-23.4375,-13.154296875,1,0,0,4.975440979,,,,,2015_Sep_07_1312,K,facesParametric,1,59.6242551062,
./stim/MorphM6_09_orig.jpg,4,,,,,0,4,4,4,,,,,,,,,,,,,,,,,,,-23.4375,-13.154296875,1,0,0,4.89252996445,,,,,2015_Sep_07_1312,K,facesParametric,1,59.6242551062,
./stim/MorphM10_02_orig.jpg,5,,,,,0,5,5,5,,,,,,,,,,,,,,,,,,,-23.4375,-13.154296875,1,0,0,4.506305933,,,,,2015_Sep_07_1312,K,facesParametric,1,59.6242551062,
./stim/MorphM3_06_orig.jpg,6,,,,,0,6,6,6,,,,,,,,,,,,,,,,,,,-23.4375,-13.154296875,0,0,1,1.22097301483,,,,,2015_Sep_07_1312,K,facesParametric,1,59.6242551062,
./stim/MorphM7_08_orig.jpg,7,,,,,0,7,7,7,,,,,,,,,,,,,,,,,,,-23.4375,-13.154296875,0,0,1,0.937380075455,,,,,2015_Sep_07_1312,K,facesParametric,1,59.6242551062,
./stim/MorphM6_04_orig.jpg,8,,,,,0,8,8,8,,,,,,,,,,,,,,,,,,,-23.4375,-13.154296875,1,0,0,2.21098899841,,,,,2015_Sep_07_1312,K,facesParametric,1,59.6242551062,
./stim/MorphM2_05_orig.jpg,9,,,,,0,9,9,9,,,,,,,,,,,,,,,,,,,-23.4375,-13.154296875,1,0,0,1.10487580299,,,,,2015_Sep_07_1312,K,facesParametric,1,59.6242551062,
./stim/MorphM3_01_orig.jpg,10,,,,,0,10,10,10,,,,,,,,,,,,,,,,,,,-23.4375,-13.154296875,1,0,0,1.89034891129,,,,,2015_Sep_07_1312,K,facesParametric,1,59.6242551062,
./stim/MorphF1_03_orig.jpg,11,,,,,0,11,11,11,,,,,,,,,,,,,,,,,,,-23.4375,-13.154296875,1,0,0,1.90932202339,,,,,2015_Sep_07_1312,K,facesParametric,1,59.6242551062,
./stim/MorphF8_09_orig.jpg,12,,,,,0,12,12,12,,,,,,,,,,,,,,,,,,,-23.4375,-13.154296875,0,0,1,0.851852893829,,,,,2015_Sep_07_1312,K,facesParametric,1,59.6242551062,
./stim/MorphF3_01_orig.jpg,13,,,,,0,13,13,13,,,,,,,,,,,,,,,,,,,-23.4375,-13.154296875,1,0,0,0.952908039093,,,,,2015_Sep_07_1312,K,facesParametric,1,59.6242551062,
./stim/MorphF7_03_orig.jpg,14,,,,,0,14,14,14,,,,,,,,,,,,,,,,,,,-23.4375,-13.154296875,1,0,0,1.37318301201,,,,,2015_Sep_07_1312,K,facesParametric,1,59.6242551062,
./stim/MorphM1_05_orig.jpg,15,,,,,0,15,15,15,,,,,,,,,,,,,,,,,,,-23.4375,-13.154296875,1,0,0,4.05471396446,,,,,2015_Sep_07_1312,K,facesParametric,1,59.6242551062,
./stim/MorphM5_08_orig.jpg,16,,,,,0,16,16,16,,,,,,,,,,,,,,,,,,,-23.4375,-13.154296875,0,0,1,1.05464482307,,,,,2015_Sep_07_1312,K,facesParametric,1,59.6242551062,
./stim/MorphF7_01_orig.jpg,17,,,,,0,17,17,17,,,,,,,,,,,,,,,,,,,-23.4375,-13.154296875,1,0,0,1.57383108139,,,,,2015_Sep_07_1312,K,facesParametric,1,59.6242551062,
./stim/MorphF1_10_orig.jpg,18,,,,,0,18,18,18,,,,,,,,,,,,,,,,,,,-23.4375,-13.154296875,0,0,1,2.77947092056,,,,,2015_Sep_07_1312,K,facesParametric,1,59.6242551062,
./stim/MorphF9_06_orig.jpg,19,,,,,0,19,19,19,,,,,,,,,,,,,,,,,,,-23.4375,-13.06640625,0,0,1,2.21105694771,,,,,2015_Sep_07_1312,K,facesParametric,1,59.6242551062,
./stim/MorphM4_00_orig.jpg,20,,,,,0,20,20,20,,,,,,,,,,,,,,,,,,,-23.4375,-12.890625,1,0,0,1.70788478851,,,,,2015_Sep_07_1312,K,facesParametric,1,59.6242551062,
./stim/MorphM10_08_orig.jpg,21,,,,,0,21,21,21,,,,,,,,,,,,,,,,,,,-23.4375,-12.890625,0,0,1,1.42191696167,,,,,2015_Sep_07_1312,K,facesParametric,1,59.6242551062,
./stim/MorphF8_07_orig.jpg,22,,,,,0,22,22,22,,,,,,,,,,,,,,,,,,,-23.4375,-12.568359375,1,0,0,10.8571610451,,,,,2015_Sep_07_1312,K,facesParametric,1,59.6242551062,
./stim/MorphF6_02_orig.jpg,23,,,,,0,23,23,23,,,,,,,,,,,,,,,,,,,-23.4375,-12.59765625,1,0,0,1.17183113098,,,,,2015_Sep_07_1312,K,facesParametric,1,59.6242551062,
./stim/MorphM2_08_orig.jpg,24,,,,,0,24,24,24,,,,,,,,,,,,,,,,,,,-23.4375,-12.59765625,1,0,0,1.65834903717,,,,,2015_Sep_07_1312,K,facesParametric,1,59.6242551062,
./stim/MorphF9_05_orig.jpg,25,,,,,0,25,25,25,,,,,,,,,,,,,,,,,,,-23.4375,-12.59765625,1,0,0,3.45093488693,,,,,2015_Sep_07_1312,K,facesParametric,1,59.6242551062,
./stim/MorphF1_08_orig.jpg,26,,,,,0,26,26,26,,,,,,,,,,,,,,,,,,,-23.4375,-12.568359375,1,0,0,5.61312699318,,,,,2015_Sep_07_1312,K,facesParametric,1,59.6242551062,
./stim/MorphF6_09_orig.jpg,27,,,,,0,27,27,27,,,,,,,,,,,,,,,,,,,-23.408203125,-12.59765625,0,0,1,1.3877799511,,,,,2015_Sep_07_1312,K,facesParametric,1,59.6242551062,
./stim/MorphF2_09_orig.jpg,28,,,,,0,28,28,28,,,,,,,,,,,,,,,,,,,-23.408203125,-12.59765625,0,0,1,0.919823884964,,,,,2015_Sep_07_1312,K,facesParametric,1,59.6242551062,
./stim/MorphF1_04_orig.jpg,29,,,,,0,29,29,29,,,,,,,,,,,,,,,,,,,-23.4375,-12.48046875,1,0,0,3.75249099731,,,,,2015_Sep_07_1312,K,facesParametric,1,59.6242551062,
./stim/MorphM4_06_orig.jpg,30,,,,,0,30,30,30,,,,,,,,,,,,,,,,,,,-23.4375,-12.451171875,0,0,1,1.69176697731,,,,,2015_Sep_07_1312,K,facesParametric,1,59.6242551062,
./stim/MorphM5_04_orig.jpg,31,,,,,0,31,31,31,,,,,,,,,,,,,,,,,,,-23.4375,-12.421875,0,0,1,1.06978702545,,,,,2015_Sep_07_1312,K,facesParametric,1,59.6242551062,
./stim/MorphF10_02_orig.jpg,32,,,,,0,32,32,32,,,,,,,,,,,,,,,,,,,-23.4375,-12.421875,1,0,0,1.55731201172,,,,,2015_Sep_07_1312,K,facesParametric,1,59.6242551062,
./stim/MorphF6_05_orig.jpg,33,,,,,0,33,33,33,,,,,,,,,,,,,,,,,,,-23.4375,-12.392578125,1,0,0,0.819499015808,,,,,2015_Sep_07_1312,K,facesParametric,1,59.6242551062,
./stim/MorphF8_01_orig.jpg,34,,,,,0,34,34,34,,,,,,,,,,,,,,,,,,,-23.4375,-12.392578125,1,0,0,2.8627679348,,,,,2015_Sep_07_1312,K,facesParametric,1,59.6242551062,
./stim/MorphM2_06_orig.jpg,35,,,,,0,35,35,35,,,,,,,,,,,,,,,,,,,-23.4375,-11.54296875,0,0,1,28.1046600342,,,,,2015_Sep_07_1312,K,facesParametric,1,59.6242551062,
./stim/MorphM9_02_orig.jpg,36,,,,,0,36,36,36,,,,,,,,,,,,,,,,,,,-23.4375,-11.54296875,1,0,0,4.45487904549,,,,,2015_Sep_07_1312,K,facesParametric,1,59.6242551062,
./stim/MorphM5_03_orig.jpg,37,,,,,0,37,37,37,,,,,,,,,,,,,,,,,,,-23.4375,-11.54296875,1,0,0,3.08253002167,,,,,2015_Sep_07_1312,K,facesParametric,1,59.6242551062,
./stim/MorphM4_01_orig.jpg,38,,,,,0,38,38,38,,,,,,,,,,,,,,,,,,,-23.4375,-11.54296875,1,0,0,1.29007983208,,,,,2015_Sep_07_1312,K,facesParametric,1,59.6242551062,
./stim/MorphM6_05_orig.jpg,39,,,,,0,39,39,39,,,,,,,,,,,,,,,,,,,-23.4375,-11.54296875,1,0,0,1.94289517403,,,,,2015_Sep_07_1312,K,facesParametric,1,59.6242551062,
./stim/MorphF4_02_orig.jpg,40,,,,,0,40,40,40,,,,,,,,,,,,,,,,,,,-23.4375,-11.54296875,1,0,0,1.95889401436,,,,,2015_Sep_07_1312,K,facesParametric,1,59.6242551062,
./stim/MorphM9_03_orig.jpg,41,,,,,0,41,41,41,,,,,,,,,,,,,,,,,,,-23.4375,-11.54296875,1,0,0,2.73012399673,,,,,2015_Sep_07_1312,K,facesParametric,1,59.6242551062,
./stim/MorphF4_06_orig.jpg,42,,,,,0,42,42,42,,,,,,,,,,,,,,,,,,,-22.470703125,-12.919921875,0,0,1,63.0995209217,,,,,2015_Sep_07_1312,K,facesParametric,1,59.6242551062,
./stim/MorphF5_00_orig.jpg,43,,,,,0,43,43,43,,,,,,,,,,,,,,,,,,,-22.529296875,-12.919921875,1,0,0,1.20514702797,,,,,2015_Sep_07_1312,K,facesParametric,1,59.6242551062,
./stim/MorphM7_04_orig.jpg,44,,,,,0,44,44,44,,,,,,,,,,,,,,,,,,,-22.529296875,-12.919921875,0,0,1,1.3376557827,,,,,2015_Sep_07_1312,K,facesParametric,1,59.6242551062,
./stim/MorphF1_07_orig.jpg,45,,,,,0,45,45,45,,,,,,,,,,,,,,,,,,,-22.8515625,-12.83203125,0,0,1,11.7635250092,,,,,2015_Sep_07_1312,K,facesParametric,1,59.6242551062,
./stim/MorphF7_02_orig.jpg,46,,,,,0,46,46,46,,,,,,,,,,,,,,,,,,,-22.939453125,-12.802734375,0,0,1,1.47344708443,,,,,2015_Sep_07_1312,K,facesParametric,1,59.6242551062,
./stim/MorphF3_08_orig.jpg,47,,,,,0,47,47,47,,,,,,,,,,,,,,,,,,,-22.939453125,-12.802734375,0,0,1,0.753227949142,,,,,2015_Sep_07_1312,K,facesParametric,1,59.6242551062,
./stim/MorphM4_03_orig.jpg,48,,,,,0,48,48,48,,,,,,,,,,,,,,,,,,,-22.96875,-12.802734375,0,0,1,1.74030900002,,,,,2015_Sep_07_1312,K,facesParametric,1,59.6242551062,
./stim/MorphM7_05_orig.jpg,49,,,,,0,49,49,49,,,,,,,,,,,,,,,,,,,-23.0859375,-12.919921875,0,0,1,1.7922410965,,,,,2015_Sep_07_1312,K,facesParametric,1,59.6242551062,
./stim/MorphM4_08_orig.jpg,50,,,,,0,50,50,50,,,,,,,,,,,,,,,,,,,-23.0859375,-12.919921875,0,0,1,0.802245140076,,,,,2015_Sep_07_1312,K,facesParametric,1,59.6242551062,
./stim/MorphM2_03_orig.jpg,51,,,,,0,51,51,51,,,,,,,,,,,,,,,,,,,-23.0859375,-12.919921875,1,0,0,1.47129011154,,,,,2015_Sep_07_1312,K,facesParametric,1,59.6242551062,
./stim/MorphF3_10_orig.jpg,52,,,,,0,52,52,52,,,,,,,,,,,,,,,,,,,-23.115234375,-12.919921875,0,0,1,1.6408970356,,,,,2015_Sep_07_1312,K,facesParametric,1,59.6242551062,
./stim/MorphF6_08_orig.jpg,53,,,,,0,53,53,53,,,,,,,,,,,,,,,,,,,-23.14453125,-12.890625,0,0,1,1.25517296791,,,,,2015_Sep_07_1312,K,facesParametric,1,59.6242551062,
./stim/MorphM3_10_orig.jpg,54,,,,,0,54,54,54,,,,,,,,,,,,,,,,,,,-23.14453125,-12.890625,0,0,1,0.653607130051,,,,,2015_Sep_07_1312,K,facesParametric,1,59.6242551062,
./stim/MorphM10_03_orig.jpg,55,,,,,0,55,55,55,,,,,,,,,,,,,,,,,,,-23.14453125,-12.890625,1,0,0,3.55067181587,,,,,2015_Sep_07_1312,K,facesParametric,1,59.6242551062,
./stim/MorphF2_03_orig.jpg,56,,,,,0,56,56,56,,,,,,,,,,,,,,,,,,,-23.14453125,-12.890625,0,0,1,1.74268698692,,,,,2015_Sep_07_1312,K,facesParametric,1,59.6242551062,
./stim/MorphM7_10_orig.jpg,57,,,,,0,57,57,57,,,,,,,,,,,,,,,,,,,-23.203125,-12.861328125,0,0,1,0.769238948822,,,,,2015_Sep_07_1312,K,facesParametric,1,59.6242551062,
./stim/MorphF8_00_orig.jpg,58,,,,,0,58,58,58,,,,,,,,,,,,,,,,,,,-23.203125,-12.861328125,1,0,0,1.53960299492,,,,,2015_Sep_07_1312,K,facesParametric,1,59.6242551062,
./stim/MorphF7_07_orig.jpg,59,,,,,0,59,59,59,,,,,,,,,,,,,,,,,,,-23.203125,-12.861328125,0,0,1,3.83677196503,,,,,2015_Sep_07_1312,K,facesParametric,1,59.6242551062,
./stim/MorphM8_09_orig.jpg,60,,,,,0,60,60,60,,,,,,,,,,,,,,,,,,,-23.232421875,-12.861328125,0,0,1,0.702785968781,,,,,2015_Sep_07_1312,K,facesParametric,1,59.6242551062,
./stim/MorphF5_08_orig.jpg,61,,,,,0,61,61,61,,,,,,,,,,,,,,,,,,,-23.291015625,-12.890625,0,0,1,5.00985598564,,,,,2015_Sep_07_1312,K,facesParametric,1,59.6242551062,
./stim/MorphM8_00_orig.jpg,62,,,,,0,62,62,62,,,,,,,,,,,,,,,,,,,-23.4375,-12.685546875,0,0,1,11.160738945,,,,,2015_Sep_07_1312,K,facesParametric,1,59.6242551062,
./stim/MorphF4_04_orig.jpg,63,,,,,0,63,63,63,,,,,,,,,,,,,,,,,,,-23.37890625,-12.65625,0,0,1,10.2710568905,,,,,2015_Sep_07_1312,K,facesParametric,1,59.6242551062,
./stim/MorphM8_05_orig.jpg,64,,,,,0,64,64,64,,,,,,,,,,,,,,,,,,,-23.349609375,-12.626953125,0,0,1,12.9705388546,,,,,2015_Sep_07_1312,K,facesParametric,1,59.6242551062,
./stim/MorphM1_09_orig.jpg,65,,,,,0,65,65,65,,,,,,,,,,,,,,,,,,,-23.3203125,-12.65625,0,0,1,1.10441994667,,,,,2015_Sep_07_1312,K,facesParametric,1,59.6242551062,
./stim/MorphF8_04_orig.jpg,66,,,,,0,66,66,66,,,,,,,,,,,,,,,,,,,-23.3203125,-12.65625,1,0,0,5.59515714645,,,,,2015_Sep_07_1312,K,facesParametric,1,59.6242551062,
./stim/MorphM10_07_orig.jpg,67,,,,,0,67,67,67,,,,,,,,,,,,,,,,,,,-23.3203125,-12.65625,0,0,1,1.95935893059,,,,,2015_Sep_07_1312,K,facesParametric,1,59.6242551062,
./stim/MorphM5_05_orig.jpg,68,,,,,0,68,68,68,,,,,,,,,,,,,,,,,,,-23.3203125,-12.65625,0,0,1,1.55745482445,,,,,2015_Sep_07_1312,K,facesParametric,1,59.6242551062,
./stim/MorphM3_02_orig.jpg,69,,,,,0,69,69,69,,,,,,,,,,,,,,,,,,,-23.3203125,-12.65625,1,0,0,1.6566991806,,,,,2015_Sep_07_1312,K,facesParametric,1,59.6242551062,
./stim/MorphF2_08_orig.jpg,70,,,,,0,70,70,70,,,,,,,,,,,,,,,,,,,-23.3203125,-12.65625,0,0,1,11.5958487988,,,,,2015_Sep_07_1312,K,facesParametric,1,59.6242551062,
./stim/MorphM5_00_orig.jpg,71,,,,,0,71,71,71,,,,,,,,,,,,,,,,,,,-23.3203125,-12.65625,1,0,0,1.50713896751,,,,,2015_Sep_07_1312,K,facesParametric,1,59.6242551062,
./stim/MorphF6_07_orig.jpg,72,,,,,0,72,72,72,,,,,,,,,,,,,,,,,,,-23.408203125,-12.59765625,0,0,1,23.8811399937,,,,,2015_Sep_07_1312,K,facesParametric,1,59.6242551062,
./stim/MorphM7_07_orig.jpg,73,,,,,0,73,73,73,,,,,,,,,,,,,,,,,,,-23.408203125,-12.59765625,0,0,1,2.94887685776,,,,,2015_Sep_07_1312,K,facesParametric,1,59.6242551062,
./stim/MorphM4_05_orig.jpg,74,,,,,0,74,74,74,,,,,,,,,,,,,,,,,,,-23.37890625,-12.626953125,1,0,0,25.926074028,,,,,2015_Sep_07_1312,K,facesParametric,1,59.6242551062,
./stim/MorphF1_02_orig.jpg,75,,,,,0,75,75,75,,,,,,,,,,,,,,,,,,,-23.408203125,-12.59765625,1,0,0,1.37344193459,,,,,2015_Sep_07_1312,K,facesParametric,1,59.6242551062,
./stim/MorphM1_03_orig.jpg,76,,,,,0,76,76,76,,,,,,,,,,,,,,,,,,,-23.408203125,-12.59765625,1,0,0,1.9906129837,,,,,2015_Sep_07_1312,K,facesParametric,1,59.6242551062,
./stim/MorphM6_01_orig.jpg,77,,,,,0,77,77,77,,,,,,,,,,,,,,,,,,,-23.408203125,-12.59765625,1,0,0,1.49026703835,,,,,2015_Sep_07_1312,K,facesParametric,1,59.6242551062,
./stim/MorphF5_05_orig.jpg,78,,,,,0,78,78,78,,,,,,,,,,,,,,,,,,,-23.408203125,-12.59765625,1,0,0,2.56290316582,,,,,2015_Sep_07_1312,K,facesParametric,1,59.6242551062,
./stim/MorphF4_10_orig.jpg,79,,,,,0,79,79,79,,,,,,,,,,,,,,,,,,,-23.408203125,-12.59765625,0,0,1,2.11039280891,,,,,2015_Sep_07_1312,K,facesParametric,1,59.6242551062,
./stim/MorphF9_03_orig.jpg,80,,,,,0,80,80,80,,,,,,,,,,,,,,,,,,,-23.408203125,-12.59765625,1,0,0,2.21126580238,,,,,2015_Sep_07_1312,K,facesParametric,1,59.6242551062,
./stim/MorphM8_04_orig.jpg,81,,,,,0,81,81,81,,,,,,,,,,,,,,,,,,,-23.3203125,-12.5390625,0,0,1,17.9481489658,,,,,2015_Sep_07_1312,K,facesParametric,1,59.6242551062,
./stim/MorphF2_04_orig.jpg,82,,,,,0,82,82,82,,,,,,,,,,,,,,,,,,,-23.291015625,-12.509765625,0,0,1,73.6399149895,,,,,2015_Sep_07_1312,K,facesParametric,1,59.6242551062,
./stim/MorphM10_01_orig.jpg,83,,,,,0,83,83,83,,,,,,,,,,,,,,,,,,,-23.291015625,-12.509765625,1,0,0,1.2218439579,,,,,2015_Sep_07_1312,K,facesParametric,1,59.6242551062,
./stim/MorphF6_10_orig.jpg,84,,,,,0,84,84,84,,,,,,,,,,,,,,,,,,,-23.3203125,-12.5390625,0,0,1,0.887028932571,,,,,2015_Sep_07_1312,K,facesParametric,1,59.6242551062,
./stim/MorphF10_00_orig.jpg,85,,,,,0,85,85,85,,,,,,,,,,,,,,,,,,,-23.349609375,-12.509765625,1,0,0,4.33985900879,,,,,2015_Sep_07_1312,K,facesParametric,1,59.6242551062,
./stim/MorphM10_04_orig.jpg,86,,,,,0,86,86,86,,,,,,,,,,,,,,,,,,,-23.349609375,-12.509765625,0,0,1,1.1202249527,,,,,2015_Sep_07_1312,K,facesParametric,1,59.6242551062,
./stim/MorphM4_07_orig.jpg,87,,,,,0,87,87,87,,,,,,,,,,,,,,,,,,,-23.349609375,-12.509765625,0,0,1,1.02101492882,,,,,2015_Sep_07_1312,K,facesParametric,1,59.6242551062,
./stim/MorphF10_07_orig.jpg,88,,,,,0,88,88,88,,,,,,,,,,,,,,,,,,,-23.3203125,-12.5390625,0,0,1,3.14852905273,,,,,2015_Sep_07_1312,K,facesParametric,1,59.6242551062,
./stim/MorphF8_02_orig.jpg,89,,,,,0,89,89,89,,,,,,,,,,,,,,,,,,,-23.26171875,-12.568359375,0,0,1,19.9925460815,,,,,2015_Sep_07_1312,K,facesParametric,1,59.6242551062,
./stim/MorphM10_06_orig.jpg,90,,,,,0,90,90,90,,,,,,,,,,,,,,,,,,,-23.26171875,-12.5390625,0,0,1,1.35624313354,,,,,2015_Sep_07_1312,K,facesParametric,1,59.6242551062,
./stim/MorphF6_06_orig.jpg,91,,,,,0,91,91,91,,,,,,,,,,,,,,,,,,,-23.26171875,-12.5390625,1,0,0,2.09379816055,,,,,2015_Sep_07_1312,K,facesParametric,1,59.6242551062,
./stim/MorphF2_07_orig.jpg,92,,,,,0,92,92,92,,,,,,,,,,,,,,,,,,,-23.26171875,-12.5390625,0,0,1,5.44533491135,,,,,2015_Sep_07_1312,K,facesParametric,1,59.6242551062,
./stim/MorphF3_04_orig.jpg,93,,,,,0,93,93,93,,,,,,,,,,,,,,,,,,,-23.14453125,-12.3046875,1,0,0,3.65216708183,,,,,2015_Sep_07_1312,K,facesParametric,1,59.6242551062,
./stim/MorphM10_10_orig.jpg,94,,,,,0,94,94,94,,,,,,,,,,,,,,,,,,,-23.173828125,-12.12890625,0,0,1,40.6411480904,,,,,2015_Sep_07_1312,K,facesParametric,1,59.6242551062,
./stim/MorphF3_06_orig.jpg,95,,,,,0,95,95,95,,,,,,,,,,,,,,,,,,,-23.173828125,-12.12890625,1,0,0,1.43935799599,,,,,2015_Sep_07_1312,K,facesParametric,1,59.6242551062,
./stim/MorphM8_06_orig.jpg,96,,,,,0,96,96,96,,,,,,,,,,,,,,,,,,,-23.173828125,-12.158203125,0,0,1,6.29916191101,,,,,2015_Sep_07_1312,K,facesParametric,1,59.6242551062,
./stim/MorphM4_02_orig.jpg,97,,,,,0,97,97,97,,,,,,,,,,,,,,,,,,,-23.173828125,-12.158203125,0,0,1,0.936902999878,,,,,2015_Sep_07_1312,K,facesParametric,1,59.6242551062,
./stim/MorphF9_08_orig.jpg,98,,,,,0,98,98,98,,,,,,,,,,,,,,,,,,,-23.173828125,-12.158203125,0,0,1,8.83157587051,,,,,2015_Sep_07_1312,K,facesParametric,1,59.6242551062,
./stim/MorphF3_07_orig.jpg,99,,,,,0,99,99,99,,,,,,,,,,,,,,,,,,,-23.173828125,-12.1875,1,0,0,10.3223810196,,,,,2015_Sep_07_1312,K,facesParametric,1,59.6242551062,
./stim/MorphM10_09_orig.jpg,100,,,,,0,100,100,100,,,,,,,,,,,,,,,,,,,-23.173828125,-12.1875,0,0,1,1.00443315506,,,,,2015_Sep_07_1312,K,facesParametric,1,59.6242551062,
./stim/MorphM4_04_orig.jpg,101,,,,,0,101,101,101,,,,,,,,,,,,,,,,,,,-23.173828125,-12.1875,1,0,0,1.23785090446,,,,,2015_Sep_07_1312,K,facesParametric,1,59.6242551062,
./stim/MorphM6_07_orig.jpg,102,,,,,0,102,102,102,,,,,,,,,,,,,,,,,,,-23.173828125,-12.1875,0,0,1,1.28828716278,,,,,2015_Sep_07_1312,K,facesParametric,1,59.6242551062,
./stim/MorphF4_01_orig.jpg,103,,,,,0,103,103,103,,,,,,,,,,,,,,,,,,,-23.14453125,-12.216796875,1,0,0,1.40662813187,,,,,2015_Sep_07_1312,K,facesParametric,1,59.6242551062,
./stim/MorphF10_06_orig.jpg,104,,,,,0,104,104,104,,,,,,,,,,,,,,,,,,,-23.14453125,-12.216796875,1,0,0,5.17723989487,,,,,2015_Sep_07_1312,K,facesParametric,1,59.6242551062,
./stim/MorphM3_00_orig.jpg,105,,,,,0,105,105,105,,,,,,,,,,,,,,,,,,,-23.14453125,-12.216796875,1,0,0,1.32298207283,,,,,2015_Sep_07_1312,K,facesParametric,1,59.6242551062,
./stim/MorphF7_08_orig.jpg,106,,,,,0,106,106,106,,,,,,,,,,,,,,,,,,,-23.14453125,-12.216796875,0,0,1,1.05431413651,,,,,2015_Sep_07_1312,K,facesParametric,1,59.6242551062,
./stim/MorphF1_06_orig.jpg,107,,,,,0,107,107,107,,,,,,,,,,,,,,,,,,,-23.173828125,-12.216796875,1,0,0,1.32273197174,,,,,2015_Sep_07_1312,K,facesParametric,1,59.6242551062,
./stim/MorphM7_02_orig.jpg,108,,,,,0,108,108,108,,,,,,,,,,,,,,,,,,,-23.173828125,-12.216796875,0,0,1,2.3283059597,,,,,2015_Sep_07_1312,K,facesParametric,1,59.6242551062,
./stim/MorphM5_02_orig.jpg,109,,,,,0,109,109,109,,,,,,,,,,,,,,,,,,,-23.173828125,-12.216796875,1,0,0,1.33974504471,,,,,2015_Sep_07_1312,K,facesParametric,1,59.6242551062,
./stim/MorphM6_08_orig.jpg,110,,,,,0,110,110,110,,,,,,,,,,,,,,,,,,,-23.173828125,-12.216796875,0,0,1,0.902380943298,,,,,2015_Sep_07_1312,K,facesParametric,1,59.6242551062,
./stim/MorphF6_01_orig.jpg,111,,,,,0,111,111,111,,,,,,,,,,,,,,,,,,,-23.173828125,-12.216796875,1,0,0,1.13802814484,,,,,2015_Sep_07_1312,K,facesParametric,1,59.6242551062,
./stim/MorphM3_08_orig.jpg,112,,,,,0,112,112,112,,,,,,,,,,,,,,,,,,,-23.173828125,-12.216796875,1,0,0,4.9582130909,,,,,2015_Sep_07_1312,K,facesParametric,1,59.6242551062,
./stim/MorphF2_06_orig.jpg,113,,,,,0,113,113,113,,,,,,,,,,,,,,,,,,,-23.173828125,-12.216796875,0,0,1,1.65803980827,,,,,2015_Sep_07_1312,K,facesParametric,1,59.6242551062,
./stim/MorphM9_05_orig.jpg,114,,,,,0,114,114,114,,,,,,,,,,,,,,,,,,,-23.173828125,-12.216796875,1,0,0,1.27113199234,,,,,2015_Sep_07_1312,K,facesParametric,1,59.6242551062,
./stim/MorphM7_06_orig.jpg,115,,,,,0,115,115,115,,,,,,,,,,,,,,,,,,,-23.173828125,-12.216796875,0,0,1,0.987127065659,,,,,2015_Sep_07_1312,K,facesParametric,1,59.6242551062,
./stim/MorphF7_00_orig.jpg,116,,,,,0,116,116,116,,,,,,,,,,,,,,,,,,,-23.173828125,-12.216796875,1,0,0,1.17210102081,,,,,2015_Sep_07_1312,K,facesParametric,1,59.6242551062,
./stim/MorphM7_00_orig.jpg,117,,,,,0,117,117,117,,,,,,,,,,,,,,,,,,,-23.173828125,-12.216796875,0,0,1,5.56163811684,,,,,2015_Sep_07_1312,K,facesParametric,1,59.6242551062,
./stim/MorphM6_02_orig.jpg,118,,,,,0,118,118,118,,,,,,,,,,,,,,,,,,,-23.173828125,-12.216796875,1,0,0,2.17545294762,,,,,2015_Sep_07_1312,K,facesParametric,1,59.6242551062,
./stim/MorphF7_04_orig.jpg,119,,,,,0,119,119,119,,,,,,,,,,,,,,,,,,,-23.173828125,-12.216796875,1,0,0,5.06042003632,,,,,2015_Sep_07_1312,K,facesParametric,1,59.6242551062,
./stim/MorphF4_00_orig.jpg,120,,,,,0,120,120,120,,,,,,,,,,,,,,,,,,,-23.173828125,-12.216796875,1,0,0,1.15310287476,,,,,2015_Sep_07_1312,K,facesParametric,1,59.6242551062,
./stim/MorphF9_07_orig.jpg,121,,,,,0,121,121,121,,,,,,,,,,,,,,,,,,,-23.173828125,-12.216796875,0,0,1,2.26119709015,,,,,2015_Sep_07_1312,K,facesParametric,1,59.6242551062,
./stim/MorphF4_05_orig.jpg,122,,,,,0,122,122,122,,,,,,,,,,,,,,,,,,,-23.173828125,-12.216796875,1,0,0,7.08789992332,,,,,2015_Sep_07_1312,K,facesParametric,1,59.6242551062,
./stim/MorphF5_10_orig.jpg,123,,,,,0,123,123,123,,,,,,,,,,,,,,,,,,,-23.173828125,-12.216796875,0,0,1,1.58849596977,,,,,2015_Sep_07_1312,K,facesParametric,1,59.6242551062,
./stim/MorphM9_06_orig.jpg,124,,,,,0,124,124,124,,,,,,,,,,,,,,,,,,,-23.173828125,-12.1875,0,0,1,5.54653406143,,,,,2015_Sep_07_1312,K,facesParametric,1,59.6242551062,
./stim/MorphF1_00_orig.jpg,125,,,,,0,125,125,125,,,,,,,,,,,,,,,,,,,-23.173828125,-12.158203125,1,0,0,2.9795601368,,,,,2015_Sep_07_1312,K,facesParametric,1,59.6242551062,
./stim/MorphF5_07_orig.jpg,126,,,,,0,126,126,126,,,,,,,,,,,,,,,,,,,-23.173828125,-12.158203125,0,0,1,1.50601792336,,,,,2015_Sep_07_1312,K,facesParametric,1,59.6242551062,
./stim/MorphM6_06_orig.jpg,127,,,,,0,127,127,127,,,,,,,,,,,,,,,,,,,-20.68359375,-11.8359375,0,0,1,12.6180491447,,,,,2015_Sep_07_1312,K,facesParametric,1,59.6242551062,
./stim/MorphF2_00_orig.jpg,128,,,,,0,128,128,128,,,,,,,,,,,,,,,,,,,-20.654296875,-11.806640625,1,0,0,2.17559289932,,,,,2015_Sep_07_1312,K,facesParametric,1,59.6242551062,
./stim/MorphM6_03_orig.jpg,129,,,,,0,129,129,129,,,,,,,,,,,,,,,,,,,-20.654296875,-11.806640625,0,0,1,2.16101694107,,,,,2015_Sep_07_1312,K,facesParametric,1,59.6242551062,
./stim/MorphM3_04_orig.jpg,130,,,,,0,130,130,130,,,,,,,,,,,,,,,,,,,-20.654296875,-11.806640625,1,0,0,4.08795499802,,,,,2015_Sep_07_1312,K,facesParametric,1,59.6242551062,
./stim/MorphM8_01_orig.jpg,131,,,,,0,131,131,131,,,,,,,,,,,,,,,,,,,-20.654296875,-11.806640625,1,0,0,5.22841405869,,,,,2015_Sep_07_1312,K,facesParametric,1,59.6242551062,
./stim/MorphM1_06_orig.jpg,132,,,,,0,132,132,132,,,,,,,,,,,,,,,,,,,-20.654296875,-11.806640625,0,0,1,0.968943119049,,,,,2015_Sep_07_1312,K,facesParametric,1,59.6242551062,
./stim/MorphM2_09_orig.jpg,133,,,,,0,133,133,133,,,,,,,,,,,,,,,,,,,-21.09375,-11.923828125,0,0,1,2.12765598297,,,,,2015_Sep_07_1312,K,facesParametric,1,59.6242551062,
./stim/MorphF2_01_orig.jpg,134,,,,,0,134,134,134,,,,,,,,,,,,,,,,,,,-21.09375,-11.923828125,1,0,0,2.52802181244,,,,,2015_Sep_07_1312,K,facesParametric,1,59.6242551062,
./stim/MorphM5_01_orig.jpg,135,,,,,0,135,135,135,,,,,,,,,,,,,,,,,,,-21.15234375,-11.923828125,0,0,1,4.23899197578,,,,,2015_Sep_07_1312,K,facesParametric,1,59.6242551062,
./stim/MorphF8_03_orig.jpg,136,,,,,0,136,136,136,,,,,,,,,,,,,,,,,,,-21.240234375,-11.923828125,1,0,0,1.42369222641,,,,,2015_Sep_07_1312,K,facesParametric,1,59.6242551062,
./stim/MorphF10_03_orig.jpg,137,,,,,0,137,137,137,,,,,,,,,,,,,,,,,,,-20.859375,-12.041015625,1,0,0,91.3716890812,,,,,2015_Sep_07_1312,K,facesParametric,1,59.6242551062,
./stim/MorphM7_09_orig.jpg,138,,,,,0,138,138,138,,,,,,,,,,,,,,,,,,,-20.859375,-12.041015625,0,0,1,0.786460161209,,,,,2015_Sep_07_1312,K,facesParametric,1,59.6242551062,
./stim/MorphM9_00_orig.jpg,139,,,,,0,139,139,139,,,,,,,,,,,,,,,,,,,-20.859375,-12.041015625,1,0,0,3.6524040699,,,,,2015_Sep_07_1312,K,facesParametric,1,59.6242551062,
./stim/MorphM3_05_orig.jpg,140,,,,,0,140,140,140,,,,,,,,,,,,,,,,,,,-23.408203125,-13.06640625,0,0,1,20.512362957,,,,,2015_Sep_07_1312,K,facesParametric,1,59.6242551062,
./stim/MorphM1_07_orig.jpg,141,,,,,0,141,141,141,,,,,,,,,,,,,,,,,,,-23.408203125,-13.06640625,0,0,1,0.801988840103,,,,,2015_Sep_07_1312,K,facesParametric,1,59.6242551062,
./stim/MorphM9_07_orig.jpg,142,,,,,0,142,142,142,,,,,,,,,,,,,,,,,,,-23.408203125,-13.06640625,0,0,1,1.80871319771,,,,,2015_Sep_07_1312,K,facesParametric,1,59.6242551062,
./stim/MorphF3_03_orig.jpg,143,,,,,0,143,143,143,,,,,,,,,,,,,,,,,,,-23.4375,-13.037109375,1,0,0,1.22202086449,,,,,2015_Sep_07_1312,K,facesParametric,1,59.6242551062,
./stim/MorphF4_07_orig.jpg,144,,,,,0,144,144,144,,,,,,,,,,,,,,,,,,,-23.4375,-13.037109375,0,0,1,1.87568902969,,,,,2015_Sep_07_1312,K,facesParametric,1,59.6242551062,
./stim/MorphM2_10_orig.jpg,145,,,,,0,145,145,145,,,,,,,,,,,,,,,,,,,-23.4375,-13.037109375,0,0,1,1.08835601807,,,,,2015_Sep_07_1312,K,facesParametric,1,59.6242551062,
./stim/MorphF7_06_orig.jpg,146,,,,,0,146,146,146,,,,,,,,,,,,,,,,,,,-23.4375,-13.037109375,0,0,1,2.71386504173,,,,,2015_Sep_07_1312,K,facesParametric,1,59.6242551062,
./stim/MorphM8_02_orig.jpg,147,,,,,0,147,147,147,,,,,,,,,,,,,,,,,,,-23.4375,-13.037109375,0,0,1,6.75163507462,,,,,2015_Sep_07_1312,K,facesParametric,1,59.6242551062,
./stim/MorphF3_05_orig.jpg,148,,,,,0,148,148,148,,,,,,,,,,,,,,,,,,,-23.4375,-13.037109375,1,0,0,2.69659781456,,,,,2015_Sep_07_1312,K,facesParametric,1,59.6242551062,
./stim/MorphF6_04_orig.jpg,149,,,,,0,149,149,149,,,,,,,,,,,,,,,,,,,-23.4375,-13.037109375,1,0,0,2.66215014458,,,,,2015_Sep_07_1312,K,facesParametric,1,59.6242551062,
./stim/MorphM4_10_orig.jpg,150,,,,,0,150,150,150,,,,,,,,,,,,,,,,,,,-23.4375,-13.037109375,0,0,1,2.99872899055,,,,,2015_Sep_07_1312,K,facesParametric,1,59.6242551062,
./stim/MorphF10_08_orig.jpg,151,,,,,0,151,151,151,,,,,,,,,,,,,,,,,,,-23.4375,-13.037109375,0,0,1,1.84224104881,,,,,2015_Sep_07_1312,K,facesParametric,1,59.6242551062,
./stim/MorphF5_02_orig.jpg,152,,,,,0,152,152,152,,,,,,,,,,,,,,,,,,,-23.408203125,-13.0078125,1,0,0,29.6970129013,,,,,2015_Sep_07_1312,K,facesParametric,1,59.6242551062,
./stim/MorphF1_05_orig.jpg,153,,,,,0,153,153,153,,,,,,,,,,,,,,,,,,,-23.408203125,-13.0078125,0,0,1,1.52368998528,,,,,2015_Sep_07_1312,K,facesParametric,1,59.6242551062,
./stim/MorphF9_09_orig.jpg,154,,,,,0,154,154,154,,,,,,,,,,,,,,,,,,,-23.4375,-12.978515625,0,0,1,0.852370023727,,,,,2015_Sep_07_1312,K,facesParametric,1,59.6242551062,
./stim/MorphF5_03_orig.jpg,155,,,,,0,155,155,155,,,,,,,,,,,,,,,,,,,-23.4375,-12.978515625,1,0,0,3.70235681534,,,,,2015_Sep_07_1312,K,facesParametric,1,59.6242551062,
./stim/MorphF4_03_orig.jpg,156,,,,,0,156,156,156,,,,,,,,,,,,,,,,,,,-23.4375,-12.978515625,1,0,0,2.0097360611,,,,,2015_Sep_07_1312,K,facesParametric,1,59.6242551062,
./stim/MorphF5_01_orig.jpg,157,,,,,0,157,157,157,,,,,,,,,,,,,,,,,,,-23.4375,-12.978515625,1,0,0,4.52367806435,,,,,2015_Sep_07_1312,K,facesParametric,1,59.6242551062,
./stim/MorphM1_01_orig.jpg,158,,,,,0,158,158,158,,,,,,,,,,,,,,,,,,,-23.4375,-12.83203125,1,0,0,2.00995898247,,,,,2015_Sep_07_1312,K,facesParametric,1,59.6242551062,
./stim/MorphF9_02_orig.jpg,159,,,,,0,159,159,159,,,,,,,,,,,,,,,,,,,-23.4375,-12.7734375,1,0,0,2.4792611599,,,,,2015_Sep_07_1312,K,facesParametric,1,59.6242551062,
./stim/MorphF2_02_orig.jpg,160,,,,,0,160,160,160,,,,,,,,,,,,,,,,,,,-23.4375,-12.48046875,1,0,0,24.6688628197,,,,,2015_Sep_07_1312,K,facesParametric,1,59.6242551062,
./stim/MorphM8_10_orig.jpg,161,,,,,0,161,161,161,,,,,,,,,,,,,,,,,,,-23.4375,-12.48046875,1,0,0,2.47694087029,,,,,2015_Sep_07_1312,K,facesParametric,1,59.6242551062,
./stim/MorphM1_10_orig.jpg,162,,,,,0,162,162,162,,,,,,,,,,,,,,,,,,,-23.4375,-12.48046875,0,0,1,6.11642003059,,,,,2015_Sep_07_1312,K,facesParametric,1,59.6242551062,
./stim/MorphF10_04_orig.jpg,163,,,,,0,163,163,163,,,,,,,,,,,,,,,,,,,-23.4375,-12.48046875,1,0,0,1.25557208061,,,,,2015_Sep_07_1312,K,facesParametric,1,59.6242551062,
./stim/MorphF3_00_orig.jpg,164,,,,,0,164,164,164,,,,,,,,,,,,,,,,,,,-23.4375,-12.48046875,1,0,0,1.32296991348,,,,,2015_Sep_07_1312,K,facesParametric,1,59.6242551062,
./stim/MorphM2_07_orig.jpg,165,,,,,0,165,165,165,,,,,,,,,,,,,,,,,,,-23.4375,-12.48046875,1,0,0,3.98650693893,,,,,2015_Sep_07_1312,K,facesParametric,1,59.6242551062,
./stim/MorphF7_05_orig.jpg,166,,,,,0,166,166,166,,,,,,,,,,,,,,,,,,,-23.4375,-12.48046875,1,0,0,1.60661005974,,,,,2015_Sep_07_1312,K,facesParametric,1,59.6242551062,
./stim/MorphF6_03_orig.jpg,167,,,,,0,167,167,167,,,,,,,,,,,,,,,,,,,-23.4375,-12.48046875,1,0,0,1.00441980362,,,,,2015_Sep_07_1312,K,facesParametric,1,59.6242551062,
./stim/MorphF3_02_orig.jpg,168,,,,,0,168,168,168,,,,,,,,,,,,,,,,,,,-23.4375,-12.48046875,1,0,0,1.95956897736,,,,,2015_Sep_07_1312,K,facesParametric,1,59.6242551062,
./stim/MorphF1_01_orig.jpg,169,,,,,0,169,169,169,,,,,,,,,,,,,,,,,,,-23.4375,-12.48046875,1,0,0,0.735489845276,,,,,2015_Sep_07_1312,K,facesParametric,1,59.6242551062,
./stim/MorphM1_04_orig.jpg,170,,,,,0,170,170,170,,,,,,,,,,,,,,,,,,,-23.4375,-12.48046875,1,0,0,5.37863898277,,,,,2015_Sep_07_1312,K,facesParametric,1,59.6242551062,
./stim/MorphF4_09_orig.jpg,171,,,,,0,171,171,171,,,,,,,,,,,,,,,,,,,-23.4375,-12.48046875,0,0,1,0.903699159622,,,,,2015_Sep_07_1312,K,facesParametric,1,59.6242551062,
./stim/MorphM6_00_orig.jpg,172,,,,,0,172,172,172,,,,,,,,,,,,,,,,,,,-23.4375,-12.48046875,1,0,0,1.38978886604,,,,,2015_Sep_07_1312,K,facesParametric,1,59.6242551062,
./stim/MorphM5_09_orig.jpg,173,,,,,0,173,173,173,,,,,,,,,,,,,,,,,,,-23.4375,-12.48046875,0,0,1,0.987663030624,,,,,2015_Sep_07_1312,K,facesParametric,1,59.6242551062,
./stim/MorphF5_06_orig.jpg,174,,,,,0,174,174,174,,,,,,,,,,,,,,,,,,,-23.4375,-12.48046875,0,0,1,2.19446492195,,,,,2015_Sep_07_1312,K,facesParametric,1,59.6242551062,
./stim/MorphF9_01_orig.jpg,175,,,,,0,175,175,175,,,,,,,,,,,,,,,,,,,-23.4375,-12.48046875,1,0,0,1.70784807205,,,,,2015_Sep_07_1312,K,facesParametric,1,59.6242551062,
./stim/MorphM5_07_orig.jpg,176,,,,,0,176,176,176,,,,,,,,,,,,,,,,,,,-23.4375,-12.48046875,0,0,1,2.98239207268,,,,,2015_Sep_07_1312,K,facesParametric,1,59.6242551062,
./stim/MorphM2_01_orig.jpg,177,,,,,0,177,177,177,,,,,,,,,,,,,,,,,,,-23.4375,-12.48046875,1,0,0,1.07117891312,,,,,2015_Sep_07_1312,K,facesParametric,1,59.6242551062,
./stim/MorphM7_03_orig.jpg,178,,,,,0,178,178,178,,,,,,,,,,,,,,,,,,,-23.4375,-12.48046875,0,0,1,1.12179398537,,,,,2015_Sep_07_1312,K,facesParametric,1,59.6242551062,
./stim/MorphM9_09_orig.jpg,179,,,,,0,179,179,179,,,,,,,,,,,,,,,,,,,-23.4375,-12.48046875,0,0,1,1.00537991524,,,,,2015_Sep_07_1312,K,facesParametric,1,59.6242551062,
./stim/MorphF9_10_orig.jpg,180,,,,,0,180,180,180,,,,,,,,,,,,,,,,,,,-23.4375,-12.48046875,0,0,1,1.95606589317,,,,,2015_Sep_07_1312,K,facesParametric,1,59.6242551062,
./stim/MorphF8_10_orig.jpg,181,,,,,0,181,181,181,,,,,,,,,,,,,,,,,,,-23.4375,-12.48046875,0,0,1,0.852690935135,,,,,2015_Sep_07_1312,K,facesParametric,1,59.6242551062,
./stim/MorphF10_10_orig.jpg,182,,,,,0,182,182,182,,,,,,,,,,,,,,,,,,,-23.4375,-12.48046875,0,0,1,1.22196984291,,,,,2015_Sep_07_1312,K,facesParametric,1,59.6242551062,
./stim/MorphM3_09_orig.jpg,183,,,,,0,183,183,183,,,,,,,,,,,,,,,,,,,-23.4375,-12.48046875,0,0,1,1.0709540844,,,,,2015_Sep_07_1312,K,facesParametric,1,59.6242551062,
./stim/MorphF10_05_orig.jpg,184,,,,,0,184,184,184,,,,,,,,,,,,,,,,,,,-23.4375,-12.48046875,1,0,0,2.22763895988,,,,,2015_Sep_07_1312,K,facesParametric,1,59.6242551062,
./stim/MorphF6_00_orig.jpg,185,,,,,0,185,185,185,,,,,,,,,,,,,,,,,,,-23.4375,-12.48046875,1,0,0,1.35536980629,,,,,2015_Sep_07_1312,K,facesParametric,1,59.6242551062,
./stim/MorphF8_08_orig.jpg,186,,,,,0,186,186,186,,,,,,,,,,,,,,,,,,,-20.0390625,-13.154296875,1,0,0,16.188616991,,,,,2015_Sep_07_1312,K,facesParametric,1,59.6242551062,
./stim/MorphF7_10_orig.jpg,187,,,,,0,187,187,187,,,,,,,,,,,,,,,,,,,-20.009765625,-13.125,0,0,1,4.75820803642,,,,,2015_Sep_07_1312,K,facesParametric,1,59.6242551062,
./stim/MorphM9_10_orig.jpg,188,,,,,0,188,188,188,,,,,,,,,,,,,,,,,,,-20.009765625,-13.125,0,0,1,2.19432902336,,,,,2015_Sep_07_1312,K,facesParametric,1,59.6242551062,
./stim/MorphM10_05_orig.jpg,189,,,,,0,189,189,189,,,,,,,,,,,,,,,,,,,-20.009765625,-13.125,1,0,0,2.62993693352,,,,,2015_Sep_07_1312,K,facesParametric,1,59.6242551062,
./stim/MorphM8_03_orig.jpg,190,,,,,0,190,190,190,,,,,,,,,,,,,,,,,,,-20.009765625,-13.125,1,0,0,3.61909103394,,,,,2015_Sep_07_1312,K,facesParametric,1,59.6242551062,
./stim/MorphF2_10_orig.jpg,191,,,,,0,191,191,191,,,,,,,,,,,,,,,,,,,-20.009765625,-13.125,0,0,1,5.29421901703,,,,,2015_Sep_07_1312,K,facesParametric,1,59.6242551062,
./stim/MorphM1_02_orig.jpg,192,,,,,0,192,192,192,,,,,,,,,,,,,,,,,,,-20.009765625,-13.125,0,0,1,1.03835201263,,,,,2015_Sep_07_1312,K,facesParametric,1,59.6242551062,
./stim/MorphM4_09_orig.jpg,193,,,,,0,193,193,193,,,,,,,,,,,,,,,,,,,-20.009765625,-13.125,0,0,1,0.803202152252,,,,,2015_Sep_07_1312,K,facesParametric,1,59.6242551062,
./stim/MorphM8_07_orig.jpg,194,,,,,0,194,194,194,,,,,,,,,,,,,,,,,,,-20.009765625,-13.125,1,0,0,3.08253216743,,,,,2015_Sep_07_1312,K,facesParametric,1,59.6242551062,
./stim/MorphM1_08_orig.jpg,195,,,,,0,195,195,195,,,,,,,,,,,,,,,,,,,-20.009765625,-13.125,1,0,0,3.35030388832,,,,,2015_Sep_07_1312,K,facesParametric,1,59.6242551062,
./stim/MorphF4_08_orig.jpg,196,,,,,0,196,196,196,,,,,,,,,,,,,,,,,,,-20.009765625,-13.125,0,0,1,2.19460296631,,,,,2015_Sep_07_1312,K,facesParametric,1,59.6242551062,
./stim/MorphM9_04_orig.jpg,197,,,,,0,197,197,197,,,,,,,,,,,,,,,,,,,-20.009765625,-13.125,1,0,0,1.45663619041,,,,,2015_Sep_07_1312,K,facesParametric,1,59.6242551062,
./stim/MorphF1_09_orig.jpg,198,,,,,0,198,198,198,,,,,,,,,,,,,,,,,,,-20.009765625,-13.125,1,0,0,1.62442803383,,,,,2015_Sep_07_1312,K,facesParametric,1,59.6242551062,
./stim/MorphM9_08_orig.jpg,199,,,,,0,199,199,199,,,,,,,,,,,,,,,,,,,-20.009765625,-13.125,0,0,1,2.94624614716,,,,,2015_Sep_07_1312,K,facesParametric,1,59.6242551062,
./stim/MorphF10_01_orig.jpg,200,,,,,0,200,200,200,,,,,,,,,,,,,,,,,,,-20.009765625,-13.125,1,0,0,1.37321996689,,,,,2015_Sep_07_1312,K,facesParametric,1,59.6242551062,
./stim/MorphM10_00_orig.jpg,201,,,,,0,201,201,201,,,,,,,,,,,,,,,,,,,-20.009765625,-13.125,1,0,0,1.10308504105,,,,,2015_Sep_07_1312,K,facesParametric,1,59.6242551062,
./stim/MorphM2_00_orig.jpg,202,,,,,0,202,202,202,,,,,,,,,,,,,,,,,,,-20.009765625,-13.125,1,0,0,4.05429387093,,,,,2015_Sep_07_1312,K,facesParametric,1,59.6242551062,
./stim/MorphM9_01_orig.jpg,203,,,,,0,203,203,203,,,,,,,,,,,,,,,,,,,-20.009765625,-13.125,1,0,0,1.38994383812,,,,,2015_Sep_07_1312,K,facesParametric,1,59.6242551062,
./stim/MorphF7_09_orig.jpg,204,,,,,0,204,204,204,,,,,,,,,,,,,,,,,,,-20.009765625,-13.125,0,0,1,1.50725698471,,,,,2015_Sep_07_1312,K,facesParametric,1,59.6242551062,
./stim/MorphF9_00_orig.jpg,205,,,,,0,205,205,205,,,,,,,,,,,,,,,,,,,-20.009765625,-13.125,1,0,0,1.79138898849,,,,,2015_Sep_07_1312,K,facesParametric,1,59.6242551062,
./stim/MorphM2_02_orig.jpg,206,,,,,0,206,206,206,,,,,,,,,,,,,,,,,,,-20.009765625,-13.125,1,0,0,1.79259800911,,,,,2015_Sep_07_1312,K,facesParametric,1,59.6242551062,
./stim/MorphF8_05_orig.jpg,207,,,,,0,207,207,207,,,,,,,,,,,,,,,,,,,-20.009765625,-13.125,1,0,0,3.09687185287,,,,,2015_Sep_07_1312,K,facesParametric,1,59.6242551062,
./stim/MorphF3_09_orig.jpg,208,,,,,0,208,208,208,,,,,,,,,,,,,,,,,,,-20.009765625,-13.125,1,0,0,4.47323393822,,,,,2015_Sep_07_1312,K,facesParametric,1,59.6242551062,
./stim/MorphM5_10_orig.jpg,209,,,,,0,209,209,209,,,,,,,,,,,,,,,,,,,-20.009765625,-13.125,0,0,1,4.60715484619,,,,,2015_Sep_07_1312,K,facesParametric,1,59.6242551062,
./stim/MorphM8_08_orig.jpg,210,,,,,0,210,210,210,,,,,,,,,,,,,,,,,,,-20.009765625,-13.125,0,0,1,2.16043782234,,,,,2015_Sep_07_1312,K,facesParametric,1,59.6242551062,
./stim/MorphM3_07_orig.jpg,211,,,,,0,211,211,211,,,,,,,,,,,,,,,,,,,-20.068359375,-13.125,0,0,1,7.54086589813,,,,,2015_Sep_07_1312,K,facesParametric,1,59.6242551062,
./stim/MorphM5_06_orig.jpg,212,,,,,0,212,212,212,,,,,,,,,,,,,,,,,,,-20.0390625,-13.154296875,1,0,0,8.98183393478,,,,,2015_Sep_07_1312,K,facesParametric,1,59.6242551062,
./stim/MorphF5_09_orig.jpg,213,,,,,0,213,213,213,,,,,,,,,,,,,,,,,,,-20.068359375,-13.154296875,0,0,1,4.28827810287,,,,,2015_Sep_07_1312,K,facesParametric,1,59.6242551062,
./stim/MorphF8_06_orig.jpg,214,,,,,0,214,214,214,,,,,,,,,,,,,,,,,,,-20.185546875,-13.154296875,0,0,1,0.987955093384,,,,,2015_Sep_07_1312,K,facesParametric,1,59.6242551062,
./stim/MorphF5_04_orig.jpg,215,,,,,0,215,215,215,,,,,,,,,,,,,,,,,,,-20.185546875,-13.154296875,1,0,0,2.1601998806,,,,,2015_Sep_07_1312,K,facesParametric,1,59.6242551062,
./stim/MorphM2_04_orig.jpg,216,,,,,0,216,216,216,,,,,,,,,,,,,,,,,,,-20.185546875,-13.154296875,0,0,1,2.04391503334,,,,,2015_Sep_07_1312,K,facesParametric,1,59.6242551062,
./stim/MorphF2_05_orig.jpg,217,,,,,0,217,217,217,,,,,,,,,,,,,,,,,,,-20.361328125,-13.125,1,0,0,14.713545084,,,,,2015_Sep_07_1312,K,facesParametric,1,59.6242551062,
./stim/MorphM7_01_orig.jpg,218,,,,,0,218,218,218,,,,,,,,,,,,,,,,,,,-20.302734375,-13.154296875,1,0,0,8.46293997765,,,,,2015_Sep_07_1312,K,facesParametric,1,59.6242551062,
./stim/MorphF10_09_orig.jpg,219,,,,,0,219,219,219,,,,,,,,,,,,,,,,,,,-20.302734375,-13.154296875,0,0,1,1.01874995232,,,,,2015_Sep_07_1312,K,facesParametric,1,59.6242551062,
,,,,,,,,,,,,,,,,,,,,,,,,,,,,,,,,,,return,57.3853869438,,,2015_Sep_07_1312,K,facesParametric,1,59.6242551062,
./stim/MorphM6_10_orig.jpg,0,,,,,,,,,0,0,0,0,,,,,,,,,,,,,,,-20.2734375,-13.125,1,0,0,63.5865221024,,,,,2015_Sep_07_1312,K,facesParametric,1,59.6242551062,
./stim/MorphF9_04_orig.jpg,1,,,,,,,,,0,1,1,1,,,,,,,,,,,,,,,-20.2734375,-13.125,1,0,0,3.09771990776,,,,,2015_Sep_07_1312,K,facesParametric,1,59.6242551062,
./stim/MorphM3_03_orig.jpg,2,,,,,,,,,0,2,2,2,,,,,,,,,,,,,,,-20.2734375,-13.125,1,0,0,1.75826311111,,,,,2015_Sep_07_1312,K,facesParametric,1,59.6242551062,
./stim/MorphM1_00_orig.jpg,3,,,,,,,,,0,3,3,3,,,,,,,,,,,,,,,-20.2734375,-13.125,1,0,0,1.57410907745,,,,,2015_Sep_07_1312,K,facesParametric,1,59.6242551062,
./stim/MorphM6_09_orig.jpg,4,,,,,,,,,0,4,4,4,,,,,,,,,,,,,,,-20.2734375,-13.125,1,0,0,18.7865018845,,,,,2015_Sep_07_1312,K,facesParametric,1,59.6242551062,
./stim/MorphM10_02_orig.jpg,5,,,,,,,,,0,5,5,5,,,,,,,,,,,,,,,-20.2734375,-13.125,1,0,0,1.64117383957,,,,,2015_Sep_07_1312,K,facesParametric,1,59.6242551062,
./stim/MorphM3_06_orig.jpg,6,,,,,,,,,0,6,6,6,,,,,,,,,,,,,,,-20.2734375,-13.125,1,0,0,2.64659309387,,,,,2015_Sep_07_1312,K,facesParametric,1,59.6242551062,
./stim/MorphM7_08_orig.jpg,7,,,,,,,,,0,7,7,7,,,,,,,,,,,,,,,-20.2734375,-13.095703125,0,0,1,0.920650005341,,,,,2015_Sep_07_1312,K,facesParametric,1,59.6242551062,
./stim/MorphM6_04_orig.jpg,8,,,,,,,,,0,8,8,8,,,,,,,,,,,,,,,-20.2734375,-13.06640625,1,0,0,1.99322009087,,,,,2015_Sep_07_1312,K,facesParametric,1,59.6242551062,
./stim/MorphM2_05_orig.jpg,9,,,,,,,,,0,9,9,9,,,,,,,,,,,,,,,-20.2734375,-13.037109375,1,0,0,1.1221370697,,,,,2015_Sep_07_1312,K,facesParametric,1,59.6242551062,
./stim/MorphM3_01_orig.jpg,10,,,,,,,,,0,10,10,10,,,,,,,,,,,,,,,-20.244140625,-12.83203125,1,0,0,3.68431806564,,,,,2015_Sep_07_1312,K,facesParametric,1,59.6242551062,
./stim/MorphF1_03_orig.jpg,11,,,,,,,,,0,11,11,11,,,,,,,,,,,,,,,-20.244140625,-12.802734375,1,0,0,1.72443294525,,,,,2015_Sep_07_1312,K,facesParametric,1,59.6242551062,
./stim/MorphF8_09_orig.jpg,12,,,,,,,,,0,12,12,12,,,,,,,,,,,,,,,-20.244140625,-12.802734375,0,0,1,0.920571088791,,,,,2015_Sep_07_1312,K,facesParametric,1,59.6242551062,
./stim/MorphF3_01_orig.jpg,13,,,,,,,,,0,13,13,13,,,,,,,,,,,,,,,-17.197265625,3.486328125,1,0,0,5.21141505241,,,,,2015_Sep_07_1312,K,facesParametric,1,59.6242551062,
./stim/MorphF7_03_orig.jpg,14,,,,,,,,,0,14,14,14,,,,,,,,,,,,,,,-17.197265625,3.486328125,0,0,1,1.12152194977,,,,,2015_Sep_07_1312,K,facesParametric,1,59.6242551062,
./stim/MorphM1_05_orig.jpg,15,,,,,,,,,0,15,15,15,,,,,,,,,,,,,,,-17.197265625,3.486328125,0,0,1,2.19385886192,,,,,2015_Sep_07_1312,K,facesParametric,1,59.6242551062,
./stim/MorphM5_08_orig.jpg,16,,,,,,,,,0,16,16,16,,,,,,,,,,,,,,,-17.197265625,3.486328125,0,0,1,0.887197971344,,,,,2015_Sep_07_1312,K,facesParametric,1,59.6242551062,
./stim/MorphF7_01_orig.jpg,17,,,,,,,,,0,17,17,17,,,,,,,,,,,,,,,-17.2265625,3.544921875,1,0,0,0.987833976746,,,,,2015_Sep_07_1312,K,facesParametric,1,59.6242551062,
./stim/MorphF1_10_orig.jpg,18,,,,,,,,,0,18,18,18,,,,,,,,,,,,,,,-17.2265625,3.544921875,0,0,1,1.49021792412,,,,,2015_Sep_07_1312,K,facesParametric,1,59.6242551062,
./stim/MorphF9_06_orig.jpg,19,,,,,,,,,0,19,19,19,,,,,,,,,,,,,,,-17.255859375,3.57421875,1,0,0,14.7475309372,,,,,2015_Sep_07_1312,K,facesParametric,1,59.6242551062,
./stim/MorphM4_00_orig.jpg,20,,,,,,,,,0,20,20,20,,,,,,,,,,,,,,,-17.255859375,3.57421875,0,0,1,1.13839387894,,,,,2015_Sep_07_1312,K,facesParametric,1,59.6242551062,
./stim/MorphM10_08_orig.jpg,21,,,,,,,,,0,21,21,21,,,,,,,,,,,,,,,-17.255859375,3.57421875,0,0,1,4.59068393707,,,,,2015_Sep_07_1312,K,facesParametric,1,59.6242551062,
./stim/MorphF8_07_orig.jpg,22,,,,,,,,,0,22,22,22,,,,,,,,,,,,,,,-17.255859375,3.57421875,0,0,1,0.937186002731,,,,,2015_Sep_07_1312,K,facesParametric,1,59.6242551062,
./stim/MorphF6_02_orig.jpg,23,,,,,,,,,0,23,23,23,,,,,,,,,,,,,,,-17.255859375,3.57421875,1,0,0,0.93732380867,,,,,2015_Sep_07_1312,K,facesParametric,1,59.6242551062,
./stim/MorphM2_08_orig.jpg,24,,,,,,,,,0,24,24,24,,,,,,,,,,,,,,,-17.28515625,3.603515625,1,0,0,1.69064307213,,,,,2015_Sep_07_1312,K,facesParametric,1,59.6242551062,
./stim/MorphF9_05_orig.jpg,25,,,,,,,,,0,25,25,25,,,,,,,,,,,,,,,-17.28515625,3.603515625,1,0,0,1.22188806534,,,,,2015_Sep_07_1312,K,facesParametric,1,59.6242551062,
./stim/MorphF1_08_orig.jpg,26,,,,,,,,,0,26,26,26,,,,,,,,,,,,,,,-17.28515625,3.603515625,0,0,1,1.74036979675,,,,,2015_Sep_07_1312,K,facesParametric,1,59.6242551062,
./stim/MorphF6_09_orig.jpg,27,,,,,,,,,0,27,27,27,,,,,,,,,,,,,,,-17.28515625,3.603515625,0,0,1,1.62444901466,,,,,2015_Sep_07_1312,K,facesParametric,1,59.6242551062,
./stim/MorphF2_09_orig.jpg,28,,,,,,,,,0,28,28,28,,,,,,,,,,,,,,,-17.28515625,3.603515625,0,0,1,1.12167000771,,,,,2015_Sep_07_1312,K,facesParametric,1,59.6242551062,
./stim/MorphF1_04_orig.jpg,29,,,,,,,,,0,29,29,29,,,,,,,,,,,,,,,-17.28515625,3.603515625,1,0,0,1.02087402344,,,,,2015_Sep_07_1312,K,facesParametric,1,59.6242551062,
./stim/MorphM4_06_orig.jpg,30,,,,,,,,,0,30,30,30,,,,,,,,,,,,,,,-17.255859375,3.6328125,0,0,1,7.17198109627,,,,,2015_Sep_07_1312,K,facesParametric,1,59.6242551062,
./stim/MorphM5_04_orig.jpg,31,,,,,,,,,0,31,31,31,,,,,,,,,,,,,,,-17.255859375,3.6328125,1,0,0,1.89204287529,,,,,2015_Sep_07_1312,K,facesParametric,1,59.6242551062,
./stim/MorphF10_02_orig.jpg,32,,,,,,,,,0,32,32,32,,,,,,,,,,,,,,,-17.28515625,3.662109375,1,0,0,1.12165594101,,,,,2015_Sep_07_1312,K,facesParametric,1,59.6242551062,
./stim/MorphF6_05_orig.jpg,33,,,,,,,,,0,33,33,33,,,,,,,,,,,,,,,-17.28515625,3.662109375,1,0,0,0.734889984131,,,,,2015_Sep_07_1312,K,facesParametric,1,59.6242551062,
./stim/MorphF8_01_orig.jpg,34,,,,,,,,,0,34,34,34,,,,,,,,,,,,,,,-17.28515625,3.662109375,1,0,0,1.15522313118,,,,,2015_Sep_07_1312,K,facesParametric,1,59.6242551062,
./stim/MorphM2_06_orig.jpg,35,,,,,,,,,0,35,35,35,,,,,,,,,,,,,,,-17.28515625,3.662109375,1,0,0,1.00419187546,,,,,2015_Sep_07_1312,K,facesParametric,1,59.6242551062,
./stim/MorphM9_02_orig.jpg,36,,,,,,,,,0,36,36,36,,,,,,,,,,,,,,,-17.28515625,3.662109375,1,0,0,1.1890141964,,,,,2015_Sep_07_1312,K,facesParametric,1,59.6242551062,
./stim/MorphM5_03_orig.jpg,37,,,,,,,,,0,37,37,37,,,,,,,,,,,,,,,-17.28515625,3.662109375,1,0,0,3.56864309311,,,,,2015_Sep_07_1312,K,facesParametric,1,59.6242551062,
./stim/MorphM4_01_orig.jpg,38,,,,,,,,,0,38,38,38,,,,,,,,,,,,,,,-17.255859375,3.69140625,1,0,0,1.60727095604,,,,,2015_Sep_07_1312,K,facesParametric,1,59.6242551062,
./stim/MorphM6_05_orig.jpg,39,,,,,,,,,0,39,39,39,,,,,,,,,,,,,,,-17.197265625,3.603515625,1,0,0,7.58952903748,,,,,2015_Sep_07_1312,K,facesParametric,1,59.6242551062,
./stim/MorphF4_02_orig.jpg,40,,,,,,,,,0,40,40,40,,,,,,,,,,,,,,,-17.197265625,3.603515625,1,0,0,1.288230896,,,,,2015_Sep_07_1312,K,facesParametric,1,59.6242551062,
./stim/MorphM9_03_orig.jpg,41,,,,,,,,,0,41,41,41,,,,,,,,,,,,,,,-17.197265625,3.603515625,1,0,0,1.23867702484,,,,,2015_Sep_07_1312,K,facesParametric,1,59.6242551062,
./stim/MorphF4_06_orig.jpg,42,,,,,,,,,0,42,42,42,,,,,,,,,,,,,,,-17.197265625,3.603515625,0,0,1,1.75872206688,,,,,2015_Sep_07_1312,K,facesParametric,1,59.6242551062,
./stim/MorphF5_00_orig.jpg,43,,,,,,,,,0,43,43,43,,,,,,,,,,,,,,,-17.197265625,3.603515625,1,0,0,2.39576101303,,,,,2015_Sep_07_1312,K,facesParametric,1,59.6242551062,
./stim/MorphM7_04_orig.jpg,44,,,,,,,,,0,44,44,44,,,,,,,,,,,,,,,-17.2265625,3.57421875,0,0,1,1.45541000366,,,,,2015_Sep_07_1312,K,facesParametric,1,59.6242551062,
./stim/MorphF1_07_orig.jpg,45,,,,,,,,,0,45,45,45,,,,,,,,,,,,,,,-17.2265625,3.57421875,0,0,1,1.32281398773,,,,,2015_Sep_07_1312,K,facesParametric,1,59.6242551062,
./stim/MorphF7_02_orig.jpg,46,,,,,,,,,0,46,46,46,,,,,,,,,,,,,,,-17.28515625,3.603515625,1,0,0,3.33387899399,,,,,2015_Sep_07_1312,K,facesParametric,1,59.6242551062,
./stim/MorphF3_08_orig.jpg,47,,,,,,,,,0,47,47,47,,,,,,,,,,,,,,,-17.28515625,3.603515625,0,0,1,1.7061290741,,,,,2015_Sep_07_1312,K,facesParametric,1,59.6242551062,
./stim/MorphM4_03_orig.jpg,48,,,,,,,,,0,48,48,48,,,,,,,,,,,,,,,-17.28515625,3.603515625,1,0,0,3.26704502106,,,,,2015_Sep_07_1312,K,facesParametric,1,59.6242551062,
./stim/MorphM7_05_orig.jpg,49,,,,,,,,,0,49,49,49,,,,,,,,,,,,,,,-17.28515625,3.603515625,0,0,1,1.90932512283,,,,,2015_Sep_07_1312,K,facesParametric,1,59.6242551062,
./stim/MorphM4_08_orig.jpg,50,,,,,,,,,0,50,50,50,,,,,,,,,,,,,,,-17.28515625,3.603515625,0,0,1,1.004155159,,,,,2015_Sep_07_1312,K,facesParametric,1,59.6242551062,
./stim/MorphM2_03_orig.jpg,51,,,,,,,,,0,51,51,51,,,,,,,,,,,,,,,-17.40234375,3.662109375,1,0,0,1.12170290947,,,,,2015_Sep_07_1312,K,facesParametric,1,59.6242551062,
./stim/MorphF3_10_orig.jpg,52,,,,,,,,,0,52,52,52,,,,,,,,,,,,,,,-17.431640625,3.69140625,0,0,1,1.52426695824,,,,,2015_Sep_07_1312,K,facesParametric,1,59.6242551062,
./stim/MorphF6_08_orig.jpg,53,,,,,,,,,0,53,53,53,,,,,,,,,,,,,,,-17.431640625,3.69140625,0,0,1,1.3557779789,,,,,2015_Sep_07_1312,K,facesParametric,1,59.6242551062,
./stim/MorphM3_10_orig.jpg,54,,,,,,,,,0,54,54,54,,,,,,,,,,,,,,,-17.63671875,3.779296875,0,0,1,1.22141098976,,,,,2015_Sep_07_1312,K,facesParametric,1,59.6242551062,
./stim/MorphM10_03_orig.jpg,55,,,,,,,,,0,55,55,55,,,,,,,,,,,,,,,-17.63671875,3.779296875,1,0,0,1.79170203209,,,,,2015_Sep_07_1312,K,facesParametric,1,59.6242551062,
./stim/MorphF2_03_orig.jpg,56,,,,,,,,,0,56,56,56,,,,,,,,,,,,,,,-17.63671875,3.779296875,0,0,1,2.56112504005,,,,,2015_Sep_07_1312,K,facesParametric,1,59.6242551062,
./stim/MorphM7_10_orig.jpg,57,,,,,,,,,0,57,57,57,,,,,,,,,,,,,,,-17.63671875,3.779296875,0,0,1,0.836494922638,,,,,2015_Sep_07_1312,K,facesParametric,1,59.6242551062,
./stim/MorphF8_00_orig.jpg,58,,,,,,,,,0,58,58,58,,,,,,,,,,,,,,,-17.666015625,3.80859375,1,0,0,1.72512722015,,,,,2015_Sep_07_1312,K,facesParametric,1,59.6242551062,
./stim/MorphF7_07_orig.jpg,59,,,,,,,,,0,59,59,59,,,,,,,,,,,,,,,-17.6953125,3.837890625,0,0,1,10.4736139774,,,,,2015_Sep_07_1312,K,facesParametric,1,59.6242551062,
./stim/MorphM8_09_orig.jpg,60,,,,,,,,,0,60,60,60,,,,,,,,,,,,,,,-17.724609375,3.8671875,0,0,1,1.1536860466,,,,,2015_Sep_07_1312,K,facesParametric,1,59.6242551062,
./stim/MorphF5_08_orig.jpg,61,,,,,,,,,0,61,61,61,,,,,,,,,,,,,,,-17.724609375,3.8671875,0,0,1,2.36015200615,,,,,2015_Sep_07_1312,K,facesParametric,1,59.6242551062,
./stim/MorphM8_00_orig.jpg,62,,,,,,,,,0,62,62,62,,,,,,,,,,,,,,,-17.724609375,3.8671875,1,0,0,2.21124100685,,,,,2015_Sep_07_1312,K,facesParametric,1,59.6242551062,
./stim/MorphF4_04_orig.jpg,63,,,,,,,,,0,63,63,63,,,,,,,,,,,,,,,-17.6953125,3.837890625,1,0,0,3.43384194374,,,,,2015_Sep_07_1312,K,facesParametric,1,59.6242551062,
./stim/MorphM8_05_orig.jpg,64,,,,,,,,,0,64,64,64,,,,,,,,,,,,,,,-17.6953125,3.837890625,1,0,0,1.27164316177,,,,,2015_Sep_07_1312,K,facesParametric,1,59.6242551062,
./stim/MorphM1_09_orig.jpg,65,,,,,,,,,0,65,65,65,,,,,,,,,,,,,,,-17.6953125,3.837890625,0,0,1,1.03819894791,,,,,2015_Sep_07_1312,K,facesParametric,1,59.6242551062,
./stim/MorphF8_04_orig.jpg,66,,,,,,,,,0,66,66,66,,,,,,,,,,,,,,,-17.75390625,3.896484375,1,0,0,10.9239838123,,,,,2015_Sep_07_1312,K,facesParametric,1,59.6242551062,
./stim/MorphM10_07_orig.jpg,67,,,,,,,,,0,67,67,67,,,,,,,,,,,,,,,-17.75390625,3.896484375,0,0,1,1.75783014297,,,,,2015_Sep_07_1312,K,facesParametric,1,59.6242551062,
./stim/MorphM5_05_orig.jpg,68,,,,,,,,,0,68,68,68,,,,,,,,,,,,,,,-17.8125,3.92578125,0,0,1,3.41802597046,,,,,2015_Sep_07_1312,K,facesParametric,1,59.6242551062,
./stim/MorphM3_02_orig.jpg,69,,,,,,,,,0,69,69,69,,,,,,,,,,,,,,,-17.8125,3.92578125,1,0,0,5.39510011673,,,,,2015_Sep_07_1312,K,facesParametric,1,59.6242551062,
./stim/MorphF2_08_orig.jpg,70,,,,,,,,,0,70,70,70,,,,,,,,,,,,,,,-17.8125,3.92578125,0,0,1,4.07146406174,,,,,2015_Sep_07_1312,K,facesParametric,1,59.6242551062,
./stim/MorphM5_00_orig.jpg,71,,,,,,,,,0,71,71,71,,,,,,,,,,,,,,,-17.8125,3.92578125,1,0,0,1.42153596878,,,,,2015_Sep_07_1312,K,facesParametric,1,59.6242551062,
./stim/MorphF6_07_orig.jpg,72,,,,,,,,,0,72,72,72,,,,,,,,,,,,,,,-17.8125,3.92578125,1,0,0,1.15418410301,,,,,2015_Sep_07_1312,K,facesParametric,1,59.6242551062,
./stim/MorphM7_07_orig.jpg,73,,,,,,,,,0,73,73,73,,,,,,,,,,,,,,,-17.8125,3.92578125,0,0,1,1.30607295036,,,,,2015_Sep_07_1312,K,facesParametric,1,59.6242551062,
./stim/MorphM4_05_orig.jpg,74,,,,,,,,,0,74,74,74,,,,,,,,,,,,,,,-17.841796875,3.92578125,0,0,1,1.69007515907,,,,,2015_Sep_07_1312,K,facesParametric,1,59.6242551062,
./stim/MorphF1_02_orig.jpg,75,,,,,,,,,0,75,75,75,,,,,,,,,,,,,,,-17.841796875,3.92578125,1,0,0,1.79196500778,,,,,2015_Sep_07_1312,K,facesParametric,1,59.6242551062,
./stim/MorphM1_03_orig.jpg,76,,,,,,,,,0,76,76,76,,,,,,,,,,,,,,,-17.841796875,3.92578125,1,0,0,2.17729496956,,,,,2015_Sep_07_1312,K,facesParametric,1,59.6242551062,
./stim/MorphM6_01_orig.jpg,77,,,,,,,,,0,77,77,77,,,,,,,,,,,,,,,-17.841796875,3.92578125,1,0,0,2.14359402657,,,,,2015_Sep_07_1312,K,facesParametric,1,59.6242551062,
./stim/MorphF5_05_orig.jpg,78,,,,,,,,,0,78,78,78,,,,,,,,,,,,,,,-17.841796875,3.92578125,0,0,1,1.82592988014,,,,,2015_Sep_07_1312,K,facesParametric,1,59.6242551062,
./stim/MorphF4_10_orig.jpg,79,,,,,,,,,0,79,79,79,,,,,,,,,,,,,,,-17.841796875,3.92578125,0,0,1,0.785927057266,,,,,2015_Sep_07_1312,K,facesParametric,1,59.6242551062,
./stim/MorphF9_03_orig.jpg,80,,,,,,,,,0,80,80,80,,,,,,,,,,,,,,,-17.841796875,3.896484375,1,0,0,5.35956716537,,,,,2015_Sep_07_1312,K,facesParametric,1,59.6242551062,
./stim/MorphM8_04_orig.jpg,81,,,,,,,,,0,81,81,81,,,,,,,,,,,,,,,-17.8125,3.8671875,1,0,0,1.15519499779,,,,,2015_Sep_07_1312,K,facesParametric,1,59.6242551062,
./stim/MorphF2_04_orig.jpg,82,,,,,,,,,0,82,82,82,,,,,,,,,,,,,,,-17.8125,3.8671875,1,0,0,2.17602205276,,,,,2015_Sep_07_1312,K,facesParametric,1,59.6242551062,
./stim/MorphM10_01_orig.jpg,83,,,,,,,,,0,83,83,83,,,,,,,,,,,,,,,-17.841796875,3.896484375,1,0,0,2.12733101845,,,,,2015_Sep_07_1312,K,facesParametric,1,59.6242551062,
./stim/MorphF6_10_orig.jpg,84,,,,,,,,,0,84,84,84,,,,,,,,,,,,,,,-17.841796875,3.896484375,0,0,1,1.02111506462,,,,,2015_Sep_07_1312,K,facesParametric,1,59.6242551062,
./stim/MorphF10_00_orig.jpg,85,,,,,,,,,0,85,85,85,,,,,,,,,,,,,,,-17.841796875,3.896484375,1,0,0,1.65790581703,,,,,2015_Sep_07_1312,K,facesParametric,1,59.6242551062,
./stim/MorphM10_04_orig.jpg,86,,,,,,,,,0,86,86,86,,,,,,,,,,,,,,,-17.841796875,3.896484375,0,0,1,3.30059599876,,,,,2015_Sep_07_1312,K,facesParametric,1,59.6242551062,
./stim/MorphM4_07_orig.jpg,87,,,,,,,,,0,87,87,87,,,,,,,,,,,,,,,-17.841796875,3.896484375,0,0,1,0.735729932785,,,,,2015_Sep_07_1312,K,facesParametric,1,59.6242551062,
./stim/MorphF10_07_orig.jpg,88,,,,,,,,,0,88,88,88,,,,,,,,,,,,,,,-17.841796875,3.896484375,0,0,1,0.920210123062,,,,,2015_Sep_07_1312,K,facesParametric,1,59.6242551062,
./stim/MorphF8_02_orig.jpg,89,,,,,,,,,0,89,89,89,,,,,,,,,,,,,,,-17.8125,3.92578125,1,0,0,1.07118296623,,,,,2015_Sep_07_1312,K,facesParametric,1,59.6242551062,
./stim/MorphM10_06_orig.jpg,90,,,,,,,,,0,90,90,90,,,,,,,,,,,,,,,-17.8125,3.92578125,0,0,1,1.23921084404,,,,,2015_Sep_07_1312,K,facesParametric,1,59.6242551062,
./stim/MorphF6_06_orig.jpg,91,,,,,,,,,0,91,91,91,,,,,,,,,,,,,,,-17.8125,3.92578125,0,0,1,1.37281894684,,,,,2015_Sep_07_1312,K,facesParametric,1,59.6242551062,
./stim/MorphF2_07_orig.jpg,92,,,,,,,,,0,92,92,92,,,,,,,,,,,,,,,-17.8125,3.92578125,0,0,1,0.93555688858,,,,,2015_Sep_07_1312,K,facesParametric,1,59.6242551062,
./stim/MorphF3_04_orig.jpg,93,,,,,,,,,0,93,93,93,,,,,,,,,,,,,,,-17.8125,3.92578125,1,0,0,2.10975599289,,,,,2015_Sep_07_1312,K,facesParametric,1,59.6242551062,
./stim/MorphM10_10_orig.jpg,94,,,,,,,,,0,94,94,94,,,,,,,,,,,,,,,-17.8125,3.896484375,0,0,1,1.07143521309,,,,,2015_Sep_07_1312,K,facesParametric,1,59.6242551062,
./stim/MorphF3_06_orig.jpg,95,,,,,,,,,0,95,95,95,,,,,,,,,,,,,,,-17.783203125,3.8671875,1,0,0,3.63409304619,,,,,2015_Sep_07_1312,K,facesParametric,1,59.6242551062,
./stim/MorphM8_06_orig.jpg,96,,,,,,,,,0,96,96,96,,,,,,,,,,,,,,,-17.783203125,3.8671875,1,0,0,1.55539703369,,,,,2015_Sep_07_1312,K,facesParametric,1,59.6242551062,
./stim/MorphM4_02_orig.jpg,97,,,,,,,,,0,97,97,97,,,,,,,,,,,,,,,-17.783203125,3.8671875,1,0,0,1.22220802307,,,,,2015_Sep_07_1312,K,facesParametric,1,59.6242551062,
./stim/MorphF9_08_orig.jpg,98,,,,,,,,,0,98,98,98,,,,,,,,,,,,,,,-17.783203125,3.8671875,1,0,0,1.47349596024,,,,,2015_Sep_07_1312,K,facesParametric,1,59.6242551062,
./stim/MorphF3_07_orig.jpg,99,,,,,,,,,0,99,99,99,,,,,,,,,,,,,,,-17.783203125,3.8671875,0,0,1,3.67000889778,,,,,2015_Sep_07_1312,K,facesParametric,1,59.6242551062,
./stim/MorphM10_09_orig.jpg,100,,,,,,,,,0,100,100,100,,,,,,,,,,,,,,,-17.607421875,4.658203125,0,0,1,12.2306859493,,,,,2015_Sep_07_1312,K,facesParametric,1,59.6242551062,
./stim/MorphM4_04_orig.jpg,101,,,,,,,,,0,101,101,101,,,,,,,,,,,,,,,-16.376953125,4.482421875,1,0,0,8.27788805962,,,,,2015_Sep_07_1312,K,facesParametric,1,59.6242551062,
./stim/MorphM6_07_orig.jpg,102,,,,,,,,,0,102,102,102,,,,,,,,,,,,,,,-16.34765625,4.51171875,1,0,0,1.07165694237,,,,,2015_Sep_07_1312,K,facesParametric,1,59.6242551062,
./stim/MorphF4_01_orig.jpg,103,,,,,,,,,0,103,103,103,,,,,,,,,,,,,,,-16.34765625,4.51171875,1,0,0,2.84796786308,,,,,2015_Sep_07_1312,K,facesParametric,1,59.6242551062,
./stim/MorphF10_06_orig.jpg,104,,,,,,,,,0,104,104,104,,,,,,,,,,,,,,,-16.318359375,4.51171875,1,0,0,1.0701520443,,,,,2015_Sep_07_1312,K,facesParametric,1,59.6242551062,
./stim/MorphM3_00_orig.jpg,105,,,,,,,,,0,105,105,105,,,,,,,,,,,,,,,-16.2890625,4.482421875,1,0,0,1.00353503227,,,,,2015_Sep_07_1312,K,facesParametric,1,59.6242551062,
./stim/MorphF7_08_orig.jpg,106,,,,,,,,,0,106,106,106,,,,,,,,,,,,,,,-16.2890625,4.482421875,0,0,1,1.1046628952,,,,,2015_Sep_07_1312,K,facesParametric,1,59.6242551062,
./stim/MorphF1_06_orig.jpg,107,,,,,,,,,0,107,107,107,,,,,,,,,,,,,,,-16.259765625,4.453125,0,0,1,2.29437112808,,,,,2015_Sep_07_1312,K,facesParametric,1,59.6242551062,
./stim/MorphM7_02_orig.jpg,108,,,,,,,,,0,108,108,108,,,,,,,,,,,,,,,-16.259765625,4.453125,0,0,1,0.617261171341,,,,,2015_Sep_07_1312,K,facesParametric,1,59.6242551062,
./stim/MorphM5_02_orig.jpg,109,,,,,,,,,0,109,109,109,,,,,,,,,,,,,,,-16.23046875,4.51171875,1,0,0,1.20502018929,,,,,2015_Sep_07_1312,K,facesParametric,1,59.6242551062,
./stim/MorphM6_08_orig.jpg,110,,,,,,,,,0,110,110,110,,,,,,,,,,,,,,,-16.23046875,4.51171875,1,0,0,1.37287020683,,,,,2015_Sep_07_1312,K,facesParametric,1,59.6242551062,
./stim/MorphF6_01_orig.jpg,111,,,,,,,,,0,111,111,111,,,,,,,,,,,,,,,-16.23046875,4.51171875,0,0,1,1.02129197121,,,,,2015_Sep_07_1312,K,facesParametric,1,59.6242551062,
./stim/MorphM3_08_orig.jpg,112,,,,,,,,,0,112,112,112,,,,,,,,,,,,,,,-16.23046875,4.51171875,1,0,0,2.64619207382,,,,,2015_Sep_07_1312,K,facesParametric,1,59.6242551062,
./stim/MorphF2_06_orig.jpg,113,,,,,,,,,0,113,113,113,,,,,,,,,,,,,,,-16.2890625,4.51171875,0,0,1,3.09958791733,,,,,2015_Sep_07_1312,K,facesParametric,1,59.6242551062,
./stim/MorphM9_05_orig.jpg,114,,,,,,,,,0,114,114,114,,,,,,,,,,,,,,,-16.2890625,4.51171875,1,0,0,1.13699793816,,,,,2015_Sep_07_1312,K,facesParametric,1,59.6242551062,
./stim/MorphM7_06_orig.jpg,115,,,,,,,,,0,115,115,115,,,,,,,,,,,,,,,-15.8203125,-0.9375,0,0,1,3.68470692635,,,,,2015_Sep_07_1312,K,facesParametric,1,59.6242551062,
./stim/MorphF7_00_orig.jpg,116,,,,,,,,,0,116,116,116,,,,,,,,,,,,,,,-15.791015625,-0.966796875,1,0,0,1.0383579731,,,,,2015_Sep_07_1312,K,facesParametric,1,59.6242551062,
./stim/MorphM7_00_orig.jpg,117,,,,,,,,,0,117,117,117,,,,,,,,,,,,,,,-15.791015625,-0.966796875,1,0,0,2.17706513405,,,,,2015_Sep_07_1312,K,facesParametric,1,59.6242551062,
./stim/MorphM6_02_orig.jpg,118,,,,,,,,,0,118,118,118,,,,,,,,,,,,,,,-15.76171875,-0.966796875,1,0,0,1.05306601524,,,,,2015_Sep_07_1312,K,facesParametric,1,59.6242551062,
./stim/MorphF7_04_orig.jpg,119,,,,,,,,,0,119,119,119,,,,,,,,,,,,,,,-15.76171875,-0.966796875,1,0,0,3.06406283379,,,,,2015_Sep_07_1312,K,facesParametric,1,59.6242551062,
./stim/MorphF4_00_orig.jpg,120,,,,,,,,,0,120,120,120,,,,,,,,,,,,,,,-15.76171875,-0.966796875,1,0,0,0.952407121658,,,,,2015_Sep_07_1312,K,facesParametric,1,59.6242551062,
./stim/MorphF9_07_orig.jpg,121,,,,,,,,,0,121,121,121,,,,,,,,,,,,,,,-15.76171875,-0.966796875,1,0,0,1.08807086945,,,,,2015_Sep_07_1312,K,facesParametric,1,59.6242551062,
./stim/MorphF4_05_orig.jpg,122,,,,,,,,,0,122,122,122,,,,,,,,,,,,,,,-15.76171875,-0.966796875,1,0,0,1.22130894661,,,,,2015_Sep_07_1312,K,facesParametric,1,59.6242551062,
./stim/MorphF5_10_orig.jpg,123,,,,,,,,,0,123,123,123,,,,,,,,,,,,,,,-15.76171875,-0.966796875,0,0,1,3.33271002769,,,,,2015_Sep_07_1312,K,facesParametric,1,59.6242551062,
./stim/MorphM9_06_orig.jpg,124,,,,,,,,,0,124,124,124,,,,,,,,,,,,,,,-15.791015625,-0.99609375,1,0,0,3.93748998642,,,,,2015_Sep_07_1312,K,facesParametric,1,59.6242551062,
./stim/MorphF1_00_orig.jpg,125,,,,,,,,,0,125,125,125,,,,,,,,,,,,,,,-15.791015625,-0.99609375,1,0,0,1.69073700905,,,,,2015_Sep_07_1312,K,facesParametric,1,59.6242551062,
./stim/MorphF5_07_orig.jpg,126,,,,,,,,,0,126,126,126,,,,,,,,,,,,,,,-15.791015625,-0.99609375,0,0,1,3.60218501091,,,,,2015_Sep_07_1312,K,facesParametric,1,59.6242551062,
./stim/MorphM6_06_orig.jpg,127,,,,,,,,,0,127,127,127,,,,,,,,,,,,,,,-15.8203125,-0.966796875,1,0,0,3.45105290413,,,,,2015_Sep_07_1312,K,facesParametric,1,59.6242551062,
./stim/MorphF2_00_orig.jpg,128,,,,,,,,,0,128,128,128,,,,,,,,,,,,,,,-15.8203125,-0.966796875,1,0,0,1.17282700539,,,,,2015_Sep_07_1312,K,facesParametric,1,59.6242551062,
./stim/MorphM6_03_orig.jpg,129,,,,,,,,,0,129,129,129,,,,,,,,,,,,,,,-15.8203125,-0.966796875,1,0,0,1.55557203293,,,,,2015_Sep_07_1312,K,facesParametric,1,59.6242551062,
./stim/MorphM3_04_orig.jpg,130,,,,,,,,,0,130,130,130,,,,,,,,,,,,,,,-15.8203125,-0.966796875,1,0,0,1.70849514008,,,,,2015_Sep_07_1312,K,facesParametric,1,59.6242551062,
./stim/MorphM8_01_orig.jpg,131,,,,,,,,,0,131,131,131,,,,,,,,,,,,,,,-15.8203125,-0.966796875,1,0,0,1.52328801155,,,,,2015_Sep_07_1312,K,facesParametric,1,59.6242551062,
./stim/MorphM1_06_orig.jpg,132,,,,,,,,,0,132,132,132,,,,,,,,,,,,,,,-15.8203125,-0.966796875,1,0,0,3.39933800697,,,,,2015_Sep_07_1312,K,facesParametric,1,59.6242551062,
./stim/MorphM2_09_orig.jpg,133,,,,,,,,,0,133,133,133,,,,,,,,,,,,,,,-15.8203125,-0.966796875,0,0,1,1.15489602089,,,,,2015_Sep_07_1312,K,facesParametric,1,59.6242551062,
./stim/MorphF2_01_orig.jpg,134,,,,,,,,,0,134,134,134,,,,,,,,,,,,,,,-15.8203125,-0.966796875,1,0,0,1.85940814018,,,,,2015_Sep_07_1312,K,facesParametric,1,59.6242551062,
./stim/MorphM5_01_orig.jpg,135,,,,,,,,,0,135,135,135,,,,,,,,,,,,,,,-15.791015625,-0.791015625,0,0,1,5.8987569809,,,,,2015_Sep_07_1312,K,facesParametric,1,59.6242551062,
./stim/MorphF8_03_orig.jpg,136,,,,,,,,,0,136,136,136,,,,,,,,,,,,,,,-15.8203125,-0.76171875,1,0,0,3.75063896179,,,,,2015_Sep_07_1312,K,facesParametric,1,59.6242551062,
./stim/MorphF10_03_orig.jpg,137,,,,,,,,,0,137,137,137,,,,,,,,,,,,,,,-15.8203125,-0.76171875,1,0,0,2.11045980453,,,,,2015_Sep_07_1312,K,facesParametric,1,59.6242551062,
./stim/MorphM7_09_orig.jpg,138,,,,,,,,,0,138,138,138,,,,,,,,,,,,,,,-15.8203125,-0.76171875,0,0,1,0.987501144409,,,,,2015_Sep_07_1312,K,facesParametric,1,59.6242551062,
./stim/MorphM9_00_orig.jpg,139,,,,,,,,,0,139,139,139,,,,,,,,,,,,,,,-15.8203125,-0.76171875,1,0,0,1.18840098381,,,,,2015_Sep_07_1312,K,facesParametric,1,59.6242551062,
./stim/MorphM3_05_orig.jpg,140,,,,,,,,,0,140,140,140,,,,,,,,,,,,,,,-15.8203125,-0.76171875,1,0,0,3.50165605545,,,,,2015_Sep_07_1312,K,facesParametric,1,59.6242551062,
./stim/MorphM1_07_orig.jpg,141,,,,,,,,,0,141,141,141,,,,,,,,,,,,,,,-15.849609375,-0.791015625,1,0,0,2.52927494049,,,,,2015_Sep_07_1312,K,facesParametric,1,59.6242551062,
./stim/MorphM9_07_orig.jpg,142,,,,,,,,,0,142,142,142,,,,,,,,,,,,,,,-15.8203125,-0.8203125,0,0,1,1.03594899178,,,,,2015_Sep_07_1312,K,facesParametric,1,59.6242551062,
./stim/MorphF3_03_orig.jpg,143,,,,,,,,,0,143,143,143,,,,,,,,,,,,,,,-15.8203125,-0.8203125,1,0,0,2.31044101715,,,,,2015_Sep_07_1312,K,facesParametric,1,59.6242551062,
./stim/MorphF4_07_orig.jpg,144,,,,,,,,,0,144,144,144,,,,,,,,,,,,,,,-15.791015625,-0.8203125,0,0,1,1.28905200958,,,,,2015_Sep_07_1312,K,facesParametric,1,59.6242551062,
./stim/MorphM2_10_orig.jpg,145,,,,,,,,,0,145,145,145,,,,,,,,,,,,,,,-15.791015625,-0.791015625,1,0,0,4.85859417915,,,,,2015_Sep_07_1312,K,facesParametric,1,59.6242551062,
./stim/MorphF7_06_orig.jpg,146,,,,,,,,,0,146,146,146,,,,,,,,,,,,,,,-15.52734375,-0.908203125,1,0,0,4.84123492241,,,,,2015_Sep_07_1312,K,facesParametric,1,59.6242551062,
./stim/MorphM8_02_orig.jpg,147,,,,,,,,,0,147,147,147,,,,,,,,,,,,,,,-15.52734375,-0.908203125,1,0,0,1.08624982834,,,,,2015_Sep_07_1312,K,facesParametric,1,59.6242551062,
./stim/MorphF3_05_orig.jpg,148,,,,,,,,,0,148,148,148,,,,,,,,,,,,,,,-15.52734375,-0.908203125,0,0,1,1.82404088974,,,,,2015_Sep_07_1312,K,facesParametric,1,59.6242551062,
./stim/MorphF6_04_orig.jpg,149,,,,,,,,,0,149,149,149,,,,,,,,,,,,,,,-15.46875,-0.9375,0,0,1,5.14311003685,,,,,2015_Sep_07_1312,K,facesParametric,1,59.6242551062,
./stim/MorphM4_10_orig.jpg,150,,,,,,,,,0,150,150,150,,,,,,,,,,,,,,,-15.46875,-0.9375,0,0,1,3.09743905067,,,,,2015_Sep_07_1312,K,facesParametric,1,59.6242551062,
./stim/MorphF10_08_orig.jpg,151,,,,,,,,,0,151,151,151,,,,,,,,,,,,,,,-15.46875,-0.9375,0,0,1,2.17735695839,,,,,2015_Sep_07_1312,K,facesParametric,1,59.6242551062,
./stim/MorphF5_02_orig.jpg,152,,,,,,,,,0,152,152,152,,,,,,,,,,,,,,,-9.9609375,-0.8203125,1,0,0,15.2656149864,,,,,2015_Sep_07_1312,K,facesParametric,1,59.6242551062,
./stim/MorphF1_05_orig.jpg,153,,,,,,,,,0,153,153,153,,,,,,,,,,,,,,,-10.078125,-0.615234375,1,0,0,3.04778409004,,,,,2015_Sep_07_1312,K,facesParametric,1,59.6242551062,
./stim/MorphF9_09_orig.jpg,154,,,,,,,,,0,154,154,154,,,,,,,,,,,,,,,-10.078125,-0.615234375,0,0,1,1.64125108719,,,,,2015_Sep_07_1312,K,facesParametric,1,59.6242551062,
./stim/MorphF5_03_orig.jpg,155,,,,,,,,,0,155,155,155,,,,,,,,,,,,,,,-10.107421875,-0.5859375,1,0,0,1.95770812035,,,,,2015_Sep_07_1312,K,facesParametric,1,59.6242551062,
./stim/MorphF4_03_orig.jpg,156,,,,,,,,,0,156,156,156,,,,,,,,,,,,,,,-10.107421875,-0.5859375,1,0,0,1.35612201691,,,,,2015_Sep_07_1312,K,facesParametric,1,59.6242551062,
./stim/MorphF5_01_orig.jpg,157,,,,,,,,,0,157,157,157,,,,,,,,,,,,,,,-10.107421875,-0.5859375,1,0,0,1.27255487442,,,,,2015_Sep_07_1312,K,facesParametric,1,59.6242551062,
./stim/MorphM1_01_orig.jpg,158,,,,,,,,,0,158,158,158,,,,,,,,,,,,,,,-10.078125,-0.556640625,1,0,0,1.17160201073,,,,,2015_Sep_07_1312,K,facesParametric,1,59.6242551062,
./stim/MorphF9_02_orig.jpg,159,,,,,,,,,0,159,159,159,,,,,,,,,,,,,,,-10.078125,-0.556640625,1,0,0,1.47381901741,,,,,2015_Sep_07_1312,K,facesParametric,1,59.6242551062,
./stim/MorphF2_02_orig.jpg,160,,,,,,,,,0,160,160,160,,,,,,,,,,,,,,,-10.078125,-0.556640625,1,0,0,1.72468185425,,,,,2015_Sep_07_1312,K,facesParametric,1,59.6242551062,
./stim/MorphM8_10_orig.jpg,161,,,,,,,,,0,161,161,161,,,,,,,,,,,,,,,-10.078125,-0.556640625,0,0,1,0.836839199066,,,,,2015_Sep_07_1312,K,facesParametric,1,59.6242551062,
./stim/MorphM1_10_orig.jpg,162,,,,,,,,,0,162,162,162,,,,,,,,,,,,,,,-10.107421875,-0.556640625,0,0,1,6.70235204697,,,,,2015_Sep_07_1312,K,facesParametric,1,59.6242551062,
./stim/MorphF10_04_orig.jpg,163,,,,,,,,,0,163,163,163,,,,,,,,,,,,,,,-10.107421875,-0.556640625,1,0,0,1.62485909462,,,,,2015_Sep_07_1312,K,facesParametric,1,59.6242551062,
./stim/MorphF3_00_orig.jpg,164,,,,,,,,,0,164,164,164,,,,,,,,,,,,,,,-10.107421875,-0.556640625,1,0,0,1.38952708244,,,,,2015_Sep_07_1312,K,facesParametric,1,59.6242551062,
./stim/MorphM2_07_orig.jpg,165,,,,,,,,,0,165,165,165,,,,,,,,,,,,,,,-10.1953125,-0.46875,0,0,1,1.25579118729,,,,,2015_Sep_07_1312,K,facesParametric,1,59.6242551062,
./stim/MorphF7_05_orig.jpg,166,,,,,,,,,0,166,166,166,,,,,,,,,,,,,,,-10.1953125,-0.46875,1,0,0,1.15512800217,,,,,2015_Sep_07_1312,K,facesParametric,1,59.6242551062,
./stim/MorphF6_03_orig.jpg,167,,,,,,,,,0,167,167,167,,,,,,,,,,,,,,,-10.1953125,-0.46875,1,0,0,2.34495210648,,,,,2015_Sep_07_1312,K,facesParametric,1,59.6242551062,
./stim/MorphF3_02_orig.jpg,168,,,,,,,,,0,168,168,168,,,,,,,,,,,,,,,-10.1953125,-0.46875,1,0,0,1.38989686966,,,,,2015_Sep_07_1312,K,facesParametric,1,59.6242551062,
./stim/MorphF1_01_orig.jpg,169,,,,,,,,,0,169,169,169,,,,,,,,,,,,,,,-10.224609375,-0.41015625,1,0,0,1.89032006264,,,,,2015_Sep_07_1312,K,facesParametric,1,59.6242551062,
./stim/MorphM1_04_orig.jpg,170,,,,,,,,,0,170,170,170,,,,,,,,,,,,,,,-10.224609375,-0.41015625,1,0,0,1.07181501389,,,,,2015_Sep_07_1312,K,facesParametric,1,59.6242551062,
./stim/MorphF4_09_orig.jpg,171,,,,,,,,,0,171,171,171,,,,,,,,,,,,,,,-10.224609375,-0.41015625,0,0,1,1.35619211197,,,,,2015_Sep_07_1312,K,facesParametric,1,59.6242551062,
./stim/MorphM6_00_orig.jpg,172,,,,,,,,,0,172,172,172,,,,,,,,,,,,,,,-10.224609375,-0.41015625,1,0,0,1.85702109337,,,,,2015_Sep_07_1312,K,facesParametric,1,59.6242551062,
./stim/MorphM5_09_orig.jpg,173,,,,,,,,,0,173,173,173,,,,,,,,,,,,,,,-10.224609375,-0.41015625,0,0,1,0.937438011169,,,,,2015_Sep_07_1312,K,facesParametric,1,59.6242551062,
./stim/MorphF5_06_orig.jpg,174,,,,,,,,,0,174,174,174,,,,,,,,,,,,,,,-10.224609375,-0.41015625,0,0,1,1.03758382797,,,,,2015_Sep_07_1312,K,facesParametric,1,59.6242551062,
./stim/MorphF9_01_orig.jpg,175,,,,,,,,,0,175,175,175,,,,,,,,,,,,,,,-10.224609375,-0.41015625,1,0,0,1.23863196373,,,,,2015_Sep_07_1312,K,facesParametric,1,59.6242551062,
./stim/MorphM5_07_orig.jpg,176,,,,,,,,,0,176,176,176,,,,,,,,,,,,,,,-10.224609375,-0.41015625,0,0,1,0.803534984589,,,,,2015_Sep_07_1312,K,facesParametric,1,59.6242551062,
./stim/MorphM2_01_orig.jpg,177,,,,,,,,,0,177,177,177,,,,,,,,,,,,,,,-10.224609375,-0.41015625,1,0,0,1.32264900208,,,,,2015_Sep_07_1312,K,facesParametric,1,59.6242551062,
./stim/MorphM7_03_orig.jpg,178,,,,,,,,,0,178,178,178,,,,,,,,,,,,,,,-10.224609375,-0.41015625,0,0,1,0.903841018677,,,,,2015_Sep_07_1312,K,facesParametric,1,59.6242551062,
./stim/MorphM9_09_orig.jpg,179,,,,,,,,,0,179,179,179,,,,,,,,,,,,,,,-10.25390625,-0.380859375,0,0,1,0.869282960892,,,,,2015_Sep_07_1312,K,facesParametric,1,59.6242551062,
./stim/MorphF9_10_orig.jpg,180,,,,,,,,,0,180,180,180,,,,,,,,,,,,,,,-10.25390625,-0.380859375,0,0,1,1.12061095238,,,,,2015_Sep_07_1312,K,facesParametric,1,59.6242551062,
./stim/MorphF8_10_orig.jpg,181,,,,,,,,,0,181,181,181,,,,,,,,,,,,,,,-10.25390625,-0.380859375,0,0,1,0.853671073914,,,,,2015_Sep_07_1312,K,facesParametric,1,59.6242551062,
./stim/MorphF10_10_orig.jpg,182,,,,,,,,,0,182,182,182,,,,,,,,,,,,,,,-10.25390625,-0.380859375,0,0,1,1.64146709442,,,,,2015_Sep_07_1312,K,facesParametric,1,59.6242551062,
./stim/MorphM3_09_orig.jpg,183,,,,,,,,,0,183,183,183,,,,,,,,,,,,,,,-10.25390625,-0.380859375,0,0,1,0.8855509758,,,,,2015_Sep_07_1312,K,facesParametric,1,59.6242551062,
./stim/MorphF10_05_orig.jpg,184,,,,,,,,,0,184,184,184,,,,,,,,,,,,,,,-10.400390625,-0.17578125,1,0,0,8.96358203888,,,,,2015_Sep_07_1312,K,facesParametric,1,59.6242551062,
./stim/MorphF6_00_orig.jpg,185,,,,,,,,,0,185,185,185,,,,,,,,,,,,,,,-10.400390625,-0.17578125,1,0,0,0.903877973557,,,,,2015_Sep_07_1312,K,facesParametric,1,59.6242551062,
./stim/MorphF8_08_orig.jpg,186,,,,,,,,,0,186,186,186,,,,,,,,,,,,,,,-10.400390625,-0.17578125,1,0,0,0.953094005585,,,,,2015_Sep_07_1312,K,facesParametric,1,59.6242551062,
./stim/MorphF7_10_orig.jpg,187,,,,,,,,,0,187,187,187,,,,,,,,,,,,,,,-10.400390625,-0.17578125,0,0,1,1.33954787254,,,,,2015_Sep_07_1312,K,facesParametric,1,59.6242551062,
./stim/MorphM9_10_orig.jpg,188,,,,,,,,,0,188,188,188,,,,,,,,,,,,,,,-10.400390625,-0.17578125,0,0,1,0.969893932343,,,,,2015_Sep_07_1312,K,facesParametric,1,59.6242551062,
./stim/MorphM10_05_orig.jpg,189,,,,,,,,,0,189,189,189,,,,,,,,,,,,,,,-10.400390625,-0.17578125,1,0,0,1.05406594276,,,,,2015_Sep_07_1312,K,facesParametric,1,59.6242551062,
./stim/MorphM8_03_orig.jpg,190,,,,,,,,,0,190,190,190,,,,,,,,,,,,,,,-10.400390625,-0.17578125,1,0,0,3.36690807343,,,,,2015_Sep_07_1312,K,facesParametric,1,59.6242551062,
./stim/MorphF2_10_orig.jpg,191,,,,,,,,,0,191,191,191,,,,,,,,,,,,,,,-10.4296875,-0.17578125,0,0,1,1.13683009148,,,,,2015_Sep_07_1312,K,facesParametric,1,59.6242551062,
./stim/MorphM1_02_orig.jpg,192,,,,,,,,,0,192,192,192,,,,,,,,,,,,,,,-10.4296875,-0.17578125,1,0,0,1.42251300812,,,,,2015_Sep_07_1312,K,facesParametric,1,59.6242551062,
./stim/MorphM4_09_orig.jpg,193,,,,,,,,,0,193,193,193,,,,,,,,,,,,,,,-10.4296875,-0.17578125,0,0,1,2.57755613327,,,,,2015_Sep_07_1312,K,facesParametric,1,59.6242551062,
./stim/MorphM8_07_orig.jpg,194,,,,,,,,,0,194,194,194,,,,,,,,,,,,,,,-10.4296875,-0.17578125,0,0,1,2.29479193687,,,,,2015_Sep_07_1312,K,facesParametric,1,59.6242551062,
./stim/MorphM1_08_orig.jpg,195,,,,,,,,,0,195,195,195,,,,,,,,,,,,,,,-10.4296875,-0.17578125,1,0,0,4.18885016441,,,,,2015_Sep_07_1312,K,facesParametric,1,59.6242551062,
./stim/MorphF4_08_orig.jpg,196,,,,,,,,,0,196,196,196,,,,,,,,,,,,,,,-10.4296875,-0.17578125,0,0,1,0.819947004318,,,,,2015_Sep_07_1312,K,facesParametric,1,59.6242551062,
./stim/MorphM9_04_orig.jpg,197,,,,,,,,,0,197,197,197,,,,,,,,,,,,,,,-10.4296875,-0.17578125,1,0,0,1.32249093056,,,,,2015_Sep_07_1312,K,facesParametric,1,59.6242551062,
./stim/MorphF1_09_orig.jpg,198,,,,,,,,,0,198,198,198,,,,,,,,,,,,,,,-10.4296875,-0.17578125,0,0,1,2.9150788784,,,,,2015_Sep_07_1312,K,facesParametric,1,59.6242551062,
./stim/MorphM9_08_orig.jpg,199,,,,,,,,,0,199,199,199,,,,,,,,,,,,,,,-10.4296875,-0.17578125,0,0,1,2.79762196541,,,,,2015_Sep_07_1312,K,facesParametric,1,59.6242551062,
./stim/MorphF10_01_orig.jpg,200,,,,,,,,,0,200,200,200,,,,,,,,,,,,,,,-10.4296875,-0.17578125,1,0,0,1.30450606346,,,,,2015_Sep_07_1312,K,facesParametric,1,59.6242551062,
./stim/MorphM10_00_orig.jpg,201,,,,,,,,,0,201,201,201,,,,,,,,,,,,,,,-10.4296875,-0.17578125,1,0,0,0.987751960754,,,,,2015_Sep_07_1312,K,facesParametric,1,59.6242551062,
./stim/MorphM2_00_orig.jpg,202,,,,,,,,,0,202,202,202,,,,,,,,,,,,,,,-10.4296875,-0.17578125,1,0,0,1.23755407333,,,,,2015_Sep_07_1312,K,facesParametric,1,59.6242551062,
./stim/MorphM9_01_orig.jpg,203,,,,,,,,,0,203,203,203,,,,,,,,,,,,,,,-10.4296875,-0.17578125,1,0,0,1.28790092468,,,,,2015_Sep_07_1312,K,facesParametric,1,59.6242551062,
./stim/MorphF7_09_orig.jpg,204,,,,,,,,,0,204,204,204,,,,,,,,,,,,,,,-10.4296875,-0.17578125,0,0,1,0.920369148254,,,,,2015_Sep_07_1312,K,facesParametric,1,59.6242551062,
./stim/MorphF9_00_orig.jpg,205,,,,,,,,,0,205,205,205,,,,,,,,,,,,,,,-10.4296875,-0.17578125,1,0,0,1.77418112755,,,,,2015_Sep_07_1312,K,facesParametric,1,59.6242551062,
./stim/MorphM2_02_orig.jpg,206,,,,,,,,,0,206,206,206,,,,,,,,,,,,,,,-10.4296875,-0.17578125,0,0,1,4.22193312645,,,,,2015_Sep_07_1312,K,facesParametric,1,59.6242551062,
./stim/MorphF8_05_orig.jpg,207,,,,,,,,,0,207,207,207,,,,,,,,,,,,,,,-10.458984375,-0.205078125,1,0,0,4.84117698669,,,,,2015_Sep_07_1312,K,facesParametric,1,59.6242551062,
./stim/MorphF3_09_orig.jpg,208,,,,,,,,,0,208,208,208,,,,,,,,,,,,,,,-10.458984375,-0.205078125,0,0,1,1.63973116875,,,,,2015_Sep_07_1312,K,facesParametric,1,59.6242551062,
./stim/MorphM5_10_orig.jpg,209,,,,,,,,,0,209,209,209,,,,,,,,,,,,,,,-10.458984375,-0.205078125,0,0,1,1.40646290779,,,,,2015_Sep_07_1312,K,facesParametric,1,59.6242551062,
./stim/MorphM8_08_orig.jpg,210,,,,,,,,,0,210,210,210,,,,,,,,,,,,,,,-10.458984375,-0.205078125,0,0,1,1.15500998497,,,,,2015_Sep_07_1312,K,facesParametric,1,59.6242551062,
./stim/MorphM3_07_orig.jpg,211,,,,,,,,,0,211,211,211,,,,,,,,,,,,,,,-10.517578125,-0.234375,0,0,1,8.00969004631,,,,,2015_Sep_07_1312,K,facesParametric,1,59.6242551062,
./stim/MorphM5_06_orig.jpg,212,,,,,,,,,0,212,212,212,,,,,,,,,,,,,,,-10.517578125,-0.234375,0,0,1,3.14957499504,,,,,2015_Sep_07_1312,K,facesParametric,1,59.6242551062,
./stim/MorphF5_09_orig.jpg,213,,,,,,,,,0,213,213,213,,,,,,,,,,,,,,,-10.48828125,-0.263671875,0,0,1,1.50572085381,,,,,2015_Sep_07_1312,K,facesParametric,1,59.6242551062,
./stim/MorphF8_06_orig.jpg,214,,,,,,,,,0,214,214,214,,,,,,,,,,,,,,,-10.48828125,-0.263671875,1,0,0,2.19400596619,,,,,2015_Sep_07_1312,K,facesParametric,1,59.6242551062,
./stim/MorphF5_04_orig.jpg,215,,,,,,,,,0,215,215,215,,,,,,,,,,,,,,,-10.48828125,-0.263671875,0,0,1,1.58998298645,,,,,2015_Sep_07_1312,K,facesParametric,1,59.6242551062,
./stim/MorphM2_04_orig.jpg,216,,,,,,,,,0,216,216,216,,,,,,,,,,,,,,,-10.546875,-0.205078125,1,0,0,2.49351811409,,,,,2015_Sep_07_1312,K,facesParametric,1,59.6242551062,
./stim/MorphF2_05_orig.jpg,217,,,,,,,,,0,217,217,217,,,,,,,,,,,,,,,-10.546875,-0.205078125,0,0,1,1.33899903297,,,,,2015_Sep_07_1312,K,facesParametric,1,59.6242551062,
./stim/MorphM7_01_orig.jpg,218,,,,,,,,,0,218,218,218,,,,,,,,,,,,,,,-10.546875,-0.205078125,0,0,1,4.03796100616,,,,,2015_Sep_07_1312,K,facesParametric,1,59.6242551062,
./stim/MorphF10_09_orig.jpg,219,,,,,,,,,0,219,219,219,,,,,,,,,,,,,,,-10.546875,-0.205078125,0,0,1,2.04385900497,,,,,2015_Sep_07_1312,K,facesParametric,1,59.6242551062,
,,,,,,,,,,,,,,,,,,,,,,,,,,,,,,,,,,,,return,160.986140966,2015_Sep_07_1312,K,facesParametric,1,59.6242551062,
