img,num,basicLoop.thisRepN,basicLoop.thisTrialN,basicLoop.thisN,basicLoop.thisIndex,trials.thisRepN,trials.thisTrialN,trials.thisN,trials.thisIndex,trials2.thisRepN,trials2.thisTrialN,trials2.thisN,trials2.thisIndex,key_resp_2.keys,key_resp_2.rt,basicRating1.response,basicRating1.rt,basicRating2.response,basicRating2.rt,basicRating3.response,basicRating3.rt,basicRating4.response,basicRating4.rt,key_resp_3.keys,key_resp_3.rt,key_resp_4.keys,key_resp_4.rt,mouseResp.x,mouseResp.y,mouseResp.leftButton,mouseResp.midButton,mouseResp.rightButton,mouseResp.time,key_resp_5.keys,key_resp_5.rt,date,group,expName,participant,frameRate,
,,,,,,,,,,,,,,return,66.4451570511,,,,,,,,,,,,,,,,,,,,,2015_Sep_08_1516,K,facesParametric,2,59.6345127144,
./basicStim/03F_AN_O.jpg,,0,0,0,14,,,,,,,,,,,None,None,ANG,8.425,None,None,None,None,,,,,,,,,,,,,2015_Sep_08_1516,K,facesParametric,2,59.6345127144,
./basicStim/06F_HA_O.jpg,,0,1,1,24,,,,,,,,,,,HAP,3.04,None,None,None,None,None,None,,,,,,,,,,,,,2015_Sep_08_1516,K,facesParametric,2,59.6345127144,
./basicStim/24M_HA_O.jpg,,0,2,2,59,,,,,,,,,,,HAP,2.387,None,None,None,None,None,None,,,,,,,,,,,,,2015_Sep_08_1516,K,facesParametric,2,59.6345127144,
./basicStim/21M_SA_C.jpg,,0,3,3,46,,,,,,,,,,,SAD,8.325,None,None,None,None,None,None,,,,,,,,,,,,,2015_Sep_08_1516,K,facesParametric,2,59.6345127144,
./basicStim/02F_AN_O.jpg,,0,4,4,7,,,,,,,,,,,None,None,ANG,3.437,None,None,None,None,,,,,,,,,,,,,2015_Sep_08_1516,K,facesParametric,2,59.6345127144,
./basicStim/36M_DI_O.jpg,,0,5,5,78,,,,,,,,,,,None,None,None,None,DIS,2.264,None,None,,,,,,,,,,,,,2015_Sep_08_1516,K,facesParametric,2,59.6345127144,
./basicStim/06F_SA_C.jpg,,0,6,6,25,,,,,,,,,,,SAD,3.056,None,None,None,None,None,None,,,,,,,,,,,,,2015_Sep_08_1516,K,facesParametric,2,59.6345127144,
./basicStim/28M_FE_O.jpg,,0,7,7,65,,,,,,,,,,,None,None,FEA,3.538,None,None,None,None,,,,,,,,,,,,,2015_Sep_08_1516,K,facesParametric,2,59.6345127144,
./basicStim/01F_SA_C.jpg,,0,8,8,4,,,,,,,,,,,None,None,None,None,SUP,11.166,None,None,,,,,,,,,,,,,2015_Sep_08_1516,K,facesParametric,2,59.6345127144,
./basicStim/09F_HA_O.jpg,,0,9,9,38,,,,,,,,,,,HAP,2.419,None,None,None,None,None,None,,,,,,,,,,,,,2015_Sep_08_1516,K,facesParametric,2,59.6345127144,
./basicStim/01F_NE_C.jpg,,0,10,10,6,,,,,,,,,,,None,None,None,None,SUP,3.373,None,None,,,,,,,,,,,,,2015_Sep_08_1516,K,facesParametric,2,59.6345127144,
./basicStim/07F_FE_O.jpg,,0,11,11,30,,,,,,,,,,,None,None,None,None,DIS,2.59,None,None,,,,,,,,,,,,,2015_Sep_08_1516,K,facesParametric,2,59.6345127144,
./basicStim/21M_SP_O.jpg,,0,12,12,47,,,,,,,,,,,None,None,None,None,SUP,1.627,None,None,,,,,,,,,,,,,2015_Sep_08_1516,K,facesParametric,2,59.6345127144,
./basicStim/23M_FE_O.jpg,,0,13,13,51,,,,,,,,,,,None,None,None,None,SUP,2.268,None,None,,,,,,,,,,,,,2015_Sep_08_1516,K,facesParametric,2,59.6345127144,
./basicStim/36M_SA_C.jpg,,0,14,14,81,,,,,,,,,,,SAD,3.04,None,None,None,None,None,None,,,,,,,,,,,,,2015_Sep_08_1516,K,facesParametric,2,59.6345127144,
./basicStim/03F_HA_O.jpg,,0,15,15,17,,,,,,,,,,,HAP,1.934,None,None,None,None,None,None,,,,,,,,,,,,,2015_Sep_08_1516,K,facesParametric,2,59.6345127144,
./basicStim/09F_SA_C.jpg,,0,16,16,39,,,,,,,,,,,SAD,4.514,None,None,None,None,None,None,,,,,,,,,,,,,2015_Sep_08_1516,K,facesParametric,2,59.6345127144,
./basicStim/21M_DI_O.jpg,,0,17,17,43,,,,,,,,,,,None,None,None,None,DIS,2.162,None,None,,,,,,,,,,,,,2015_Sep_08_1516,K,facesParametric,2,59.6345127144,
./basicStim/01F_SP_O.jpg,,0,18,18,5,,,,,,,,,,,None,None,None,None,SUP,1.497,None,None,,,,,,,,,,,,,2015_Sep_08_1516,K,facesParametric,2,59.6345127144,
./basicStim/36M_FE_O.jpg,,0,19,19,79,,,,,,,,,,,None,None,FEA,1.549,None,None,None,None,,,,,,,,,,,,,2015_Sep_08_1516,K,facesParametric,2,59.6345127144,
./basicStim/21M_AN_O.jpg,,0,20,20,42,,,,,,,,,,,None,None,ANG,2.955,None,None,None,None,,,,,,,,,,,,,2015_Sep_08_1516,K,facesParametric,2,59.6345127144,
./basicStim/28M_SA_C.jpg,,0,21,21,67,,,,,,,,,,,None,None,FEA,2.351,None,None,None,None,,,,,,,,,,,,,2015_Sep_08_1516,K,facesParametric,2,59.6345127144,
./basicStim/34M_NE_C.jpg,,0,22,22,76,,,,,,,,,,,None,None,None,None,None,None,NTR,3.974,,,,,,,,,,,,,2015_Sep_08_1516,K,facesParametric,2,59.6345127144,
./basicStim/34M_DI_O.jpg,,0,23,23,71,,,,,,,,,,,None,None,None,None,DIS,1.188,None,None,,,,,,,,,,,,,2015_Sep_08_1516,K,facesParametric,2,59.6345127144,
./basicStim/07F_SP_O.jpg,,0,24,24,33,,,,,,,,,,,None,None,None,None,SUP,2.113,None,None,,,,,,,,,,,,,2015_Sep_08_1516,K,facesParametric,2,59.6345127144,
./basicStim/09F_FE_O.jpg,,0,25,25,37,,,,,,,,,,,None,None,FEA,3.104,None,None,None,None,,,,,,,,,,,,,2015_Sep_08_1516,K,facesParametric,2,59.6345127144,
./basicStim/03F_FE_O.jpg,,0,26,26,16,,,,,,,,,,,None,None,FEA,0.96,None,None,None,None,,,,,,,,,,,,,2015_Sep_08_1516,K,facesParametric,2,59.6345127144,
./basicStim/28M_NE_C.jpg,,0,27,27,69,,,,,,,,,,,None,None,None,None,None,None,NTR,2.244,,,,,,,,,,,,,2015_Sep_08_1516,K,facesParametric,2,59.6345127144,
./basicStim/07F_NE_C.jpg,,0,28,28,34,,,,,,,,,,,None,None,None,None,None,None,NTR,1.706,,,,,,,,,,,,,2015_Sep_08_1516,K,facesParametric,2,59.6345127144,
./basicStim/36M_SP_O.jpg,,0,29,29,82,,,,,,,,,,,None,None,None,None,SUP,2.886,None,None,,,,,,,,,,,,,2015_Sep_08_1516,K,facesParametric,2,59.6345127144,
./basicStim/06F_DI_O.jpg,,0,30,30,22,,,,,,,,,,,None,None,None,None,DIS,1.836,None,None,,,,,,,,,,,,,2015_Sep_08_1516,K,facesParametric,2,59.6345127144,
./basicStim/06F_FE_O.jpg,,0,31,31,23,,,,,,,,,,,None,None,FEA,1.161,None,None,None,None,,,,,,,,,,,,,2015_Sep_08_1516,K,facesParametric,2,59.6345127144,
./basicStim/28M_HA_O.jpg,,0,32,32,66,,,,,,,,,,,HAP,1.128,None,None,None,None,None,None,,,,,,,,,,,,,2015_Sep_08_1516,K,facesParametric,2,59.6345127144,
./basicStim/34M_HA_O.jpg,,0,33,33,73,,,,,,,,,,,HAP,0.609,None,None,None,None,None,None,,,,,,,,,,,,,2015_Sep_08_1516,K,facesParametric,2,59.6345127144,
./basicStim/07F_SA_C.jpg,,0,34,34,32,,,,,,,,,,,SAD,1.966,None,None,None,None,None,None,,,,,,,,,,,,,2015_Sep_08_1516,K,facesParametric,2,59.6345127144,
./basicStim/09F_AN_O.jpg,,0,35,35,35,,,,,,,,,,,None,None,ANG,1.983,None,None,None,None,,,,,,,,,,,,,2015_Sep_08_1516,K,facesParametric,2,59.6345127144,
./basicStim/03F_DI_O.jpg,,0,36,36,15,,,,,,,,,,,None,None,None,None,DIS,3.862,None,None,,,,,,,,,,,,,2015_Sep_08_1516,K,facesParametric,2,59.6345127144,
./basicStim/06F_NE_C.jpg,,0,37,37,27,,,,,,,,,,,None,None,None,None,None,None,NTR,27.602,,,,,,,,,,,,,2015_Sep_08_1516,K,facesParametric,2,59.6345127144,
./basicStim/21M_HA_O.jpg,,0,38,38,45,,,,,,,,,,,HAP,1.583,None,None,None,None,None,None,,,,,,,,,,,,,2015_Sep_08_1516,K,facesParametric,2,59.6345127144,
./basicStim/28M_SP_O.jpg,,0,39,39,68,,,,,,,,,,,None,None,FEA,4.175,None,None,None,None,,,,,,,,,,,,,2015_Sep_08_1516,K,facesParametric,2,59.6345127144,
./basicStim/09F_DI_O.jpg,,0,40,40,36,,,,,,,,,,,None,None,None,None,DIS,3.303,None,None,,,,,,,,,,,,,2015_Sep_08_1516,K,facesParametric,2,59.6345127144,
./basicStim/02F_HA_O.jpg,,0,41,41,10,,,,,,,,,,,HAP,4.362,None,None,None,None,None,None,,,,,,,,,,,,,2015_Sep_08_1516,K,facesParametric,2,59.6345127144,
./basicStim/01F_FE_O.jpg,,0,42,42,2,,,,,,,,,,,None,None,FEA,5.422,None,None,None,None,,,,,,,,,,,,,2015_Sep_08_1516,K,facesParametric,2,59.6345127144,
./basicStim/02F_FE_O.jpg,,0,43,43,9,,,,,,,,,,,None,None,FEA,11.216,None,None,None,None,,,,,,,,,,,,,2015_Sep_08_1516,K,facesParametric,2,59.6345127144,
./basicStim/01F_HA_O.jpg,,0,44,44,3,,,,,,,,,,,HAP,1.078,None,None,None,None,None,None,,,,,,,,,,,,,2015_Sep_08_1516,K,facesParametric,2,59.6345127144,
./basicStim/03F_SP_O.jpg,,0,45,45,19,,,,,,,,,,,None,None,None,None,SUP,2.186,None,None,,,,,,,,,,,,,2015_Sep_08_1516,K,facesParametric,2,59.6345127144,
./basicStim/23M_SA_C.jpg,,0,46,46,53,,,,,,,,,,,SAD,3.539,None,None,None,None,None,None,,,,,,,,,,,,,2015_Sep_08_1516,K,facesParametric,2,59.6345127144,
./basicStim/24M_SA_C.jpg,,0,47,47,60,,,,,,,,,,,SAD,0.863,None,None,None,None,None,None,,,,,,,,,,,,,2015_Sep_08_1516,K,facesParametric,2,59.6345127144,
./basicStim/07F_HA_O.jpg,,0,48,48,31,,,,,,,,,,,HAP,1.129,None,None,None,None,None,None,,,,,,,,,,,,,2015_Sep_08_1516,K,facesParametric,2,59.6345127144,
./basicStim/34M_AN_O.jpg,,0,49,49,70,,,,,,,,,,,None,None,ANG,2.199,None,None,None,None,,,,,,,,,,,,,2015_Sep_08_1516,K,facesParametric,2,59.6345127144,
./basicStim/07F_AN_O.jpg,,0,50,50,28,,,,,,,,,,,None,None,ANG,0.924,None,None,None,None,,,,,,,,,,,,,2015_Sep_08_1516,K,facesParametric,2,59.6345127144,
./basicStim/23M_NE_C.jpg,,0,51,51,55,,,,,,,,,,,None,None,None,None,None,None,NTR,4.013,,,,,,,,,,,,,2015_Sep_08_1516,K,facesParametric,2,59.6345127144,
./basicStim/36M_NE_C.jpg,,0,52,52,83,,,,,,,,,,,None,None,None,None,None,None,NTR,2.784,,,,,,,,,,,,,2015_Sep_08_1516,K,facesParametric,2,59.6345127144,
./basicStim/24M_AN_O.jpg,,0,53,53,56,,,,,,,,,,,None,None,ANG,1.565,None,None,None,None,,,,,,,,,,,,,2015_Sep_08_1516,K,facesParametric,2,59.6345127144,
./basicStim/21M_NE_C.jpg,,0,54,54,48,,,,,,,,,,,None,None,None,None,None,None,NTR,2.298,,,,,,,,,,,,,2015_Sep_08_1516,K,facesParametric,2,59.6345127144,
./basicStim/28M_DI_O.jpg,,0,55,55,64,,,,,,,,,,,None,None,None,None,DIS,1.176,None,None,,,,,,,,,,,,,2015_Sep_08_1516,K,facesParametric,2,59.6345127144,
./basicStim/34M_SP_O.jpg,,0,56,56,75,,,,,,,,,,,None,None,None,None,SUP,1.63,None,None,,,,,,,,,,,,,2015_Sep_08_1516,K,facesParametric,2,59.6345127144,
./basicStim/24M_NE_C.jpg,,0,57,57,62,,,,,,,,,,,None,None,None,None,None,None,NTR,3.054,,,,,,,,,,,,,2015_Sep_08_1516,K,facesParametric,2,59.6345127144,
./basicStim/02F_SP_O.jpg,,0,58,58,12,,,,,,,,,,,None,None,None,None,SUP,2.386,None,None,,,,,,,,,,,,,2015_Sep_08_1516,K,facesParametric,2,59.6345127144,
./basicStim/24M_SP_O.jpg,,0,59,59,61,,,,,,,,,,,None,None,None,None,SUP,4.194,None,None,,,,,,,,,,,,,2015_Sep_08_1516,K,facesParametric,2,59.6345127144,
./basicStim/36M_AN_O.jpg,,0,60,60,77,,,,,,,,,,,None,None,ANG,1.264,None,None,None,None,,,,,,,,,,,,,2015_Sep_08_1516,K,facesParametric,2,59.6345127144,
./basicStim/01F_DI_O.jpg,,0,61,61,1,,,,,,,,,,,None,None,None,None,DIS,5.33,None,None,,,,,,,,,,,,,2015_Sep_08_1516,K,facesParametric,2,59.6345127144,
./basicStim/24M_DI_O.jpg,,0,62,62,57,,,,,,,,,,,None,None,None,None,DIS,5.034,None,None,,,,,,,,,,,,,2015_Sep_08_1516,K,facesParametric,2,59.6345127144,
./basicStim/34M_SA_C.jpg,,0,63,63,74,,,,,,,,,,,SAD,1.914,None,None,None,None,None,None,,,,,,,,,,,,,2015_Sep_08_1516,K,facesParametric,2,59.6345127144,
./basicStim/03F_NE_C.jpg,,0,64,64,20,,,,,,,,,,,None,None,None,None,None,None,NTR,2.127,,,,,,,,,,,,,2015_Sep_08_1516,K,facesParametric,2,59.6345127144,
./basicStim/23M_SP_O.jpg,,0,65,65,54,,,,,,,,,,,None,None,FEA,5.609,None,None,None,None,,,,,,,,,,,,,2015_Sep_08_1516,K,facesParametric,2,59.6345127144,
./basicStim/02F_NE_C.jpg,,0,66,66,13,,,,,,,,,,,None,None,None,None,None,None,NTR,1.595,,,,,,,,,,,,,2015_Sep_08_1516,K,facesParametric,2,59.6345127144,
./basicStim/34M_FE_O.jpg,,0,67,67,72,,,,,,,,,,,None,None,FEA,1.996,None,None,None,None,,,,,,,,,,,,,2015_Sep_08_1516,K,facesParametric,2,59.6345127144,
./basicStim/28M_AN_O.jpg,,0,68,68,63,,,,,,,,,,,None,None,ANG,4.025,None,None,None,None,,,,,,,,,,,,,2015_Sep_08_1516,K,facesParametric,2,59.6345127144,
./basicStim/23M_DI_O.jpg,,0,69,69,50,,,,,,,,,,,SAD,1.079,None,None,None,None,None,None,,,,,,,,,,,,,2015_Sep_08_1516,K,facesParametric,2,59.6345127144,
./basicStim/23M_HA_O.jpg,,0,70,70,52,,,,,,,,,,,HAP,1.167,None,None,None,None,None,None,,,,,,,,,,,,,2015_Sep_08_1516,K,facesParametric,2,59.6345127144,
./basicStim/03F_SA_C.jpg,,0,71,71,18,,,,,,,,,,,SAD,4.85,None,None,None,None,None,None,,,,,,,,,,,,,2015_Sep_08_1516,K,facesParametric,2,59.6345127144,
./basicStim/24M_FE_O.jpg,,0,72,72,58,,,,,,,,,,,None,None,FEA,3.24,None,None,None,None,,,,,,,,,,,,,2015_Sep_08_1516,K,facesParametric,2,59.6345127144,
./basicStim/09F_SP_O.jpg,,0,73,73,40,,,,,,,,,,,None,None,FEA,4.327,None,None,None,None,,,,,,,,,,,,,2015_Sep_08_1516,K,facesParametric,2,59.6345127144,
./basicStim/06F_SP_O.jpg,,0,74,74,26,,,,,,,,,,,None,None,FEA,1.981,None,None,None,None,,,,,,,,,,,,,2015_Sep_08_1516,K,facesParametric,2,59.6345127144,
./basicStim/36M_HA_O.jpg,,0,75,75,80,,,,,,,,,,,HAP,1.013,None,None,None,None,None,None,,,,,,,,,,,,,2015_Sep_08_1516,K,facesParametric,2,59.6345127144,
./basicStim/06F_AN_O.jpg,,0,76,76,21,,,,,,,,,,,None,None,ANG,1.647,None,None,None,None,,,,,,,,,,,,,2015_Sep_08_1516,K,facesParametric,2,59.6345127144,
./basicStim/21M_FE_O.jpg,,0,77,77,44,,,,,,,,,,,None,None,FEA,1.247,None,None,None,None,,,,,,,,,,,,,2015_Sep_08_1516,K,facesParametric,2,59.6345127144,
./basicStim/09F_NE_C.jpg,,0,78,78,41,,,,,,,,,,,None,None,None,None,None,None,NTR,2.161,,,,,,,,,,,,,2015_Sep_08_1516,K,facesParametric,2,59.6345127144,
./basicStim/02F_DI_O.jpg,,0,79,79,8,,,,,,,,,,,None,None,ANG,2.437,None,None,None,None,,,,,,,,,,,,,2015_Sep_08_1516,K,facesParametric,2,59.6345127144,
./basicStim/02F_SA_C.jpg,,0,80,80,11,,,,,,,,,,,SAD,1.415,None,None,None,None,None,None,,,,,,,,,,,,,2015_Sep_08_1516,K,facesParametric,2,59.6345127144,
./basicStim/01F_AN_O.jpg,,0,81,81,0,,,,,,,,,,,None,None,ANG,2.582,None,None,None,None,,,,,,,,,,,,,2015_Sep_08_1516,K,facesParametric,2,59.6345127144,
./basicStim/23M_AN_O.jpg,,0,82,82,49,,,,,,,,,,,None,None,ANG,1.124,None,None,None,None,,,,,,,,,,,,,2015_Sep_08_1516,K,facesParametric,2,59.6345127144,
./basicStim/07F_DI_O.jpg,,0,83,83,29,,,,,,,,,,,None,None,None,None,DIS,1.508,None,None,,,,,,,,,,,,,2015_Sep_08_1516,K,facesParametric,2,59.6345127144,
,,,,,,,,,,,,,,,,,,,,,,,,return,18.050673008,,,,,,,,,,,2015_Sep_08_1516,K,facesParametric,2,59.6345127144,
,,,,,,,,,,,,,,return,19.8097629547,,,,,,,,,,,,,,,,,,,,,2015_Sep_08_1516,K,facesParametric,2,59.6345127144,
,,,,,,,,,,,,,,,,,,,,,,,,return,14.027657032,,,,,,,,,,,2015_Sep_08_1516,K,facesParametric,2,59.6345127144,
,,,,,,,,,,,,,,,,,,,,,,,,,,return,10.7426609993,,,,,,,,,2015_Sep_08_1516,K,facesParametric,2,59.6345127144,
./stim/MorphM6_10_orig.jpg,0,,,,,0,0,0,0,,,,,,,,,,,,,,,,,,,-15.029296875,-12.3046875,1,0,0,3.28304195404,,,2015_Sep_08_1516,K,facesParametric,2,59.6345127144,
./stim/MorphF9_04_orig.jpg,1,,,,,0,1,1,1,,,,,,,,,,,,,,,,,,,-14.6484375,-12.041015625,0,0,1,1.28756308556,,,2015_Sep_08_1516,K,facesParametric,2,59.6345127144,
./stim/MorphM3_03_orig.jpg,2,,,,,0,2,2,2,,,,,,,,,,,,,,,,,,,-14.736328125,-12.041015625,0,0,1,0.753248929977,,,2015_Sep_08_1516,K,facesParametric,2,59.6345127144,
./stim/MorphM1_00_orig.jpg,3,,,,,0,3,3,3,,,,,,,,,,,,,,,,,,,-14.765625,-12.0703125,0,0,1,0.970592021942,,,2015_Sep_08_1516,K,facesParametric,2,59.6345127144,
./stim/MorphM6_09_orig.jpg,4,,,,,0,4,4,4,,,,,,,,,,,,,,,,,,,-14.853515625,-12.12890625,1,0,0,0.937124967575,,,2015_Sep_08_1516,K,facesParametric,2,59.6345127144,
./stim/MorphM10_02_orig.jpg,5,,,,,0,5,5,5,,,,,,,,,,,,,,,,,,,-14.82421875,-12.099609375,0,0,1,1.92588186264,,,2015_Sep_08_1516,K,facesParametric,2,59.6345127144,
./stim/MorphM3_06_orig.jpg,6,,,,,0,6,6,6,,,,,,,,,,,,,,,,,,,-14.853515625,-12.12890625,0,0,1,1.92604494095,,,2015_Sep_08_1516,K,facesParametric,2,59.6345127144,
./stim/MorphM7_08_orig.jpg,7,,,,,0,7,7,7,,,,,,,,,,,,,,,,,,,-14.8828125,-12.12890625,1,0,0,1.5071849823,,,2015_Sep_08_1516,K,facesParametric,2,59.6345127144,
./stim/MorphM6_04_orig.jpg,8,,,,,0,8,8,8,,,,,,,,,,,,,,,,,,,-14.912109375,-12.01171875,0,0,1,3.11587309837,,,2015_Sep_08_1516,K,facesParametric,2,59.6345127144,
./stim/MorphM2_05_orig.jpg,9,,,,,0,9,9,9,,,,,,,,,,,,,,,,,,,-14.970703125,-12.01171875,0,0,1,1.6913318634,,,2015_Sep_08_1516,K,facesParametric,2,59.6345127144,
./stim/MorphM3_01_orig.jpg,10,,,,,0,10,10,10,,,,,,,,,,,,,,,,,,,-15.087890625,-12.099609375,0,0,1,1.48820400238,,,2015_Sep_08_1516,K,facesParametric,2,59.6345127144,
./stim/MorphF1_03_orig.jpg,11,,,,,0,11,11,11,,,,,,,,,,,,,,,,,,,-15.146484375,-12.158203125,0,0,1,1.1370511055,,,2015_Sep_08_1516,K,facesParametric,2,59.6345127144,
./stim/MorphF8_09_orig.jpg,12,,,,,0,12,12,12,,,,,,,,,,,,,,,,,,,-15.1171875,-12.158203125,1,0,0,1.0195710659,,,2015_Sep_08_1516,K,facesParametric,2,59.6345127144,
./stim/MorphF3_01_orig.jpg,13,,,,,0,13,13,13,,,,,,,,,,,,,,,,,,,-15.17578125,-12.12890625,0,0,1,0.936929941177,,,2015_Sep_08_1516,K,facesParametric,2,59.6345127144,
./stim/MorphF7_03_orig.jpg,14,,,,,0,14,14,14,,,,,,,,,,,,,,,,,,,-15.087890625,-12.099609375,0,0,1,2.37667393684,,,2015_Sep_08_1516,K,facesParametric,2,59.6345127144,
./stim/MorphM1_05_orig.jpg,15,,,,,0,15,15,15,,,,,,,,,,,,,,,,,,,-14.94140625,-12.1875,0,0,1,4.45535612106,,,2015_Sep_08_1516,K,facesParametric,2,59.6345127144,
./stim/MorphM5_08_orig.jpg,16,,,,,0,16,16,16,,,,,,,,,,,,,,,,,,,-15.029296875,-12.3046875,1,0,0,1.77494502068,,,2015_Sep_08_1516,K,facesParametric,2,59.6345127144,
./stim/MorphF7_01_orig.jpg,17,,,,,0,17,17,17,,,,,,,,,,,,,,,,,,,-15.029296875,-12.3046875,0,0,1,1.12172198296,,,2015_Sep_08_1516,K,facesParametric,2,59.6345127144,
./stim/MorphF1_10_orig.jpg,18,,,,,0,18,18,18,,,,,,,,,,,,,,,,,,,-15.05859375,-12.333984375,1,0,0,3.58499908447,,,2015_Sep_08_1516,K,facesParametric,2,59.6345127144,
./stim/MorphF9_06_orig.jpg,19,,,,,0,19,19,19,,,,,,,,,,,,,,,,,,,-14.794921875,-12.421875,0,0,1,4.35433721542,,,2015_Sep_08_1516,K,facesParametric,2,59.6345127144,
./stim/MorphM4_00_orig.jpg,20,,,,,0,20,20,20,,,,,,,,,,,,,,,,,,,-14.70703125,-12.5390625,0,0,1,1.44002103806,,,2015_Sep_08_1516,K,facesParametric,2,59.6345127144,
./stim/MorphM10_08_orig.jpg,21,,,,,0,21,21,21,,,,,,,,,,,,,,,,,,,-14.70703125,-12.5390625,1,0,0,1.44004511833,,,2015_Sep_08_1516,K,facesParametric,2,59.6345127144,
./stim/MorphF8_07_orig.jpg,22,,,,,0,22,22,22,,,,,,,,,,,,,,,,,,,-14.70703125,-12.5390625,0,0,1,3.85380792618,,,2015_Sep_08_1516,K,facesParametric,2,59.6345127144,
./stim/MorphF6_02_orig.jpg,23,,,,,0,23,23,23,,,,,,,,,,,,,,,,,,,-14.677734375,-12.568359375,0,0,1,0.903033018112,,,2015_Sep_08_1516,K,facesParametric,2,59.6345127144,
./stim/MorphM2_08_orig.jpg,24,,,,,0,24,24,24,,,,,,,,,,,,,,,,,,,-14.677734375,-12.568359375,1,0,0,2.44558501244,,,2015_Sep_08_1516,K,facesParametric,2,59.6345127144,
./stim/MorphF9_05_orig.jpg,25,,,,,0,25,25,25,,,,,,,,,,,,,,,,,,,-14.677734375,-12.568359375,0,0,1,1.75748610497,,,2015_Sep_08_1516,K,facesParametric,2,59.6345127144,
./stim/MorphF1_08_orig.jpg,26,,,,,0,26,26,26,,,,,,,,,,,,,,,,,,,-11.953125,-12.919921875,0,0,1,35.9985010624,,,2015_Sep_08_1516,K,facesParametric,2,59.6345127144,
./stim/MorphF6_09_orig.jpg,27,,,,,0,27,27,27,,,,,,,,,,,,,,,,,,,-12.041015625,-12.890625,1,0,0,1.13819599152,,,2015_Sep_08_1516,K,facesParametric,2,59.6345127144,
./stim/MorphF2_09_orig.jpg,28,,,,,0,28,28,28,,,,,,,,,,,,,,,,,,,-12.041015625,-12.83203125,1,0,0,1.87547898293,,,2015_Sep_08_1516,K,facesParametric,2,59.6345127144,
./stim/MorphF1_04_orig.jpg,29,,,,,0,29,29,29,,,,,,,,,,,,,,,,,,,-11.953125,-12.744140625,0,0,1,1.25579810143,,,2015_Sep_08_1516,K,facesParametric,2,59.6345127144,
./stim/MorphM4_06_orig.jpg,30,,,,,0,30,30,30,,,,,,,,,,,,,,,,,,,-11.923828125,-12.861328125,1,0,0,0.986850976944,,,2015_Sep_08_1516,K,facesParametric,2,59.6345127144,
./stim/MorphM5_04_orig.jpg,31,,,,,0,31,31,31,,,,,,,,,,,,,,,,,,,-11.923828125,-12.861328125,0,0,1,5.83113598824,,,2015_Sep_08_1516,K,facesParametric,2,59.6345127144,
./stim/MorphF10_02_orig.jpg,32,,,,,0,32,32,32,,,,,,,,,,,,,,,,,,,-11.953125,-12.978515625,1,0,0,2.91555190086,,,2015_Sep_08_1516,K,facesParametric,2,59.6345127144,
./stim/MorphF6_05_orig.jpg,33,,,,,0,33,33,33,,,,,,,,,,,,,,,,,,,-11.89453125,-12.919921875,0,0,1,8.56257081032,,,2015_Sep_08_1516,K,facesParametric,2,59.6345127144,
./stim/MorphF8_01_orig.jpg,34,,,,,0,34,34,34,,,,,,,,,,,,,,,,,,,-11.953125,-12.919921875,0,0,1,1.30585408211,,,2015_Sep_08_1516,K,facesParametric,2,59.6345127144,
./stim/MorphM2_06_orig.jpg,35,,,,,0,35,35,35,,,,,,,,,,,,,,,,,,,-11.953125,-12.94921875,0,0,1,4.49008584023,,,2015_Sep_08_1516,K,facesParametric,2,59.6345127144,
./stim/MorphM9_02_orig.jpg,36,,,,,0,36,36,36,,,,,,,,,,,,,,,,,,,-11.513671875,-13.095703125,0,0,1,2.78067183495,,,2015_Sep_08_1516,K,facesParametric,2,59.6345127144,
./stim/MorphM5_03_orig.jpg,37,,,,,0,37,37,37,,,,,,,,,,,,,,,,,,,-11.572265625,-13.154296875,0,0,1,0.954483032227,,,2015_Sep_08_1516,K,facesParametric,2,59.6345127144,
./stim/MorphM4_01_orig.jpg,38,,,,,0,38,38,38,,,,,,,,,,,,,,,,,,,-11.66015625,-13.095703125,0,0,1,1.97618913651,,,2015_Sep_08_1516,K,facesParametric,2,59.6345127144,
./stim/MorphM6_05_orig.jpg,39,,,,,0,39,39,39,,,,,,,,,,,,,,,,,,,-11.484375,-13.095703125,0,0,1,7.57250094414,,,2015_Sep_08_1516,K,facesParametric,2,59.6345127144,
./stim/MorphF4_02_orig.jpg,40,,,,,0,40,40,40,,,,,,,,,,,,,,,,,,,-11.513671875,-13.095703125,0,0,1,1.60637593269,,,2015_Sep_08_1516,K,facesParametric,2,59.6345127144,
./stim/MorphM9_03_orig.jpg,41,,,,,0,41,41,41,,,,,,,,,,,,,,,,,,,-11.54296875,-13.125,0,0,1,1.57277989388,,,2015_Sep_08_1516,K,facesParametric,2,59.6345127144,
./stim/MorphF4_06_orig.jpg,42,,,,,0,42,42,42,,,,,,,,,,,,,,,,,,,-11.572265625,-13.037109375,1,0,0,1.68962001801,,,2015_Sep_08_1516,K,facesParametric,2,59.6345127144,
./stim/MorphF5_00_orig.jpg,43,,,,,0,43,43,43,,,,,,,,,,,,,,,,,,,-11.54296875,-13.0078125,0,0,1,1.82535505295,,,2015_Sep_08_1516,K,facesParametric,2,59.6345127144,
./stim/MorphM7_04_orig.jpg,44,,,,,0,44,44,44,,,,,,,,,,,,,,,,,,,-11.513671875,-12.978515625,1,0,0,1.69169187546,,,2015_Sep_08_1516,K,facesParametric,2,59.6345127144,
./stim/MorphF1_07_orig.jpg,45,,,,,0,45,45,45,,,,,,,,,,,,,,,,,,,-11.396484375,-13.0078125,1,0,0,3.08050894737,,,2015_Sep_08_1516,K,facesParametric,2,59.6345127144,
./stim/MorphF7_02_orig.jpg,46,,,,,0,46,46,46,,,,,,,,,,,,,,,,,,,-11.19140625,-13.06640625,0,0,1,8.54545712471,,,2015_Sep_08_1516,K,facesParametric,2,59.6345127144,
./stim/MorphF3_08_orig.jpg,47,,,,,0,47,47,47,,,,,,,,,,,,,,,,,,,-11.1328125,-13.095703125,1,0,0,6.70174789429,,,2015_Sep_08_1516,K,facesParametric,2,59.6345127144,
./stim/MorphM4_03_orig.jpg,48,,,,,0,48,48,48,,,,,,,,,,,,,,,,,,,-11.015625,-13.154296875,0,0,1,2.34517216682,,,2015_Sep_08_1516,K,facesParametric,2,59.6345127144,
./stim/MorphM7_05_orig.jpg,49,,,,,0,49,49,49,,,,,,,,,,,,,,,,,,,-9.08203125,-12.36328125,1,0,0,26.261248827,,,2015_Sep_08_1516,K,facesParametric,2,59.6345127144,
./stim/MorphM4_08_orig.jpg,50,,,,,0,50,50,50,,,,,,,,,,,,,,,,,,,-8.818359375,-12.216796875,1,0,0,1.1364672184,,,2015_Sep_08_1516,K,facesParametric,2,59.6345127144,
./stim/MorphM2_03_orig.jpg,51,,,,,0,51,51,51,,,,,,,,,,,,,,,,,,,-8.701171875,-12.275390625,0,0,1,1.40570211411,,,2015_Sep_08_1516,K,facesParametric,2,59.6345127144,
./stim/MorphF3_10_orig.jpg,52,,,,,0,52,52,52,,,,,,,,,,,,,,,,,,,-8.61328125,-12.275390625,1,0,0,3.13222503662,,,2015_Sep_08_1516,K,facesParametric,2,59.6345127144,
./stim/MorphF6_08_orig.jpg,53,,,,,0,53,53,53,,,,,,,,,,,,,,,,,,,-8.525390625,-12.216796875,1,0,0,1.10491895676,,,2015_Sep_08_1516,K,facesParametric,2,59.6345127144,
./stim/MorphM3_10_orig.jpg,54,,,,,0,54,54,54,,,,,,,,,,,,,,,,,,,-8.49609375,-12.1875,1,0,0,3.45011115074,,,2015_Sep_08_1516,K,facesParametric,2,59.6345127144,
./stim/MorphM10_03_orig.jpg,55,,,,,0,55,55,55,,,,,,,,,,,,,,,,,,,-8.232421875,-12.1875,0,0,1,5.52768993378,,,2015_Sep_08_1516,K,facesParametric,2,59.6345127144,
./stim/MorphF2_03_orig.jpg,56,,,,,0,56,56,56,,,,,,,,,,,,,,,,,,,-8.349609375,-12.275390625,1,0,0,3.61863684654,,,2015_Sep_08_1516,K,facesParametric,2,59.6345127144,
./stim/MorphM7_10_orig.jpg,57,,,,,0,57,57,57,,,,,,,,,,,,,,,,,,,-8.14453125,-12.24609375,1,0,0,0.920007944107,,,2015_Sep_08_1516,K,facesParametric,2,59.6345127144,
./stim/MorphF8_00_orig.jpg,58,,,,,0,58,58,58,,,,,,,,,,,,,,,,,,,-8.115234375,-12.216796875,0,0,1,1.07114601135,,,2015_Sep_08_1516,K,facesParametric,2,59.6345127144,
./stim/MorphF7_07_orig.jpg,59,,,,,0,59,59,59,,,,,,,,,,,,,,,,,,,-8.0859375,-12.1875,1,0,0,1.60796904564,,,2015_Sep_08_1516,K,facesParametric,2,59.6345127144,
./stim/MorphM8_09_orig.jpg,60,,,,,0,60,60,60,,,,,,,,,,,,,,,,,,,-8.056640625,-12.1875,1,0,0,1.18839120865,,,2015_Sep_08_1516,K,facesParametric,2,59.6345127144,
./stim/MorphF5_08_orig.jpg,61,,,,,0,61,61,61,,,,,,,,,,,,,,,,,,,-8.02734375,-12.158203125,1,0,0,0.818057060242,,,2015_Sep_08_1516,K,facesParametric,2,59.6345127144,
./stim/MorphM8_00_orig.jpg,62,,,,,0,62,62,62,,,,,,,,,,,,,,,,,,,-7.998046875,-12.12890625,0,0,1,4.18916511536,,,2015_Sep_08_1516,K,facesParametric,2,59.6345127144,
./stim/MorphF4_04_orig.jpg,63,,,,,0,63,63,63,,,,,,,,,,,,,,,,,,,-8.056640625,-12.12890625,0,0,1,6.28263115883,,,2015_Sep_08_1516,K,facesParametric,2,59.6345127144,
./stim/MorphM8_05_orig.jpg,64,,,,,0,64,64,64,,,,,,,,,,,,,,,,,,,-8.115234375,-12.216796875,1,0,0,3.06370210648,,,2015_Sep_08_1516,K,facesParametric,2,59.6345127144,
./stim/MorphM1_09_orig.jpg,65,,,,,0,65,65,65,,,,,,,,,,,,,,,,,,,-8.115234375,-12.216796875,1,0,0,1.17164421082,,,2015_Sep_08_1516,K,facesParametric,2,59.6345127144,
./stim/MorphF8_04_orig.jpg,66,,,,,0,66,66,66,,,,,,,,,,,,,,,,,,,-8.115234375,-12.216796875,0,0,1,2.24227905273,,,2015_Sep_08_1516,K,facesParametric,2,59.6345127144,
./stim/MorphM10_07_orig.jpg,67,,,,,0,67,67,67,,,,,,,,,,,,,,,,,,,-7.998046875,-12.275390625,1,0,0,1.20539402962,,,2015_Sep_08_1516,K,facesParametric,2,59.6345127144,
./stim/MorphM5_05_orig.jpg,68,,,,,0,68,68,68,,,,,,,,,,,,,,,,,,,-7.822265625,-12.24609375,0,0,1,4.99361801147,,,2015_Sep_08_1516,K,facesParametric,2,59.6345127144,
./stim/MorphM3_02_orig.jpg,69,,,,,0,69,69,69,,,,,,,,,,,,,,,,,,,-7.822265625,-12.216796875,0,0,1,2.0423078537,,,2015_Sep_08_1516,K,facesParametric,2,59.6345127144,
./stim/MorphF2_08_orig.jpg,70,,,,,0,70,70,70,,,,,,,,,,,,,,,,,,,-7.822265625,-12.1875,1,0,0,2.59443306923,,,2015_Sep_08_1516,K,facesParametric,2,59.6345127144,
./stim/MorphM5_00_orig.jpg,71,,,,,0,71,71,71,,,,,,,,,,,,,,,,,,,-7.79296875,-12.158203125,0,0,1,1.60763311386,,,2015_Sep_08_1516,K,facesParametric,2,59.6345127144,
./stim/MorphF6_07_orig.jpg,72,,,,,0,72,72,72,,,,,,,,,,,,,,,,,,,-7.734375,-12.12890625,1,0,0,2.12687897682,,,2015_Sep_08_1516,K,facesParametric,2,59.6345127144,
./stim/MorphM7_07_orig.jpg,73,,,,,0,73,73,73,,,,,,,,,,,,,,,,,,,-7.734375,-12.12890625,1,0,0,0.668614864349,,,2015_Sep_08_1516,K,facesParametric,2,59.6345127144,
./stim/MorphM4_05_orig.jpg,74,,,,,0,74,74,74,,,,,,,,,,,,,,,,,,,-7.705078125,-12.12890625,1,0,0,1.79192304611,,,2015_Sep_08_1516,K,facesParametric,2,59.6345127144,
./stim/MorphF1_02_orig.jpg,75,,,,,0,75,75,75,,,,,,,,,,,,,,,,,,,-7.67578125,-12.099609375,0,0,1,1.87561702728,,,2015_Sep_08_1516,K,facesParametric,2,59.6345127144,
./stim/MorphM1_03_orig.jpg,76,,,,,0,76,76,76,,,,,,,,,,,,,,,,,,,-7.705078125,-12.099609375,0,0,1,1.50696396828,,,2015_Sep_08_1516,K,facesParametric,2,59.6345127144,
./stim/MorphM6_01_orig.jpg,77,,,,,0,77,77,77,,,,,,,,,,,,,,,,,,,-7.646484375,-12.158203125,0,0,1,1.70602893829,,,2015_Sep_08_1516,K,facesParametric,2,59.6345127144,
./stim/MorphF5_05_orig.jpg,78,,,,,0,78,78,78,,,,,,,,,,,,,,,,,,,-7.6171875,-12.1875,1,0,0,3.51832199097,,,2015_Sep_08_1516,K,facesParametric,2,59.6345127144,
./stim/MorphF4_10_orig.jpg,79,,,,,0,79,79,79,,,,,,,,,,,,,,,,,,,-7.55859375,-12.1875,1,0,0,0.904016971588,,,2015_Sep_08_1516,K,facesParametric,2,59.6345127144,
./stim/MorphF9_03_orig.jpg,80,,,,,0,80,80,80,,,,,,,,,,,,,,,,,,,-7.55859375,-12.1875,0,0,1,1.6074461937,,,2015_Sep_08_1516,K,facesParametric,2,59.6345127144,
./stim/MorphM8_04_orig.jpg,81,,,,,0,81,81,81,,,,,,,,,,,,,,,,,,,-7.529296875,-12.1875,1,0,0,1.32271313667,,,2015_Sep_08_1516,K,facesParametric,2,59.6345127144,
./stim/MorphF2_04_orig.jpg,82,,,,,0,82,82,82,,,,,,,,,,,,,,,,,,,-7.529296875,-12.1875,1,0,0,2.44581890106,,,2015_Sep_08_1516,K,facesParametric,2,59.6345127144,
./stim/MorphM10_01_orig.jpg,83,,,,,0,83,83,83,,,,,,,,,,,,,,,,,,,-7.529296875,-12.1875,0,0,1,1.75841593742,,,2015_Sep_08_1516,K,facesParametric,2,59.6345127144,
./stim/MorphF6_10_orig.jpg,84,,,,,0,84,84,84,,,,,,,,,,,,,,,,,,,-7.529296875,-12.1875,1,0,0,1.54084610939,,,2015_Sep_08_1516,K,facesParametric,2,59.6345127144,
./stim/MorphF10_00_orig.jpg,85,,,,,0,85,85,85,,,,,,,,,,,,,,,,,,,-7.55859375,-12.158203125,1,0,0,4.07001709938,,,2015_Sep_08_1516,K,facesParametric,2,59.6345127144,
./stim/MorphM10_04_orig.jpg,86,,,,,0,86,86,86,,,,,,,,,,,,,,,,,,,-7.3828125,-12.12890625,1,0,0,4.02075099945,,,2015_Sep_08_1516,K,facesParametric,2,59.6345127144,
./stim/MorphM4_07_orig.jpg,87,,,,,0,87,87,87,,,,,,,,,,,,,,,,,,,-7.294921875,-12.158203125,1,0,0,1.18843984604,,,2015_Sep_08_1516,K,facesParametric,2,59.6345127144,
./stim/MorphF10_07_orig.jpg,88,,,,,0,88,88,88,,,,,,,,,,,,,,,,,,,-7.265625,-12.12890625,1,0,0,1.47396492958,,,2015_Sep_08_1516,K,facesParametric,2,59.6345127144,
./stim/MorphF8_02_orig.jpg,89,,,,,0,89,89,89,,,,,,,,,,,,,,,,,,,-7.265625,-12.12890625,0,0,1,2.12525200844,,,2015_Sep_08_1516,K,facesParametric,2,59.6345127144,
./stim/MorphM10_06_orig.jpg,90,,,,,0,90,90,90,,,,,,,,,,,,,,,,,,,-7.236328125,-12.099609375,1,0,0,1.77522993088,,,2015_Sep_08_1516,K,facesParametric,2,59.6345127144,
./stim/MorphF6_06_orig.jpg,91,,,,,0,91,91,91,,,,,,,,,,,,,,,,,,,-6.85546875,-11.953125,1,0,0,2.21052193642,,,2015_Sep_08_1516,K,facesParametric,2,59.6345127144,
./stim/MorphF2_07_orig.jpg,92,,,,,0,92,92,92,,,,,,,,,,,,,,,,,,,-6.85546875,-11.953125,1,0,0,1.70834803581,,,2015_Sep_08_1516,K,facesParametric,2,59.6345127144,
./stim/MorphF3_04_orig.jpg,93,,,,,0,93,93,93,,,,,,,,,,,,,,,,,,,-6.85546875,-11.953125,0,0,1,2.81398892403,,,2015_Sep_08_1516,K,facesParametric,2,59.6345127144,
./stim/MorphM10_10_orig.jpg,94,,,,,0,94,94,94,,,,,,,,,,,,,,,,,,,-6.85546875,-11.953125,1,0,0,0.937816858292,,,2015_Sep_08_1516,K,facesParametric,2,59.6345127144,
./stim/MorphF3_06_orig.jpg,95,,,,,0,95,95,95,,,,,,,,,,,,,,,,,,,-6.826171875,-11.982421875,0,0,1,2.83119392395,,,2015_Sep_08_1516,K,facesParametric,2,59.6345127144,
./stim/MorphM8_06_orig.jpg,96,,,,,0,96,96,96,,,,,,,,,,,,,,,,,,,-6.62109375,-11.953125,1,0,0,2.54675793648,,,2015_Sep_08_1516,K,facesParametric,2,59.6345127144,
./stim/MorphM4_02_orig.jpg,97,,,,,0,97,97,97,,,,,,,,,,,,,,,,,,,-6.62109375,-11.923828125,0,0,1,2.82972884178,,,2015_Sep_08_1516,K,facesParametric,2,59.6345127144,
./stim/MorphF9_08_orig.jpg,98,,,,,0,98,98,98,,,,,,,,,,,,,,,,,,,-6.6796875,-11.953125,1,0,0,1.07177996635,,,2015_Sep_08_1516,K,facesParametric,2,59.6345127144,
./stim/MorphF3_07_orig.jpg,99,,,,,0,99,99,99,,,,,,,,,,,,,,,,,,,-5.771484375,-11.89453125,1,0,0,8.88177895546,,,2015_Sep_08_1516,K,facesParametric,2,59.6345127144,
./stim/MorphM10_09_orig.jpg,100,,,,,0,100,100,100,,,,,,,,,,,,,,,,,,,-5.361328125,-12.01171875,1,0,0,0.736200094223,,,2015_Sep_08_1516,K,facesParametric,2,59.6345127144,
./stim/MorphM4_04_orig.jpg,101,,,,,0,101,101,101,,,,,,,,,,,,,,,,,,,-5.21484375,-12.099609375,0,0,1,1.37338209152,,,2015_Sep_08_1516,K,facesParametric,2,59.6345127144,
./stim/MorphM6_07_orig.jpg,102,,,,,0,102,102,102,,,,,,,,,,,,,,,,,,,-5.0390625,-12.275390625,0,0,1,6.95497608185,,,2015_Sep_08_1516,K,facesParametric,2,59.6345127144,
./stim/MorphF4_01_orig.jpg,103,,,,,0,103,103,103,,,,,,,,,,,,,,,,,,,-4.98046875,-12.275390625,0,0,1,0.870609998703,,,2015_Sep_08_1516,K,facesParametric,2,59.6345127144,
./stim/MorphF10_06_orig.jpg,104,,,,,0,104,104,104,,,,,,,,,,,,,,,,,,,-4.98046875,-12.275390625,1,0,0,0.987422943115,,,2015_Sep_08_1516,K,facesParametric,2,59.6345127144,
./stim/MorphM3_00_orig.jpg,105,,,,,0,105,105,105,,,,,,,,,,,,,,,,,,,-4.892578125,-12.24609375,0,0,1,1.92606401443,,,2015_Sep_08_1516,K,facesParametric,2,59.6345127144,
./stim/MorphF7_08_orig.jpg,106,,,,,0,106,106,106,,,,,,,,,,,,,,,,,,,-4.892578125,-12.24609375,1,0,0,1.15552616119,,,2015_Sep_08_1516,K,facesParametric,2,59.6345127144,
./stim/MorphF1_06_orig.jpg,107,,,,,0,107,107,107,,,,,,,,,,,,,,,,,,,-6.6796875,-10.166015625,1,0,0,35.259706974,,,2015_Sep_08_1516,K,facesParametric,2,59.6345127144,
./stim/MorphM7_02_orig.jpg,108,,,,,0,108,108,108,,,,,,,,,,,,,,,,,,,-10.576171875,-12.3046875,1,0,0,20.0433990955,,,2015_Sep_08_1516,K,facesParametric,2,59.6345127144,
./stim/MorphM5_02_orig.jpg,109,,,,,0,109,109,109,,,,,,,,,,,,,,,,,,,-16.552734375,-12.802734375,0,0,1,2.84748005867,,,2015_Sep_08_1516,K,facesParametric,2,59.6345127144,
./stim/MorphM6_08_orig.jpg,110,,,,,0,110,110,110,,,,,,,,,,,,,,,,,,,-16.376953125,-11.923828125,1,0,0,1.34031414986,,,2015_Sep_08_1516,K,facesParametric,2,59.6345127144,
./stim/MorphF6_01_orig.jpg,111,,,,,0,111,111,111,,,,,,,,,,,,,,,,,,,-17.6953125,-9.78515625,0,0,1,5.14334106445,,,2015_Sep_08_1516,K,facesParametric,2,59.6345127144,
./stim/MorphM3_08_orig.jpg,112,,,,,0,112,112,112,,,,,,,,,,,,,,,,,,,-18.251953125,-10.60546875,1,0,0,6.70237207413,,,2015_Sep_08_1516,K,facesParametric,2,59.6345127144,
./stim/MorphF2_06_orig.jpg,113,,,,,0,113,113,113,,,,,,,,,,,,,,,,,,,-18.310546875,-10.283203125,1,0,0,1.13865017891,,,2015_Sep_08_1516,K,facesParametric,2,59.6345127144,
./stim/MorphM9_05_orig.jpg,114,,,,,0,114,114,114,,,,,,,,,,,,,,,,,,,-18.28125,-10.927734375,0,0,1,2.73064517975,,,2015_Sep_08_1516,K,facesParametric,2,59.6345127144,
./stim/MorphM7_06_orig.jpg,115,,,,,0,115,115,115,,,,,,,,,,,,,,,,,,,-16.9921875,-10.283203125,1,0,0,2.4464700222,,,2015_Sep_08_1516,K,facesParametric,2,59.6345127144,
./stim/MorphF7_00_orig.jpg,116,,,,,0,116,116,116,,,,,,,,,,,,,,,,,,,-16.962890625,-10.4296875,1,0,0,2.79483985901,,,2015_Sep_08_1516,K,facesParametric,2,59.6345127144,
./stim/MorphM7_00_orig.jpg,117,,,,,0,117,117,117,,,,,,,,,,,,,,,,,,,-17.109375,-10.6640625,0,0,1,2.2778699398,,,2015_Sep_08_1516,K,facesParametric,2,59.6345127144,
./stim/MorphM6_02_orig.jpg,118,,,,,0,118,118,118,,,,,,,,,,,,,,,,,,,-17.28515625,-10.869140625,0,0,1,2.78088307381,,,2015_Sep_08_1516,K,facesParametric,2,59.6345127144,
./stim/MorphF7_04_orig.jpg,119,,,,,0,119,119,119,,,,,,,,,,,,,,,,,,,-17.2265625,-10.927734375,1,0,0,7.52215194702,,,2015_Sep_08_1516,K,facesParametric,2,59.6345127144,
./stim/MorphF4_00_orig.jpg,120,,,,,0,120,120,120,,,,,,,,,,,,,,,,,,,-17.109375,-10.810546875,0,0,1,1.7582321167,,,2015_Sep_08_1516,K,facesParametric,2,59.6345127144,
./stim/MorphF9_07_orig.jpg,121,,,,,0,121,121,121,,,,,,,,,,,,,,,,,,,-17.138671875,-10.927734375,1,0,0,0.987733840942,,,2015_Sep_08_1516,K,facesParametric,2,59.6345127144,
./stim/MorphF4_05_orig.jpg,122,,,,,0,122,122,122,,,,,,,,,,,,,,,,,,,-17.138671875,-10.927734375,1,0,0,1.44027400017,,,2015_Sep_08_1516,K,facesParametric,2,59.6345127144,
./stim/MorphF5_10_orig.jpg,123,,,,,0,123,123,123,,,,,,,,,,,,,,,,,,,-17.138671875,-10.927734375,1,0,0,0.702679157257,,,2015_Sep_08_1516,K,facesParametric,2,59.6345127144,
./stim/MorphM9_06_orig.jpg,124,,,,,0,124,124,124,,,,,,,,,,,,,,,,,,,-17.138671875,-10.927734375,1,0,0,2.54597020149,,,2015_Sep_08_1516,K,facesParametric,2,59.6345127144,
./stim/MorphF1_00_orig.jpg,125,,,,,0,125,125,125,,,,,,,,,,,,,,,,,,,-17.109375,-10.927734375,0,0,1,3.09931397438,,,2015_Sep_08_1516,K,facesParametric,2,59.6345127144,
./stim/MorphF5_07_orig.jpg,126,,,,,0,126,126,126,,,,,,,,,,,,,,,,,,,-17.109375,-10.927734375,1,0,0,0.920621871948,,,2015_Sep_08_1516,K,facesParametric,2,59.6345127144,
./stim/MorphM6_06_orig.jpg,127,,,,,0,127,127,127,,,,,,,,,,,,,,,,,,,-17.109375,-10.927734375,1,0,0,1.82574105263,,,2015_Sep_08_1516,K,facesParametric,2,59.6345127144,
./stim/MorphF2_00_orig.jpg,128,,,,,0,128,128,128,,,,,,,,,,,,,,,,,,,-17.05078125,-10.95703125,1,0,0,2.04186010361,,,2015_Sep_08_1516,K,facesParametric,2,59.6345127144,
./stim/MorphM6_03_orig.jpg,129,,,,,0,129,129,129,,,,,,,,,,,,,,,,,,,-17.05078125,-10.95703125,0,0,1,1.62239694595,,,2015_Sep_08_1516,K,facesParametric,2,59.6345127144,
./stim/MorphM3_04_orig.jpg,130,,,,,0,130,130,130,,,,,,,,,,,,,,,,,,,-17.080078125,-10.986328125,0,0,1,5.74760389328,,,2015_Sep_08_1516,K,facesParametric,2,59.6345127144,
./stim/MorphM8_01_orig.jpg,131,,,,,0,131,131,131,,,,,,,,,,,,,,,,,,,-17.05078125,-11.015625,0,0,1,1.79274487495,,,2015_Sep_08_1516,K,facesParametric,2,59.6345127144,
./stim/MorphM1_06_orig.jpg,132,,,,,0,132,132,132,,,,,,,,,,,,,,,,,,,-17.021484375,-11.07421875,0,0,1,2.24171495438,,,2015_Sep_08_1516,K,facesParametric,2,59.6345127144,
./stim/MorphM2_09_orig.jpg,133,,,,,0,133,133,133,,,,,,,,,,,,,,,,,,,-16.904296875,-11.162109375,1,0,0,1.10602116585,,,2015_Sep_08_1516,K,facesParametric,2,59.6345127144,
./stim/MorphF2_01_orig.jpg,134,,,,,0,134,134,134,,,,,,,,,,,,,,,,,,,-16.904296875,-11.220703125,0,0,1,8.9454190731,,,2015_Sep_08_1516,K,facesParametric,2,59.6345127144,
./stim/MorphM5_01_orig.jpg,135,,,,,0,135,135,135,,,,,,,,,,,,,,,,,,,-16.93359375,-11.279296875,0,0,1,1.28931593895,,,2015_Sep_08_1516,K,facesParametric,2,59.6345127144,
./stim/MorphF8_03_orig.jpg,136,,,,,0,136,136,136,,,,,,,,,,,,,,,,,,,-16.9921875,-11.3671875,0,0,1,0.91863489151,,,2015_Sep_08_1516,K,facesParametric,2,59.6345127144,
./stim/MorphF10_03_orig.jpg,137,,,,,0,137,137,137,,,,,,,,,,,,,,,,,,,-16.962890625,-11.337890625,1,0,0,2.83148813248,,,2015_Sep_08_1516,K,facesParametric,2,59.6345127144,
./stim/MorphM7_09_orig.jpg,138,,,,,0,138,138,138,,,,,,,,,,,,,,,,,,,-16.962890625,-11.337890625,1,0,0,2.54616522789,,,2015_Sep_08_1516,K,facesParametric,2,59.6345127144,
./stim/MorphM9_00_orig.jpg,139,,,,,0,139,139,139,,,,,,,,,,,,,,,,,,,-16.962890625,-11.337890625,0,0,1,1.38987994194,,,2015_Sep_08_1516,K,facesParametric,2,59.6345127144,
./stim/MorphM3_05_orig.jpg,140,,,,,0,140,140,140,,,,,,,,,,,,,,,,,,,-16.93359375,-11.30859375,0,0,1,2.76344895363,,,2015_Sep_08_1516,K,facesParametric,2,59.6345127144,
./stim/MorphM1_07_orig.jpg,141,,,,,0,141,141,141,,,,,,,,,,,,,,,,,,,-16.904296875,-11.279296875,0,0,1,4.25597810745,,,2015_Sep_08_1516,K,facesParametric,2,59.6345127144,
./stim/MorphM9_07_orig.jpg,142,,,,,0,142,142,142,,,,,,,,,,,,,,,,,,,-16.875,-11.30859375,1,0,0,11.3451929092,,,2015_Sep_08_1516,K,facesParametric,2,59.6345127144,
./stim/MorphF3_03_orig.jpg,143,,,,,0,143,143,143,,,,,,,,,,,,,,,,,,,-16.904296875,-11.30859375,0,0,1,1.25577402115,,,2015_Sep_08_1516,K,facesParametric,2,59.6345127144,
./stim/MorphF4_07_orig.jpg,144,,,,,0,144,144,144,,,,,,,,,,,,,,,,,,,-16.93359375,-11.25,1,0,0,1.23902106285,,,2015_Sep_08_1516,K,facesParametric,2,59.6345127144,
./stim/MorphM2_10_orig.jpg,145,,,,,0,145,145,145,,,,,,,,,,,,,,,,,,,-16.93359375,-11.25,1,0,0,0.837245941162,,,2015_Sep_08_1516,K,facesParametric,2,59.6345127144,
./stim/MorphF7_06_orig.jpg,146,,,,,0,146,146,146,,,,,,,,,,,,,,,,,,,-16.904296875,-11.220703125,1,0,0,1.06922602654,,,2015_Sep_08_1516,K,facesParametric,2,59.6345127144,
./stim/MorphM8_02_orig.jpg,147,,,,,0,147,147,147,,,,,,,,,,,,,,,,,,,-16.845703125,-11.19140625,1,0,0,1.07110595703,,,2015_Sep_08_1516,K,facesParametric,2,59.6345127144,
./stim/MorphF3_05_orig.jpg,148,,,,,0,148,148,148,,,,,,,,,,,,,,,,,,,-16.81640625,-11.162109375,0,0,1,1.42343187332,,,2015_Sep_08_1516,K,facesParametric,2,59.6345127144,
./stim/MorphF6_04_orig.jpg,149,,,,,0,149,149,149,,,,,,,,,,,,,,,,,,,-16.611328125,-11.484375,1,0,0,2.91478919983,,,2015_Sep_08_1516,K,facesParametric,2,59.6345127144,
./stim/MorphM4_10_orig.jpg,150,,,,,0,150,150,150,,,,,,,,,,,,,,,,,,,-16.5234375,-11.630859375,1,0,0,2.37878704071,,,2015_Sep_08_1516,K,facesParametric,2,59.6345127144,
./stim/MorphF10_08_orig.jpg,151,,,,,0,151,151,151,,,,,,,,,,,,,,,,,,,-16.435546875,-11.6015625,1,0,0,0.66907787323,,,2015_Sep_08_1516,K,facesParametric,2,59.6345127144,
./stim/MorphF5_02_orig.jpg,152,,,,,0,152,152,152,,,,,,,,,,,,,,,,,,,-16.259765625,-11.572265625,0,0,1,1.42136907578,,,2015_Sep_08_1516,K,facesParametric,2,59.6345127144,
./stim/MorphF1_05_orig.jpg,153,,,,,0,153,153,153,,,,,,,,,,,,,,,,,,,-16.025390625,-11.455078125,0,0,1,1.70813298225,,,2015_Sep_08_1516,K,facesParametric,2,59.6345127144,
./stim/MorphF9_09_orig.jpg,154,,,,,0,154,154,154,,,,,,,,,,,,,,,,,,,-16.025390625,-11.42578125,1,0,0,0.836696147919,,,2015_Sep_08_1516,K,facesParametric,2,59.6345127144,
./stim/MorphF5_03_orig.jpg,155,,,,,0,155,155,155,,,,,,,,,,,,,,,,,,,-15.87890625,-11.220703125,0,0,1,1.22190284729,,,2015_Sep_08_1516,K,facesParametric,2,59.6345127144,
./stim/MorphF4_03_orig.jpg,156,,,,,0,156,156,156,,,,,,,,,,,,,,,,,,,-15.87890625,-11.220703125,0,0,1,1.47197008133,,,2015_Sep_08_1516,K,facesParametric,2,59.6345127144,
./stim/MorphF5_01_orig.jpg,157,,,,,0,157,157,157,,,,,,,,,,,,,,,,,,,-15.908203125,-11.25,0,0,1,1.48958587646,,,2015_Sep_08_1516,K,facesParametric,2,59.6345127144,
./stim/MorphM1_01_orig.jpg,158,,,,,0,158,158,158,,,,,,,,,,,,,,,,,,,-15.908203125,-11.25,0,0,1,0.987929105759,,,2015_Sep_08_1516,K,facesParametric,2,59.6345127144,
./stim/MorphF9_02_orig.jpg,159,,,,,0,159,159,159,,,,,,,,,,,,,,,,,,,-15.908203125,-11.25,0,0,1,1.80828499794,,,2015_Sep_08_1516,K,facesParametric,2,59.6345127144,
./stim/MorphF2_02_orig.jpg,160,,,,,0,160,160,160,,,,,,,,,,,,,,,,,,,-16.025390625,-10.869140625,0,0,1,7.40615200996,,,2015_Sep_08_1516,K,facesParametric,2,59.6345127144,
./stim/MorphM8_10_orig.jpg,161,,,,,0,161,161,161,,,,,,,,,,,,,,,,,,,-15.46875,-10.869140625,1,0,0,2.11088585854,,,2015_Sep_08_1516,K,facesParametric,2,59.6345127144,
./stim/MorphM1_10_orig.jpg,162,,,,,0,162,162,162,,,,,,,,,,,,,,,,,,,-15.41015625,-10.869140625,1,0,0,1.33903384209,,,2015_Sep_08_1516,K,facesParametric,2,59.6345127144,
./stim/MorphF10_04_orig.jpg,163,,,,,0,163,163,163,,,,,,,,,,,,,,,,,,,-15.380859375,-10.8984375,1,0,0,0.719492912292,,,2015_Sep_08_1516,K,facesParametric,2,59.6345127144,
./stim/MorphF3_00_orig.jpg,164,,,,,0,164,164,164,,,,,,,,,,,,,,,,,,,-15.29296875,-10.927734375,0,0,1,0.769867897034,,,2015_Sep_08_1516,K,facesParametric,2,59.6345127144,
./stim/MorphM2_07_orig.jpg,165,,,,,0,165,165,165,,,,,,,,,,,,,,,,,,,-15.205078125,-11.015625,1,0,0,0.769076108932,,,2015_Sep_08_1516,K,facesParametric,2,59.6345127144,
./stim/MorphF7_05_orig.jpg,166,,,,,0,166,166,166,,,,,,,,,,,,,,,,,,,-15.146484375,-11.015625,1,0,0,0.818732976913,,,2015_Sep_08_1516,K,facesParametric,2,59.6345127144,
./stim/MorphF6_03_orig.jpg,167,,,,,0,167,167,167,,,,,,,,,,,,,,,,,,,-15.029296875,-10.95703125,1,0,0,0.987034082413,,,2015_Sep_08_1516,K,facesParametric,2,59.6345127144,
./stim/MorphF3_02_orig.jpg,168,,,,,0,168,168,168,,,,,,,,,,,,,,,,,,,-15.029296875,-10.95703125,0,0,1,1.52426099777,,,2015_Sep_08_1516,K,facesParametric,2,59.6345127144,
./stim/MorphF1_01_orig.jpg,169,,,,,0,169,169,169,,,,,,,,,,,,,,,,,,,-15.029296875,-10.95703125,0,0,1,1.89147496223,,,2015_Sep_08_1516,K,facesParametric,2,59.6345127144,
./stim/MorphM1_04_orig.jpg,170,,,,,0,170,170,170,,,,,,,,,,,,,,,,,,,-15.029296875,-10.95703125,0,0,1,1.10527396202,,,2015_Sep_08_1516,K,facesParametric,2,59.6345127144,
./stim/MorphF4_09_orig.jpg,171,,,,,0,171,171,171,,,,,,,,,,,,,,,,,,,-15.087890625,-11.015625,1,0,0,0.851610183716,,,2015_Sep_08_1516,K,facesParametric,2,59.6345127144,
./stim/MorphM6_00_orig.jpg,172,,,,,0,172,172,172,,,,,,,,,,,,,,,,,,,-15.05859375,-11.015625,0,0,1,1.45675396919,,,2015_Sep_08_1516,K,facesParametric,2,59.6345127144,
./stim/MorphM5_09_orig.jpg,173,,,,,0,173,173,173,,,,,,,,,,,,,,,,,,,-15.029296875,-11.044921875,1,0,0,2.15895199776,,,2015_Sep_08_1516,K,facesParametric,2,59.6345127144,
./stim/MorphF5_06_orig.jpg,174,,,,,0,174,174,174,,,,,,,,,,,,,,,,,,,-15.029296875,-11.044921875,1,0,0,0.820209980011,,,2015_Sep_08_1516,K,facesParametric,2,59.6345127144,
./stim/MorphF9_01_orig.jpg,175,,,,,0,175,175,175,,,,,,,,,,,,,,,,,,,-15.029296875,-11.044921875,0,0,1,1.15382099152,,,2015_Sep_08_1516,K,facesParametric,2,59.6345127144,
./stim/MorphM5_07_orig.jpg,176,,,,,0,176,176,176,,,,,,,,,,,,,,,,,,,-15.05859375,-11.337890625,1,0,0,9.23254609108,,,2015_Sep_08_1516,K,facesParametric,2,59.6345127144,
./stim/MorphM2_01_orig.jpg,177,,,,,0,177,177,177,,,,,,,,,,,,,,,,,,,-14.70703125,-11.455078125,0,0,1,2.30896019936,,,2015_Sep_08_1516,K,facesParametric,2,59.6345127144,
./stim/MorphM7_03_orig.jpg,178,,,,,0,178,178,178,,,,,,,,,,,,,,,,,,,-14.736328125,-11.484375,1,0,0,2.10965299606,,,2015_Sep_08_1516,K,facesParametric,2,59.6345127144,
./stim/MorphM9_09_orig.jpg,179,,,,,0,179,179,179,,,,,,,,,,,,,,,,,,,-14.6484375,-11.42578125,1,0,0,0.736299037933,,,2015_Sep_08_1516,K,facesParametric,2,59.6345127144,
./stim/MorphF9_10_orig.jpg,180,,,,,0,180,180,180,,,,,,,,,,,,,,,,,,,-14.53125,-11.337890625,1,0,0,0.599725961685,,,2015_Sep_08_1516,K,facesParametric,2,59.6345127144,
./stim/MorphF8_10_orig.jpg,181,,,,,0,181,181,181,,,,,,,,,,,,,,,,,,,-14.501953125,-11.30859375,1,0,0,0.651944160461,,,2015_Sep_08_1516,K,facesParametric,2,59.6345127144,
./stim/MorphF10_10_orig.jpg,182,,,,,0,182,182,182,,,,,,,,,,,,,,,,,,,-14.47265625,-11.279296875,1,0,0,0.619226932526,,,2015_Sep_08_1516,K,facesParametric,2,59.6345127144,
./stim/MorphM3_09_orig.jpg,183,,,,,0,183,183,183,,,,,,,,,,,,,,,,,,,-14.4140625,-11.25,1,0,0,0.919924020767,,,2015_Sep_08_1516,K,facesParametric,2,59.6345127144,
./stim/MorphF10_05_orig.jpg,184,,,,,0,184,184,184,,,,,,,,,,,,,,,,,,,-14.384765625,-11.25,1,0,0,1.64024305344,,,2015_Sep_08_1516,K,facesParametric,2,59.6345127144,
./stim/MorphF6_00_orig.jpg,185,,,,,0,185,185,185,,,,,,,,,,,,,,,,,,,-14.384765625,-11.279296875,0,0,1,1.03821206093,,,2015_Sep_08_1516,K,facesParametric,2,59.6345127144,
./stim/MorphF8_08_orig.jpg,186,,,,,0,186,186,186,,,,,,,,,,,,,,,,,,,-14.326171875,-11.25,1,0,0,1.3062479496,,,2015_Sep_08_1516,K,facesParametric,2,59.6345127144,
./stim/MorphF7_10_orig.jpg,187,,,,,0,187,187,187,,,,,,,,,,,,,,,,,,,-14.296875,-11.220703125,1,0,0,0.616285085678,,,2015_Sep_08_1516,K,facesParametric,2,59.6345127144,
./stim/MorphM9_10_orig.jpg,188,,,,,0,188,188,188,,,,,,,,,,,,,,,,,,,-14.296875,-11.220703125,1,0,0,0.767996072769,,,2015_Sep_08_1516,K,facesParametric,2,59.6345127144,
./stim/MorphM10_05_orig.jpg,189,,,,,0,189,189,189,,,,,,,,,,,,,,,,,,,-14.296875,-11.220703125,1,0,0,1.3554251194,,,2015_Sep_08_1516,K,facesParametric,2,59.6345127144,
./stim/MorphM8_03_orig.jpg,190,,,,,0,190,190,190,,,,,,,,,,,,,,,,,,,-14.267578125,-11.337890625,0,0,1,5.29521894455,,,2015_Sep_08_1516,K,facesParametric,2,59.6345127144,
./stim/MorphF2_10_orig.jpg,191,,,,,0,191,191,191,,,,,,,,,,,,,,,,,,,-10.48828125,-9.66796875,1,0,0,1.38976407051,,,2015_Sep_08_1516,K,facesParametric,2,59.6345127144,
./stim/MorphM1_02_orig.jpg,192,,,,,0,192,192,192,,,,,,,,,,,,,,,,,,,-10.48828125,-9.66796875,0,0,1,1.06956100464,,,2015_Sep_08_1516,K,facesParametric,2,59.6345127144,
./stim/MorphM4_09_orig.jpg,193,,,,,0,193,193,193,,,,,,,,,,,,,,,,,,,-10.48828125,-9.66796875,1,0,0,0.903219938278,,,2015_Sep_08_1516,K,facesParametric,2,59.6345127144,
./stim/MorphM8_07_orig.jpg,194,,,,,0,194,194,194,,,,,,,,,,,,,,,,,,,-10.48828125,-9.66796875,1,0,0,0.90376496315,,,2015_Sep_08_1516,K,facesParametric,2,59.6345127144,
./stim/MorphM1_08_orig.jpg,195,,,,,0,195,195,195,,,,,,,,,,,,,,,,,,,-10.48828125,-9.66796875,0,0,1,2.2947678566,,,2015_Sep_08_1516,K,facesParametric,2,59.6345127144,
./stim/MorphF4_08_orig.jpg,196,,,,,0,196,196,196,,,,,,,,,,,,,,,,,,,-10.546875,-9.697265625,1,0,0,1.22236204147,,,2015_Sep_08_1516,K,facesParametric,2,59.6345127144,
./stim/MorphM9_04_orig.jpg,197,,,,,0,197,197,197,,,,,,,,,,,,,,,,,,,-10.546875,-9.697265625,0,0,1,2.2945330143,,,2015_Sep_08_1516,K,facesParametric,2,59.6345127144,
./stim/MorphF1_09_orig.jpg,198,,,,,0,198,198,198,,,,,,,,,,,,,,,,,,,-10.546875,-9.697265625,1,0,0,1.27279806137,,,2015_Sep_08_1516,K,facesParametric,2,59.6345127144,
./stim/MorphM9_08_orig.jpg,199,,,,,0,199,199,199,,,,,,,,,,,,,,,,,,,-10.546875,-9.697265625,1,0,0,0.952033042908,,,2015_Sep_08_1516,K,facesParametric,2,59.6345127144,
./stim/MorphF10_01_orig.jpg,200,,,,,0,200,200,200,,,,,,,,,,,,,,,,,,,-10.546875,-9.697265625,0,0,1,1.23827600479,,,2015_Sep_08_1516,K,facesParametric,2,59.6345127144,
./stim/MorphM10_00_orig.jpg,201,,,,,0,201,201,201,,,,,,,,,,,,,,,,,,,-10.546875,-9.697265625,0,0,1,0.937491893768,,,2015_Sep_08_1516,K,facesParametric,2,59.6345127144,
./stim/MorphM2_00_orig.jpg,202,,,,,0,202,202,202,,,,,,,,,,,,,,,,,,,-10.546875,-9.697265625,0,0,1,0.70265007019,,,2015_Sep_08_1516,K,facesParametric,2,59.6345127144,
./stim/MorphM9_01_orig.jpg,203,,,,,0,203,203,203,,,,,,,,,,,,,,,,,,,-11.19140625,-9.609375,0,0,1,4.07158613205,,,2015_Sep_08_1516,K,facesParametric,2,59.6345127144,
./stim/MorphF7_09_orig.jpg,204,,,,,0,204,204,204,,,,,,,,,,,,,,,,,,,-11.89453125,-10.01953125,1,0,0,0.702097892761,,,2015_Sep_08_1516,K,facesParametric,2,59.6345127144,
./stim/MorphF9_00_orig.jpg,205,,,,,0,205,205,205,,,,,,,,,,,,,,,,,,,-11.77734375,-9.990234375,0,0,1,1.77526783943,,,2015_Sep_08_1516,K,facesParametric,2,59.6345127144,
./stim/MorphM2_02_orig.jpg,206,,,,,0,206,206,206,,,,,,,,,,,,,,,,,,,-11.748046875,-9.990234375,0,0,1,0.702230930328,,,2015_Sep_08_1516,K,facesParametric,2,59.6345127144,
./stim/MorphF8_05_orig.jpg,207,,,,,0,207,207,207,,,,,,,,,,,,,,,,,,,-11.71875,-10.01953125,0,0,1,2.21050810814,,,2015_Sep_08_1516,K,facesParametric,2,59.6345127144,
./stim/MorphF3_09_orig.jpg,208,,,,,0,208,208,208,,,,,,,,,,,,,,,,,,,-11.71875,-10.01953125,1,0,0,1.37337017059,,,2015_Sep_08_1516,K,facesParametric,2,59.6345127144,
./stim/MorphM5_10_orig.jpg,209,,,,,0,209,209,209,,,,,,,,,,,,,,,,,,,-11.71875,-10.048828125,1,0,0,1.22225403786,,,2015_Sep_08_1516,K,facesParametric,2,59.6345127144,
./stim/MorphM8_08_orig.jpg,210,,,,,0,210,210,210,,,,,,,,,,,,,,,,,,,-11.71875,-10.048828125,1,0,0,0.887058019638,,,2015_Sep_08_1516,K,facesParametric,2,59.6345127144,
./stim/MorphM3_07_orig.jpg,211,,,,,0,211,211,211,,,,,,,,,,,,,,,,,,,-11.66015625,-10.01953125,1,0,0,0.954039096832,,,2015_Sep_08_1516,K,facesParametric,2,59.6345127144,
./stim/MorphM5_06_orig.jpg,212,,,,,0,212,212,212,,,,,,,,,,,,,,,,,,,-11.66015625,-10.107421875,1,0,0,5.32621312141,,,2015_Sep_08_1516,K,facesParametric,2,59.6345127144,
./stim/MorphF5_09_orig.jpg,213,,,,,0,213,213,213,,,,,,,,,,,,,,,,,,,-11.66015625,-10.107421875,1,0,0,0.803290843964,,,2015_Sep_08_1516,K,facesParametric,2,59.6345127144,
./stim/MorphF8_06_orig.jpg,214,,,,,0,214,214,214,,,,,,,,,,,,,,,,,,,-11.66015625,-10.13671875,0,0,1,3.75316500664,,,2015_Sep_08_1516,K,facesParametric,2,59.6345127144,
./stim/MorphF5_04_orig.jpg,215,,,,,0,215,215,215,,,,,,,,,,,,,,,,,,,-11.6015625,-10.166015625,0,0,1,0.987215995789,,,2015_Sep_08_1516,K,facesParametric,2,59.6345127144,
./stim/MorphM2_04_orig.jpg,216,,,,,0,216,216,216,,,,,,,,,,,,,,,,,,,-11.6015625,-10.166015625,0,0,1,0.98751616478,,,2015_Sep_08_1516,K,facesParametric,2,59.6345127144,
./stim/MorphF2_05_orig.jpg,217,,,,,0,217,217,217,,,,,,,,,,,,,,,,,,,-11.6015625,-10.166015625,1,0,0,3.68599295616,,,2015_Sep_08_1516,K,facesParametric,2,59.6345127144,
./stim/MorphM7_01_orig.jpg,218,,,,,0,218,218,218,,,,,,,,,,,,,,,,,,,-11.6015625,-10.166015625,0,0,1,3.30076313019,,,2015_Sep_08_1516,K,facesParametric,2,59.6345127144,
./stim/MorphF10_09_orig.jpg,219,,,,,0,219,219,219,,,,,,,,,,,,,,,,,,,-11.630859375,-10.1953125,1,0,0,2.02579784393,,,2015_Sep_08_1516,K,facesParametric,2,59.6345127144,
,,,,,,,,,,,,,,,,,,,,,,,,,,,,,,,,,,return,9.88832092285,2015_Sep_08_1516,K,facesParametric,2,59.6345127144,
./stim/MorphM6_10_orig.jpg,0,,,,,,,,,0,0,0,0,,,,,,,,,,,,,,,-7.91015625,-4.74609375,1,0,0,3.07077097893,,,2015_Sep_08_1516,K,facesParametric,2,59.6345127144,
./stim/MorphF9_04_orig.jpg,1,,,,,,,,,0,1,1,1,,,,,,,,,,,,,,,-7.880859375,-4.716796875,0,0,1,1.59027385712,,,2015_Sep_08_1516,K,facesParametric,2,59.6345127144,
./stim/MorphM3_03_orig.jpg,2,,,,,,,,,0,2,2,2,,,,,,,,,,,,,,,-7.6171875,-4.62890625,0,0,1,3.25002598763,,,2015_Sep_08_1516,K,facesParametric,2,59.6345127144,
./stim/MorphM1_00_orig.jpg,3,,,,,,,,,0,3,3,3,,,,,,,,,,,,,,,-7.6171875,-4.62890625,0,0,1,0.80296587944,,,2015_Sep_08_1516,K,facesParametric,2,59.6345127144,
./stim/MorphM6_09_orig.jpg,4,,,,,,,,,0,4,4,4,,,,,,,,,,,,,,,-7.6171875,-4.62890625,1,0,0,2.14459490776,,,2015_Sep_08_1516,K,facesParametric,2,59.6345127144,
./stim/MorphM10_02_orig.jpg,5,,,,,,,,,0,5,5,5,,,,,,,,,,,,,,,-7.529296875,-4.5703125,0,0,1,1.35499000549,,,2015_Sep_08_1516,K,facesParametric,2,59.6345127144,
./stim/MorphM3_06_orig.jpg,6,,,,,,,,,0,6,6,6,,,,,,,,,,,,,,,-7.5,-4.541015625,1,0,0,4.75766992569,,,2015_Sep_08_1516,K,facesParametric,2,59.6345127144,
./stim/MorphM7_08_orig.jpg,7,,,,,,,,,0,7,7,7,,,,,,,,,,,,,,,-7.353515625,-4.5703125,1,0,0,1.17187094688,,,2015_Sep_08_1516,K,facesParametric,2,59.6345127144,
./stim/MorphM6_04_orig.jpg,8,,,,,,,,,0,8,8,8,,,,,,,,,,,,,,,-7.353515625,-4.541015625,0,0,1,1.72500896454,,,2015_Sep_08_1516,K,facesParametric,2,59.6345127144,
./stim/MorphM2_05_orig.jpg,9,,,,,,,,,0,9,9,9,,,,,,,,,,,,,,,-7.353515625,-4.541015625,0,0,1,1.55715990067,,,2015_Sep_08_1516,K,facesParametric,2,59.6345127144,
./stim/MorphM3_01_orig.jpg,10,,,,,,,,,0,10,10,10,,,,,,,,,,,,,,,-7.32421875,-4.51171875,0,0,1,1.17053699493,,,2015_Sep_08_1516,K,facesParametric,2,59.6345127144,
./stim/MorphF1_03_orig.jpg,11,,,,,,,,,0,11,11,11,,,,,,,,,,,,,,,-7.32421875,-4.51171875,0,0,1,0.953485965729,,,2015_Sep_08_1516,K,facesParametric,2,59.6345127144,
./stim/MorphF8_09_orig.jpg,12,,,,,,,,,0,12,12,12,,,,,,,,,,,,,,,-7.32421875,-4.51171875,1,0,0,0.901607990265,,,2015_Sep_08_1516,K,facesParametric,2,59.6345127144,
./stim/MorphF3_01_orig.jpg,13,,,,,,,,,0,13,13,13,,,,,,,,,,,,,,,-7.32421875,-4.51171875,0,0,1,1.28837895393,,,2015_Sep_08_1516,K,facesParametric,2,59.6345127144,
./stim/MorphF7_03_orig.jpg,14,,,,,,,,,0,14,14,14,,,,,,,,,,,,,,,-7.353515625,-4.482421875,0,0,1,1.57271194458,,,2015_Sep_08_1516,K,facesParametric,2,59.6345127144,
./stim/MorphM1_05_orig.jpg,15,,,,,,,,,0,15,15,15,,,,,,,,,,,,,,,-7.353515625,-4.482421875,0,0,1,1.48979401588,,,2015_Sep_08_1516,K,facesParametric,2,59.6345127144,
./stim/MorphM5_08_orig.jpg,16,,,,,,,,,0,16,16,16,,,,,,,,,,,,,,,-7.236328125,-4.482421875,1,0,0,2.69659519196,,,2015_Sep_08_1516,K,facesParametric,2,59.6345127144,
./stim/MorphF7_01_orig.jpg,17,,,,,,,,,0,17,17,17,,,,,,,,,,,,,,,-7.412109375,-4.98046875,0,0,1,2.37883496284,,,2015_Sep_08_1516,K,facesParametric,2,59.6345127144,
./stim/MorphF1_10_orig.jpg,18,,,,,,,,,0,18,18,18,,,,,,,,,,,,,,,-7.265625,-4.86328125,1,0,0,1.03777599335,,,2015_Sep_08_1516,K,facesParametric,2,59.6345127144,
./stim/MorphF9_06_orig.jpg,19,,,,,,,,,0,19,19,19,,,,,,,,,,,,,,,-7.20703125,-4.833984375,1,0,0,2.04144287109,,,2015_Sep_08_1516,K,facesParametric,2,59.6345127144,
./stim/MorphM4_00_orig.jpg,20,,,,,,,,,0,20,20,20,,,,,,,,,,,,,,,-7.20703125,-4.833984375,0,0,1,1.30614995956,,,2015_Sep_08_1516,K,facesParametric,2,59.6345127144,
./stim/MorphM10_08_orig.jpg,21,,,,,,,,,0,21,21,21,,,,,,,,,,,,,,,-7.294921875,-4.833984375,1,0,0,2.57814407349,,,2015_Sep_08_1516,K,facesParametric,2,59.6345127144,
./stim/MorphF8_07_orig.jpg,22,,,,,,,,,0,22,22,22,,,,,,,,,,,,,,,-7.236328125,-4.86328125,0,0,1,8.02636694908,,,2015_Sep_08_1516,K,facesParametric,2,59.6345127144,
./stim/MorphF6_02_orig.jpg,23,,,,,,,,,0,23,23,23,,,,,,,,,,,,,,,-7.236328125,-4.86328125,0,0,1,0.853585004807,,,2015_Sep_08_1516,K,facesParametric,2,59.6345127144,
./stim/MorphM2_08_orig.jpg,24,,,,,,,,,0,24,24,24,,,,,,,,,,,,,,,-7.177734375,-4.86328125,1,0,0,1.0036740303,,,2015_Sep_08_1516,K,facesParametric,2,59.6345127144,
./stim/MorphF9_05_orig.jpg,25,,,,,,,,,0,25,25,25,,,,,,,,,,,,,,,-7.119140625,-4.8046875,0,0,1,3.09977698326,,,2015_Sep_08_1516,K,facesParametric,2,59.6345127144,
./stim/MorphF1_08_orig.jpg,26,,,,,,,,,0,26,26,26,,,,,,,,,,,,,,,-7.119140625,-4.8046875,1,0,0,1.28882408142,,,2015_Sep_08_1516,K,facesParametric,2,59.6345127144,
./stim/MorphF6_09_orig.jpg,27,,,,,,,,,0,27,27,27,,,,,,,,,,,,,,,-7.20703125,-4.921875,1,0,0,1.11951494217,,,2015_Sep_08_1516,K,facesParametric,2,59.6345127144,
./stim/MorphF2_09_orig.jpg,28,,,,,,,,,0,28,28,28,,,,,,,,,,,,,,,-7.177734375,-4.892578125,1,0,0,0.735746860504,,,2015_Sep_08_1516,K,facesParametric,2,59.6345127144,
./stim/MorphF1_04_orig.jpg,29,,,,,,,,,0,29,29,29,,,,,,,,,,,,,,,-6.884765625,-4.951171875,0,0,1,8.96333503723,,,2015_Sep_08_1516,K,facesParametric,2,59.6345127144,
./stim/MorphM4_06_orig.jpg,30,,,,,,,,,0,30,30,30,,,,,,,,,,,,,,,-6.943359375,-4.98046875,1,0,0,0.853348970413,,,2015_Sep_08_1516,K,facesParametric,2,59.6345127144,
./stim/MorphM5_04_orig.jpg,31,,,,,,,,,0,31,31,31,,,,,,,,,,,,,,,-5.419921875,-4.8046875,0,0,1,4.79163503647,,,2015_Sep_08_1516,K,facesParametric,2,59.6345127144,
./stim/MorphF10_02_orig.jpg,32,,,,,,,,,0,32,32,32,,,,,,,,,,,,,,,-5.15625,-4.51171875,1,0,0,1.00455999374,,,2015_Sep_08_1516,K,facesParametric,2,59.6345127144,
./stim/MorphF6_05_orig.jpg,33,,,,,,,,,0,33,33,33,,,,,,,,,,,,,,,-5.0390625,-4.248046875,1,0,0,1.05228805542,,,2015_Sep_08_1516,K,facesParametric,2,59.6345127144,
./stim/MorphF8_01_orig.jpg,34,,,,,,,,,0,34,34,34,,,,,,,,,,,,,,,-5.0390625,-4.189453125,0,0,1,0.851861953735,,,2015_Sep_08_1516,K,facesParametric,2,59.6345127144,
./stim/MorphM2_06_orig.jpg,35,,,,,,,,,0,35,35,35,,,,,,,,,,,,,,,-5.0390625,-4.189453125,1,0,0,0.904379844666,,,2015_Sep_08_1516,K,facesParametric,2,59.6345127144,
./stim/MorphM9_02_orig.jpg,36,,,,,,,,,0,36,36,36,,,,,,,,,,,,,,,-4.921875,-4.21875,0,0,1,1.5718460083,,,2015_Sep_08_1516,K,facesParametric,2,59.6345127144,
./stim/MorphM5_03_orig.jpg,37,,,,,,,,,0,37,37,37,,,,,,,,,,,,,,,-4.921875,-4.21875,0,0,1,2.29386496544,,,2015_Sep_08_1516,K,facesParametric,2,59.6345127144,
./stim/MorphM4_01_orig.jpg,38,,,,,,,,,0,38,38,38,,,,,,,,,,,,,,,-4.892578125,-4.248046875,0,0,1,0.837673902512,,,2015_Sep_08_1516,K,facesParametric,2,59.6345127144,
./stim/MorphM6_05_orig.jpg,39,,,,,,,,,0,39,39,39,,,,,,,,,,,,,,,-4.833984375,-4.27734375,1,0,0,2.84686303139,,,2015_Sep_08_1516,K,facesParametric,2,59.6345127144,
./stim/MorphF4_02_orig.jpg,40,,,,,,,,,0,40,40,40,,,,,,,,,,,,,,,-4.74609375,-4.3359375,0,0,1,1.08847308159,,,2015_Sep_08_1516,K,facesParametric,2,59.6345127144,
./stim/MorphM9_03_orig.jpg,41,,,,,,,,,0,41,41,41,,,,,,,,,,,,,,,-4.716796875,-4.3359375,0,0,1,1.72267603874,,,2015_Sep_08_1516,K,facesParametric,2,59.6345127144,
./stim/MorphF4_06_orig.jpg,42,,,,,,,,,0,42,42,42,,,,,,,,,,,,,,,-4.716796875,-4.3359375,1,0,0,0.937420129776,,,2015_Sep_08_1516,K,facesParametric,2,59.6345127144,
./stim/MorphF5_00_orig.jpg,43,,,,,,,,,0,43,43,43,,,,,,,,,,,,,,,-4.599609375,-4.306640625,0,0,1,1.02119493484,,,2015_Sep_08_1516,K,facesParametric,2,59.6345127144,
./stim/MorphM7_04_orig.jpg,44,,,,,,,,,0,44,44,44,,,,,,,,,,,,,,,-4.5703125,-4.306640625,1,0,0,2.00938200951,,,2015_Sep_08_1516,K,facesParametric,2,59.6345127144,
./stim/MorphF1_07_orig.jpg,45,,,,,,,,,0,45,45,45,,,,,,,,,,,,,,,-4.39453125,-4.248046875,1,0,0,0.987437009811,,,2015_Sep_08_1516,K,facesParametric,2,59.6345127144,
./stim/MorphF7_02_orig.jpg,46,,,,,,,,,0,46,46,46,,,,,,,,,,,,,,,-5.2734375,-4.775390625,0,0,1,13.5414910316,,,2015_Sep_08_1516,K,facesParametric,2,59.6345127144,
./stim/MorphF3_08_orig.jpg,47,,,,,,,,,0,47,47,47,,,,,,,,,,,,,,,-5.2734375,-4.62890625,1,0,0,1.10395598412,,,2015_Sep_08_1516,K,facesParametric,2,59.6345127144,
./stim/MorphM4_03_orig.jpg,48,,,,,,,,,0,48,48,48,,,,,,,,,,,,,,,-5.2734375,-4.51171875,0,0,1,1.89197707176,,,2015_Sep_08_1516,K,facesParametric,2,59.6345127144,
./stim/MorphM7_05_orig.jpg,49,,,,,,,,,0,49,49,49,,,,,,,,,,,,,,,-5.2734375,-4.51171875,1,0,0,0.819917917252,,,2015_Sep_08_1516,K,facesParametric,2,59.6345127144,
./stim/MorphM4_08_orig.jpg,50,,,,,,,,,0,50,50,50,,,,,,,,,,,,,,,-5.126953125,-4.3359375,1,0,0,1.75808811188,,,2015_Sep_08_1516,K,facesParametric,2,59.6345127144,
./stim/MorphM2_03_orig.jpg,51,,,,,,,,,0,51,51,51,,,,,,,,,,,,,,,-5.0390625,-4.3359375,0,0,1,1.69174003601,,,2015_Sep_08_1516,K,facesParametric,2,59.6345127144,
./stim/MorphF3_10_orig.jpg,52,,,,,,,,,0,52,52,52,,,,,,,,,,,,,,,-5.0390625,-4.16015625,1,0,0,5.21131086349,,,2015_Sep_08_1516,K,facesParametric,2,59.6345127144,
./stim/MorphF6_08_orig.jpg,53,,,,,,,,,0,53,53,53,,,,,,,,,,,,,,,-4.951171875,-4.16015625,1,0,0,0.936236143112,,,2015_Sep_08_1516,K,facesParametric,2,59.6345127144,
./stim/MorphM3_10_orig.jpg,54,,,,,,,,,0,54,54,54,,,,,,,,,,,,,,,-4.98046875,-3.92578125,1,0,0,2.63010382652,,,2015_Sep_08_1516,K,facesParametric,2,59.6345127144,
./stim/MorphM10_03_orig.jpg,55,,,,,,,,,0,55,55,55,,,,,,,,,,,,,,,-4.98046875,-3.896484375,0,0,1,1.85915279388,,,2015_Sep_08_1516,K,facesParametric,2,59.6345127144,
./stim/MorphF2_03_orig.jpg,56,,,,,,,,,0,56,56,56,,,,,,,,,,,,,,,-5.009765625,-3.80859375,1,0,0,3.3171479702,,,2015_Sep_08_1516,K,facesParametric,2,59.6345127144,
./stim/MorphM7_10_orig.jpg,57,,,,,,,,,0,57,57,57,,,,,,,,,,,,,,,-5.302734375,-3.720703125,1,0,0,1.43840885162,,,2015_Sep_08_1516,K,facesParametric,2,59.6345127144,
./stim/MorphF8_00_orig.jpg,58,,,,,,,,,0,58,58,58,,,,,,,,,,,,,,,-5.390625,-3.515625,0,0,1,1.15506100655,,,2015_Sep_08_1516,K,facesParametric,2,59.6345127144,
./stim/MorphF7_07_orig.jpg,59,,,,,,,,,0,59,59,59,,,,,,,,,,,,,,,-5.390625,-3.515625,1,0,0,0.954287052155,,,2015_Sep_08_1516,K,facesParametric,2,59.6345127144,
./stim/MorphM8_09_orig.jpg,60,,,,,,,,,0,60,60,60,,,,,,,,,,,,,,,-5.390625,-3.515625,1,0,0,0.786695957184,,,2015_Sep_08_1516,K,facesParametric,2,59.6345127144,
./stim/MorphF5_08_orig.jpg,61,,,,,,,,,0,61,61,61,,,,,,,,,,,,,,,-5.390625,-3.515625,1,0,0,0.720244884491,,,2015_Sep_08_1516,K,facesParametric,2,59.6345127144,
./stim/MorphM8_00_orig.jpg,62,,,,,,,,,0,62,62,62,,,,,,,,,,,,,,,-5.361328125,-3.486328125,0,0,1,1.72391295433,,,2015_Sep_08_1516,K,facesParametric,2,59.6345127144,
./stim/MorphF4_04_orig.jpg,63,,,,,,,,,0,63,63,63,,,,,,,,,,,,,,,-5.126953125,-3.45703125,0,0,1,5.64554190636,,,2015_Sep_08_1516,K,facesParametric,2,59.6345127144,
./stim/MorphM8_05_orig.jpg,64,,,,,,,,,0,64,64,64,,,,,,,,,,,,,,,-5.126953125,-3.45703125,1,0,0,1.4058701992,,,2015_Sep_08_1516,K,facesParametric,2,59.6345127144,
./stim/MorphM1_09_orig.jpg,65,,,,,,,,,0,65,65,65,,,,,,,,,,,,,,,-5.068359375,-3.251953125,1,0,0,1.59096693993,,,2015_Sep_08_1516,K,facesParametric,2,59.6345127144,
./stim/MorphF8_04_orig.jpg,66,,,,,,,,,0,66,66,66,,,,,,,,,,,,,,,-5.888671875,-2.4609375,0,0,1,1.89140582085,,,2015_Sep_08_1516,K,facesParametric,2,59.6345127144,
./stim/MorphM10_07_orig.jpg,67,,,,,,,,,0,67,67,67,,,,,,,,,,,,,,,-5.80078125,-2.373046875,1,0,0,0.970486164093,,,2015_Sep_08_1516,K,facesParametric,2,59.6345127144,
./stim/MorphM5_05_orig.jpg,68,,,,,,,,,0,68,68,68,,,,,,,,,,,,,,,-5.33203125,-1.875,0,0,1,1.94319105148,,,2015_Sep_08_1516,K,facesParametric,2,59.6345127144,
./stim/MorphM3_02_orig.jpg,69,,,,,,,,,0,69,69,69,,,,,,,,,,,,,,,-5.361328125,-1.845703125,0,0,1,4.05505609512,,,2015_Sep_08_1516,K,facesParametric,2,59.6345127144,
./stim/MorphF2_08_orig.jpg,70,,,,,,,,,0,70,70,70,,,,,,,,,,,,,,,-5.361328125,-1.845703125,1,0,0,0.869699954987,,,2015_Sep_08_1516,K,facesParametric,2,59.6345127144,
./stim/MorphM5_00_orig.jpg,71,,,,,,,,,0,71,71,71,,,,,,,,,,,,,,,-5.244140625,-1.69921875,0,0,1,3.23295998573,,,2015_Sep_08_1516,K,facesParametric,2,59.6345127144,
./stim/MorphF6_07_orig.jpg,72,,,,,,,,,0,72,72,72,,,,,,,,,,,,,,,-5.302734375,-1.669921875,1,0,0,0.786363124847,,,2015_Sep_08_1516,K,facesParametric,2,59.6345127144,
./stim/MorphM7_07_orig.jpg,73,,,,,,,,,0,73,73,73,,,,,,,,,,,,,,,-5.2734375,-1.318359375,1,0,0,1.33948397636,,,2015_Sep_08_1516,K,facesParametric,2,59.6345127144,
./stim/MorphM4_05_orig.jpg,74,,,,,,,,,0,74,74,74,,,,,,,,,,,,,,,-4.833984375,-1.376953125,1,0,0,6.21542406082,,,2015_Sep_08_1516,K,facesParametric,2,59.6345127144,
./stim/MorphF1_02_orig.jpg,75,,,,,,,,,0,75,75,75,,,,,,,,,,,,,,,-5.009765625,-1.201171875,0,0,1,1.44058609009,,,2015_Sep_08_1516,K,facesParametric,2,59.6345127144,
./stim/MorphM1_03_orig.jpg,76,,,,,,,,,0,76,76,76,,,,,,,,,,,,,,,-5.185546875,-1.0546875,0,0,1,1.12070393562,,,2015_Sep_08_1516,K,facesParametric,2,59.6345127144,
./stim/MorphM6_01_orig.jpg,77,,,,,,,,,0,77,77,77,,,,,,,,,,,,,,,-5.185546875,-1.0546875,0,0,1,0.987799882889,,,2015_Sep_08_1516,K,facesParametric,2,59.6345127144,
./stim/MorphF5_05_orig.jpg,78,,,,,,,,,0,78,78,78,,,,,,,,,,,,,,,-5.21484375,-1.025390625,1,0,0,1.1545779705,,,2015_Sep_08_1516,K,facesParametric,2,59.6345127144,
./stim/MorphF4_10_orig.jpg,79,,,,,,,,,0,79,79,79,,,,,,,,,,,,,,,-5.185546875,-0.966796875,1,0,0,0.685297966003,,,2015_Sep_08_1516,K,facesParametric,2,59.6345127144,
./stim/MorphF9_03_orig.jpg,80,,,,,,,,,0,80,80,80,,,,,,,,,,,,,,,-5.126953125,-0.703125,0,0,1,1.44039487839,,,2015_Sep_08_1516,K,facesParametric,2,59.6345127144,
./stim/MorphM8_04_orig.jpg,81,,,,,,,,,0,81,81,81,,,,,,,,,,,,,,,-6.15234375,-1.201171875,1,0,0,5.44430994987,,,2015_Sep_08_1516,K,facesParametric,2,59.6345127144,
./stim/MorphF2_04_orig.jpg,82,,,,,,,,,0,82,82,82,,,,,,,,,,,,,,,-6.09375,-0.99609375,1,0,0,2.81412911415,,,2015_Sep_08_1516,K,facesParametric,2,59.6345127144,
./stim/MorphM10_01_orig.jpg,83,,,,,,,,,0,83,83,83,,,,,,,,,,,,,,,-5.80078125,-0.703125,0,0,1,2.59661197662,,,2015_Sep_08_1516,K,facesParametric,2,59.6345127144,
./stim/MorphF6_10_orig.jpg,84,,,,,,,,,0,84,84,84,,,,,,,,,,,,,,,-5.712890625,-0.703125,1,0,0,1.55585885048,,,2015_Sep_08_1516,K,facesParametric,2,59.6345127144,
./stim/MorphF10_00_orig.jpg,85,,,,,,,,,0,85,85,85,,,,,,,,,,,,,,,-5.537109375,-0.908203125,1,0,0,4.54050779343,,,2015_Sep_08_1516,K,facesParametric,2,59.6345127144,
./stim/MorphM10_04_orig.jpg,86,,,,,,,,,0,86,86,86,,,,,,,,,,,,,,,-5.5078125,-0.87890625,1,0,0,4.06958508492,,,2015_Sep_08_1516,K,facesParametric,2,59.6345127144,
./stim/MorphM4_07_orig.jpg,87,,,,,,,,,0,87,87,87,,,,,,,,,,,,,,,-5.5078125,-0.9375,1,0,0,1.64116120338,,,2015_Sep_08_1516,K,facesParametric,2,59.6345127144,
./stim/MorphF10_07_orig.jpg,88,,,,,,,,,0,88,88,88,,,,,,,,,,,,,,,-5.537109375,-0.966796875,1,0,0,0.735471010208,,,2015_Sep_08_1516,K,facesParametric,2,59.6345127144,
./stim/MorphF8_02_orig.jpg,89,,,,,,,,,0,89,89,89,,,,,,,,,,,,,,,-5.68359375,-0.966796875,0,0,1,5.3780670166,,,2015_Sep_08_1516,K,facesParametric,2,59.6345127144,
./stim/MorphM10_06_orig.jpg,90,,,,,,,,,0,90,90,90,,,,,,,,,,,,,,,-5.654296875,-0.9375,1,0,0,0.853193044662,,,2015_Sep_08_1516,K,facesParametric,2,59.6345127144,
./stim/MorphF6_06_orig.jpg,91,,,,,,,,,0,91,91,91,,,,,,,,,,,,,,,-5.654296875,-0.908203125,1,0,0,0.920282125473,,,2015_Sep_08_1516,K,facesParametric,2,59.6345127144,
./stim/MorphF2_07_orig.jpg,92,,,,,,,,,0,92,92,92,,,,,,,,,,,,,,,-5.830078125,-1.025390625,1,0,0,0.836574077606,,,2015_Sep_08_1516,K,facesParametric,2,59.6345127144,
./stim/MorphF3_04_orig.jpg,93,,,,,,,,,0,93,93,93,,,,,,,,,,,,,,,-6.15234375,-1.083984375,0,0,1,2.83019089699,,,2015_Sep_08_1516,K,facesParametric,2,59.6345127144,
./stim/MorphM10_10_orig.jpg,94,,,,,,,,,0,94,94,94,,,,,,,,,,,,,,,-6.298828125,-1.025390625,1,0,0,1.17146205902,,,2015_Sep_08_1516,K,facesParametric,2,59.6345127144,
./stim/MorphF3_06_orig.jpg,95,,,,,,,,,0,95,95,95,,,,,,,,,,,,,,,-6.298828125,-1.025390625,1,0,0,1.84169888496,,,2015_Sep_08_1516,K,facesParametric,2,59.6345127144,
./stim/MorphM8_06_orig.jpg,96,,,,,,,,,0,96,96,96,,,,,,,,,,,,,,,-6.298828125,-1.025390625,1,0,0,0.920284032822,,,2015_Sep_08_1516,K,facesParametric,2,59.6345127144,
./stim/MorphM4_02_orig.jpg,97,,,,,,,,,0,97,97,97,,,,,,,,,,,,,,,-6.328125,-0.966796875,0,0,1,1.39012718201,,,2015_Sep_08_1516,K,facesParametric,2,59.6345127144,
./stim/MorphF9_08_orig.jpg,98,,,,,,,,,0,98,98,98,,,,,,,,,,,,,,,-6.357421875,-0.9375,1,0,0,1.67492103577,,,2015_Sep_08_1516,K,facesParametric,2,59.6345127144,
./stim/MorphF3_07_orig.jpg,99,,,,,,,,,0,99,99,99,,,,,,,,,,,,,,,-6.38671875,-0.908203125,1,0,0,1.23857998848,,,2015_Sep_08_1516,K,facesParametric,2,59.6345127144,
./stim/MorphM10_09_orig.jpg,100,,,,,,,,,0,100,100,100,,,,,,,,,,,,,,,-6.38671875,-0.849609375,1,0,0,0.871011972427,,,2015_Sep_08_1516,K,facesParametric,2,59.6345127144,
./stim/MorphM4_04_orig.jpg,101,,,,,,,,,0,101,101,101,,,,,,,,,,,,,,,-6.38671875,-0.849609375,1,0,0,5.34486603737,,,2015_Sep_08_1516,K,facesParametric,2,59.6345127144,
./stim/MorphM6_07_orig.jpg,102,,,,,,,,,0,102,102,102,,,,,,,,,,,,,,,-6.474609375,-0.703125,1,0,0,3.1478497982,,,2015_Sep_08_1516,K,facesParametric,2,59.6345127144,
./stim/MorphF4_01_orig.jpg,103,,,,,,,,,0,103,103,103,,,,,,,,,,,,,,,-6.591796875,-0.76171875,0,0,1,1.02106118202,,,2015_Sep_08_1516,K,facesParametric,2,59.6345127144,
./stim/MorphF10_06_orig.jpg,104,,,,,,,,,0,104,104,104,,,,,,,,,,,,,,,-6.650390625,-0.673828125,1,0,0,4.97450184822,,,2015_Sep_08_1516,K,facesParametric,2,59.6345127144,
./stim/MorphM3_00_orig.jpg,105,,,,,,,,,0,105,105,105,,,,,,,,,,,,,,,-6.650390625,-0.498046875,0,0,1,5.59629201889,,,2015_Sep_08_1516,K,facesParametric,2,59.6345127144,
./stim/MorphF7_08_orig.jpg,106,,,,,,,,,0,106,106,106,,,,,,,,,,,,,,,-6.650390625,-0.498046875,1,0,0,1.25497889519,,,2015_Sep_08_1516,K,facesParametric,2,59.6345127144,
./stim/MorphF1_06_orig.jpg,107,,,,,,,,,0,107,107,107,,,,,,,,,,,,,,,-6.650390625,-0.556640625,0,0,1,3.0651910305,,,2015_Sep_08_1516,K,facesParametric,2,59.6345127144,
./stim/MorphM7_02_orig.jpg,108,,,,,,,,,0,108,108,108,,,,,,,,,,,,,,,-6.650390625,-0.556640625,0,0,1,2.66280293465,,,2015_Sep_08_1516,K,facesParametric,2,59.6345127144,
./stim/MorphM5_02_orig.jpg,109,,,,,,,,,0,109,109,109,,,,,,,,,,,,,,,-6.708984375,-0.64453125,0,0,1,0.836639881134,,,2015_Sep_08_1516,K,facesParametric,2,59.6345127144,
./stim/MorphM6_08_orig.jpg,110,,,,,,,,,0,110,110,110,,,,,,,,,,,,,,,-6.6796875,-0.791015625,1,0,0,1.15570497513,,,2015_Sep_08_1516,K,facesParametric,2,59.6345127144,
./stim/MorphF6_01_orig.jpg,111,,,,,,,,,0,111,111,111,,,,,,,,,,,,,,,-6.650390625,-0.732421875,0,0,1,1.00368714333,,,2015_Sep_08_1516,K,facesParametric,2,59.6345127144,
./stim/MorphM3_08_orig.jpg,112,,,,,,,,,0,112,112,112,,,,,,,,,,,,,,,-6.38671875,-1.0546875,1,0,0,2.79742002487,,,2015_Sep_08_1516,K,facesParametric,2,59.6345127144,
./stim/MorphF2_06_orig.jpg,113,,,,,,,,,0,113,113,113,,,,,,,,,,,,,,,-6.15234375,-0.966796875,1,0,0,1.12072300911,,,2015_Sep_08_1516,K,facesParametric,2,59.6345127144,
./stim/MorphM9_05_orig.jpg,114,,,,,,,,,0,114,114,114,,,,,,,,,,,,,,,-6.064453125,-0.966796875,1,0,0,4.33954405785,,,2015_Sep_08_1516,K,facesParametric,2,59.6345127144,
./stim/MorphM7_06_orig.jpg,115,,,,,,,,,0,115,115,115,,,,,,,,,,,,,,,-5.91796875,-0.9375,1,0,0,2.24428796768,,,2015_Sep_08_1516,K,facesParametric,2,59.6345127144,
./stim/MorphF7_00_orig.jpg,116,,,,,,,,,0,116,116,116,,,,,,,,,,,,,,,-5.947265625,-0.908203125,0,0,1,1.64128899574,,,2015_Sep_08_1516,K,facesParametric,2,59.6345127144,
./stim/MorphM7_00_orig.jpg,117,,,,,,,,,0,117,117,117,,,,,,,,,,,,,,,-5.9765625,-0.9375,0,0,1,1.45597910881,,,2015_Sep_08_1516,K,facesParametric,2,59.6345127144,
./stim/MorphM6_02_orig.jpg,118,,,,,,,,,0,118,118,118,,,,,,,,,,,,,,,-5.947265625,-0.99609375,0,0,1,4.18863010406,,,2015_Sep_08_1516,K,facesParametric,2,59.6345127144,
./stim/MorphF7_04_orig.jpg,119,,,,,,,,,0,119,119,119,,,,,,,,,,,,,,,-5.9765625,-1.025390625,0,0,1,1.40572309494,,,2015_Sep_08_1516,K,facesParametric,2,59.6345127144,
./stim/MorphF4_00_orig.jpg,120,,,,,,,,,0,120,120,120,,,,,,,,,,,,,,,-6.123046875,-1.259765625,0,0,1,2.16093111038,,,2015_Sep_08_1516,K,facesParametric,2,59.6345127144,
./stim/MorphF9_07_orig.jpg,121,,,,,,,,,0,121,121,121,,,,,,,,,,,,,,,-6.064453125,-1.142578125,1,0,0,2.6631231308,,,2015_Sep_08_1516,K,facesParametric,2,59.6345127144,
./stim/MorphF4_05_orig.jpg,122,,,,,,,,,0,122,122,122,,,,,,,,,,,,,,,-6.064453125,-1.142578125,0,0,1,1.70846390724,,,2015_Sep_08_1516,K,facesParametric,2,59.6345127144,
./stim/MorphF5_10_orig.jpg,123,,,,,,,,,0,123,123,123,,,,,,,,,,,,,,,-6.064453125,-1.142578125,1,0,0,1.42202615738,,,2015_Sep_08_1516,K,facesParametric,2,59.6345127144,
./stim/MorphM9_06_orig.jpg,124,,,,,,,,,0,124,124,124,,,,,,,,,,,,,,,-6.064453125,-1.142578125,1,0,0,1.08638477325,,,2015_Sep_08_1516,K,facesParametric,2,59.6345127144,
./stim/MorphF1_00_orig.jpg,125,,,,,,,,,0,125,125,125,,,,,,,,,,,,,,,-5.9765625,-1.142578125,0,0,1,2.11053204536,,,2015_Sep_08_1516,K,facesParametric,2,59.6345127144,
./stim/MorphF5_07_orig.jpg,126,,,,,,,,,0,126,126,126,,,,,,,,,,,,,,,-5.947265625,-1.171875,1,0,0,0.920555830002,,,2015_Sep_08_1516,K,facesParametric,2,59.6345127144,
./stim/MorphM6_06_orig.jpg,127,,,,,,,,,0,127,127,127,,,,,,,,,,,,,,,-6.943359375,-1.34765625,1,0,0,4.0380589962,,,2015_Sep_08_1516,K,facesParametric,2,59.6345127144,
./stim/MorphF2_00_orig.jpg,128,,,,,,,,,0,128,128,128,,,,,,,,,,,,,,,-7.001953125,-1.376953125,1,0,0,1.29009318352,,,2015_Sep_08_1516,K,facesParametric,2,59.6345127144,
./stim/MorphM6_03_orig.jpg,129,,,,,,,,,0,129,129,129,,,,,,,,,,,,,,,-6.943359375,-1.376953125,0,0,1,1.32200407982,,,2015_Sep_08_1516,K,facesParametric,2,59.6345127144,
./stim/MorphM3_04_orig.jpg,130,,,,,,,,,0,130,130,130,,,,,,,,,,,,,,,-6.943359375,-1.376953125,0,0,1,1.48837804794,,,2015_Sep_08_1516,K,facesParametric,2,59.6345127144,
./stim/MorphM8_01_orig.jpg,131,,,,,,,,,0,131,131,131,,,,,,,,,,,,,,,-6.943359375,-1.376953125,1,0,0,2.56083583832,,,2015_Sep_08_1516,K,facesParametric,2,59.6345127144,
./stim/MorphM1_06_orig.jpg,132,,,,,,,,,0,132,132,132,,,,,,,,,,,,,,,-6.6796875,-1.376953125,0,0,1,2.94683480263,,,2015_Sep_08_1516,K,facesParametric,2,59.6345127144,
./stim/MorphM2_09_orig.jpg,133,,,,,,,,,0,133,133,133,,,,,,,,,,,,,,,-6.38671875,-1.376953125,1,0,0,2.46252703667,,,2015_Sep_08_1516,K,facesParametric,2,59.6345127144,
./stim/MorphF2_01_orig.jpg,134,,,,,,,,,0,134,134,134,,,,,,,,,,,,,,,-6.005859375,-1.46484375,0,0,1,6.24994516373,,,2015_Sep_08_1516,K,facesParametric,2,59.6345127144,
./stim/MorphM5_01_orig.jpg,135,,,,,,,,,0,135,135,135,,,,,,,,,,,,,,,-6.005859375,-1.46484375,0,0,1,1.60744595528,,,2015_Sep_08_1516,K,facesParametric,2,59.6345127144,
./stim/MorphF8_03_orig.jpg,136,,,,,,,,,0,136,136,136,,,,,,,,,,,,,,,-6.005859375,-1.46484375,0,0,1,2.11077213287,,,2015_Sep_08_1516,K,facesParametric,2,59.6345127144,
./stim/MorphF10_03_orig.jpg,137,,,,,,,,,0,137,137,137,,,,,,,,,,,,,,,-6.005859375,-1.46484375,1,0,0,2.31161499023,,,2015_Sep_08_1516,K,facesParametric,2,59.6345127144,
./stim/MorphM7_09_orig.jpg,138,,,,,,,,,0,138,138,138,,,,,,,,,,,,,,,-5.771484375,-1.69921875,1,0,0,1.70798397064,,,2015_Sep_08_1516,K,facesParametric,2,59.6345127144,
./stim/MorphM9_00_orig.jpg,139,,,,,,,,,0,139,139,139,,,,,,,,,,,,,,,-6.064453125,-2.16796875,0,0,1,1.35436415672,,,2015_Sep_08_1516,K,facesParametric,2,59.6345127144,
./stim/MorphM3_05_orig.jpg,140,,,,,,,,,0,140,140,140,,,,,,,,,,,,,,,-6.26953125,-1.9921875,0,0,1,3.71964693069,,,2015_Sep_08_1516,K,facesParametric,2,59.6345127144,
./stim/MorphM1_07_orig.jpg,141,,,,,,,,,0,141,141,141,,,,,,,,,,,,,,,-6.2109375,-2.138671875,0,0,1,2.22818994522,,,2015_Sep_08_1516,K,facesParametric,2,59.6345127144,
./stim/MorphM9_07_orig.jpg,142,,,,,,,,,0,142,142,142,,,,,,,,,,,,,,,-6.240234375,-2.080078125,1,0,0,3.68494701385,,,2015_Sep_08_1516,K,facesParametric,2,59.6345127144,
./stim/MorphF3_03_orig.jpg,143,,,,,,,,,0,143,143,143,,,,,,,,,,,,,,,-6.064453125,-2.138671875,0,0,1,4.47317910194,,,2015_Sep_08_1516,K,facesParametric,2,59.6345127144,
./stim/MorphF4_07_orig.jpg,144,,,,,,,,,0,144,144,144,,,,,,,,,,,,,,,-6.03515625,-2.109375,1,0,0,1.03808808327,,,2015_Sep_08_1516,K,facesParametric,2,59.6345127144,
./stim/MorphM2_10_orig.jpg,145,,,,,,,,,0,145,145,145,,,,,,,,,,,,,,,-6.03515625,-1.962890625,1,0,0,0.702432155609,,,2015_Sep_08_1516,K,facesParametric,2,59.6345127144,
./stim/MorphF7_06_orig.jpg,146,,,,,,,,,0,146,146,146,,,,,,,,,,,,,,,-6.03515625,-1.962890625,1,0,0,0.801589012146,,,2015_Sep_08_1516,K,facesParametric,2,59.6345127144,
./stim/MorphM8_02_orig.jpg,147,,,,,,,,,0,147,147,147,,,,,,,,,,,,,,,-6.03515625,-1.962890625,1,0,0,1.37310910225,,,2015_Sep_08_1516,K,facesParametric,2,59.6345127144,
./stim/MorphF3_05_orig.jpg,148,,,,,,,,,0,148,148,148,,,,,,,,,,,,,,,-5.9765625,-1.787109375,0,0,1,3.14887213707,,,2015_Sep_08_1516,K,facesParametric,2,59.6345127144,
./stim/MorphF6_04_orig.jpg,149,,,,,,,,,0,149,149,149,,,,,,,,,,,,,,,-5.947265625,-1.962890625,0,0,1,1.77504706383,,,2015_Sep_08_1516,K,facesParametric,2,59.6345127144,
./stim/MorphM4_10_orig.jpg,150,,,,,,,,,0,150,150,150,,,,,,,,,,,,,,,-5.947265625,-1.962890625,1,0,0,1.65782594681,,,2015_Sep_08_1516,K,facesParametric,2,59.6345127144,
./stim/MorphF10_08_orig.jpg,151,,,,,,,,,0,151,151,151,,,,,,,,,,,,,,,-5.947265625,-1.962890625,1,0,0,0.702609062195,,,2015_Sep_08_1516,K,facesParametric,2,59.6345127144,
./stim/MorphF5_02_orig.jpg,152,,,,,,,,,0,152,152,152,,,,,,,,,,,,,,,-6.005859375,-1.9921875,0,0,1,1.02106690407,,,2015_Sep_08_1516,K,facesParametric,2,59.6345127144,
./stim/MorphF1_05_orig.jpg,153,,,,,,,,,0,153,153,153,,,,,,,,,,,,,,,-6.09375,-2.05078125,0,0,1,1.7905049324,,,2015_Sep_08_1516,K,facesParametric,2,59.6345127144,
./stim/MorphF9_09_orig.jpg,154,,,,,,,,,0,154,154,154,,,,,,,,,,,,,,,-6.123046875,-2.2265625,1,0,0,0.987198114395,,,2015_Sep_08_1516,K,facesParametric,2,59.6345127144,
./stim/MorphF5_03_orig.jpg,155,,,,,,,,,0,155,155,155,,,,,,,,,,,,,,,-6.09375,-2.255859375,0,0,1,1.74207901955,,,2015_Sep_08_1516,K,facesParametric,2,59.6345127144,
./stim/MorphF4_03_orig.jpg,156,,,,,,,,,0,156,156,156,,,,,,,,,,,,,,,-6.09375,-2.255859375,0,0,1,1.25548505783,,,2015_Sep_08_1516,K,facesParametric,2,59.6345127144,
./stim/MorphF5_01_orig.jpg,157,,,,,,,,,0,157,157,157,,,,,,,,,,,,,,,-6.09375,-2.255859375,0,0,1,0.870621919632,,,2015_Sep_08_1516,K,facesParametric,2,59.6345127144,
./stim/MorphM1_01_orig.jpg,158,,,,,,,,,0,158,158,158,,,,,,,,,,,,,,,-6.15234375,-2.255859375,0,0,1,1.84207177162,,,2015_Sep_08_1516,K,facesParametric,2,59.6345127144,
./stim/MorphF9_02_orig.jpg,159,,,,,,,,,0,159,159,159,,,,,,,,,,,,,,,-11.103515625,-0.52734375,1,0,0,33.7193939686,,,2015_Sep_08_1516,K,facesParametric,2,59.6345127144,
./stim/MorphF2_02_orig.jpg,160,,,,,,,,,0,160,160,160,,,,,,,,,,,,,,,-11.25,-0.3515625,1,0,0,1.74146103859,,,2015_Sep_08_1516,K,facesParametric,2,59.6345127144,
./stim/MorphM8_10_orig.jpg,161,,,,,,,,,0,161,161,161,,,,,,,,,,,,,,,-11.19140625,-0.29296875,1,0,0,0.701059103012,,,2015_Sep_08_1516,K,facesParametric,2,59.6345127144,
./stim/MorphM1_10_orig.jpg,162,,,,,,,,,0,162,162,162,,,,,,,,,,,,,,,-12.71484375,-0.146484375,1,0,0,11.1783299446,,,2015_Sep_08_1516,K,facesParametric,2,59.6345127144,
./stim/MorphF10_04_orig.jpg,163,,,,,,,,,0,163,163,163,,,,,,,,,,,,,,,-11.19140625,0.17578125,1,0,0,4.52057409286,,,2015_Sep_08_1516,K,facesParametric,2,59.6345127144,
./stim/MorphF3_00_orig.jpg,164,,,,,,,,,0,164,164,164,,,,,,,,,,,,,,,-11.396484375,-0.146484375,0,0,1,1.74117302895,,,2015_Sep_08_1516,K,facesParametric,2,59.6345127144,
./stim/MorphM2_07_orig.jpg,165,,,,,,,,,0,165,165,165,,,,,,,,,,,,,,,-11.66015625,-0.205078125,1,0,0,4.23898506165,,,2015_Sep_08_1516,K,facesParametric,2,59.6345127144,
./stim/MorphF7_05_orig.jpg,166,,,,,,,,,0,166,166,166,,,,,,,,,,,,,,,-11.103515625,0.5859375,1,0,0,6.09845995903,,,2015_Sep_08_1516,K,facesParametric,2,59.6345127144,
./stim/MorphF6_03_orig.jpg,167,,,,,,,,,0,167,167,167,,,,,,,,,,,,,,,-11.103515625,1.11328125,0,0,1,1.42118000984,,,2015_Sep_08_1516,K,facesParametric,2,59.6345127144,
./stim/MorphF3_02_orig.jpg,168,,,,,,,,,0,168,168,168,,,,,,,,,,,,,,,-12.65625,-0.146484375,0,0,1,15.3843631744,,,2015_Sep_08_1516,K,facesParametric,2,59.6345127144,
./stim/MorphF1_01_orig.jpg,169,,,,,,,,,0,169,169,169,,,,,,,,,,,,,,,-14.765625,-0.29296875,0,0,1,18.7195198536,,,2015_Sep_08_1516,K,facesParametric,2,59.6345127144,
./stim/MorphM1_04_orig.jpg,170,,,,,,,,,0,170,170,170,,,,,,,,,,,,,,,-14.970703125,0.908203125,0,0,1,4.89183783531,,,2015_Sep_08_1516,K,facesParametric,2,59.6345127144,
./stim/MorphF4_09_orig.jpg,171,,,,,,,,,0,171,171,171,,,,,,,,,,,,,,,-14.091796875,0.908203125,1,0,0,0.886829853058,,,2015_Sep_08_1516,K,facesParametric,2,59.6345127144,
./stim/MorphM6_00_orig.jpg,172,,,,,,,,,0,172,172,172,,,,,,,,,,,,,,,-13.9453125,0.849609375,0,0,1,1.02250003815,,,2015_Sep_08_1516,K,facesParametric,2,59.6345127144,
./stim/MorphM5_09_orig.jpg,173,,,,,,,,,0,173,173,173,,,,,,,,,,,,,,,-13.974609375,0.8203125,1,0,0,1.05162191391,,,2015_Sep_08_1516,K,facesParametric,2,59.6345127144,
./stim/MorphF5_06_orig.jpg,174,,,,,,,,,0,174,174,174,,,,,,,,,,,,,,,-13.916015625,0.849609375,1,0,0,0.87095284462,,,2015_Sep_08_1516,K,facesParametric,2,59.6345127144,
./stim/MorphF9_01_orig.jpg,175,,,,,,,,,0,175,175,175,,,,,,,,,,,,,,,-13.18359375,1.025390625,1,0,0,2.56298685074,,,2015_Sep_08_1516,K,facesParametric,2,59.6345127144,
./stim/MorphM5_07_orig.jpg,176,,,,,,,,,0,176,176,176,,,,,,,,,,,,,,,-13.154296875,1.083984375,1,0,0,0.954133987427,,,2015_Sep_08_1516,K,facesParametric,2,59.6345127144,
./stim/MorphM2_01_orig.jpg,177,,,,,,,,,0,177,177,177,,,,,,,,,,,,,,,-13.330078125,0.87890625,0,0,1,1.62516307831,,,2015_Sep_08_1516,K,facesParametric,2,59.6345127144,
./stim/MorphM7_03_orig.jpg,178,,,,,,,,,0,178,178,178,,,,,,,,,,,,,,,-13.53515625,0.8203125,1,0,0,0.952412128448,,,2015_Sep_08_1516,K,facesParametric,2,59.6345127144,
./stim/MorphM9_09_orig.jpg,179,,,,,,,,,0,179,179,179,,,,,,,,,,,,,,,-13.505859375,0.849609375,1,0,0,0.920784950256,,,2015_Sep_08_1516,K,facesParametric,2,59.6345127144,
./stim/MorphF9_10_orig.jpg,180,,,,,,,,,0,180,180,180,,,,,,,,,,,,,,,-13.505859375,0.849609375,1,0,0,0.853089094162,,,2015_Sep_08_1516,K,facesParametric,2,59.6345127144,
./stim/MorphF8_10_orig.jpg,181,,,,,,,,,0,181,181,181,,,,,,,,,,,,,,,-12.392578125,0.439453125,1,0,0,3.45007181168,,,2015_Sep_08_1516,K,facesParametric,2,59.6345127144,
./stim/MorphF10_10_orig.jpg,182,,,,,,,,,0,182,182,182,,,,,,,,,,,,,,,-12.275390625,0.46875,1,0,0,0.734641075134,,,2015_Sep_08_1516,K,facesParametric,2,59.6345127144,
./stim/MorphM3_09_orig.jpg,183,,,,,,,,,0,183,183,183,,,,,,,,,,,,,,,-12.216796875,0.615234375,1,0,0,0.870133876801,,,2015_Sep_08_1516,K,facesParametric,2,59.6345127144,
./stim/MorphF10_05_orig.jpg,184,,,,,,,,,0,184,184,184,,,,,,,,,,,,,,,-12.216796875,0.498046875,0,0,1,1.18973994255,,,2015_Sep_08_1516,K,facesParametric,2,59.6345127144,
./stim/MorphF6_00_orig.jpg,185,,,,,,,,,0,185,185,185,,,,,,,,,,,,,,,-12.24609375,0.673828125,0,0,1,0.767410993576,,,2015_Sep_08_1516,K,facesParametric,2,59.6345127144,
./stim/MorphF8_08_orig.jpg,186,,,,,,,,,0,186,186,186,,,,,,,,,,,,,,,-12.158203125,0.849609375,1,0,0,2.69657921791,,,2015_Sep_08_1516,K,facesParametric,2,59.6345127144,
./stim/MorphF7_10_orig.jpg,187,,,,,,,,,0,187,187,187,,,,,,,,,,,,,,,-12.12890625,0.849609375,1,0,0,0.567384004593,,,2015_Sep_08_1516,K,facesParametric,2,59.6345127144,
./stim/MorphM9_10_orig.jpg,188,,,,,,,,,0,188,188,188,,,,,,,,,,,,,,,-12.0703125,0.87890625,1,0,0,0.752274990082,,,2015_Sep_08_1516,K,facesParametric,2,59.6345127144,
./stim/MorphM10_05_orig.jpg,189,,,,,,,,,0,189,189,189,,,,,,,,,,,,,,,-11.923828125,0.87890625,1,0,0,0.902230024338,,,2015_Sep_08_1516,K,facesParametric,2,59.6345127144,
./stim/MorphM8_03_orig.jpg,190,,,,,,,,,0,190,190,190,,,,,,,,,,,,,,,-11.923828125,0.87890625,1,0,0,1.27294993401,,,2015_Sep_08_1516,K,facesParametric,2,59.6345127144,
./stim/MorphF2_10_orig.jpg,191,,,,,,,,,0,191,191,191,,,,,,,,,,,,,,,-11.806640625,0.908203125,1,0,0,0.937016010284,,,2015_Sep_08_1516,K,facesParametric,2,59.6345127144,
./stim/MorphM1_02_orig.jpg,192,,,,,,,,,0,192,192,192,,,,,,,,,,,,,,,-11.77734375,0.9375,0,0,1,1.188352108,,,2015_Sep_08_1516,K,facesParametric,2,59.6345127144,
./stim/MorphM4_09_orig.jpg,193,,,,,,,,,0,193,193,193,,,,,,,,,,,,,,,-11.689453125,1.11328125,1,0,0,1.45602416992,,,2015_Sep_08_1516,K,facesParametric,2,59.6345127144,
./stim/MorphM8_07_orig.jpg,194,,,,,,,,,0,194,194,194,,,,,,,,,,,,,,,-11.630859375,1.083984375,1,0,0,0.95401096344,,,2015_Sep_08_1516,K,facesParametric,2,59.6345127144,
./stim/MorphM1_08_orig.jpg,195,,,,,,,,,0,195,195,195,,,,,,,,,,,,,,,-10.8984375,1.025390625,1,0,0,3.83757305145,,,2015_Sep_08_1516,K,facesParametric,2,59.6345127144,
./stim/MorphF4_08_orig.jpg,196,,,,,,,,,0,196,196,196,,,,,,,,,,,,,,,-10.927734375,1.0546875,1,0,0,0.884490013123,,,2015_Sep_08_1516,K,facesParametric,2,59.6345127144,
./stim/MorphM9_04_orig.jpg,197,,,,,,,,,0,197,197,197,,,,,,,,,,,,,,,-13.974609375,0.849609375,0,0,1,5.32833385468,,,2015_Sep_08_1516,K,facesParametric,2,59.6345127144,
./stim/MorphF1_09_orig.jpg,198,,,,,,,,,0,198,198,198,,,,,,,,,,,,,,,-15.0,-0.87890625,1,0,0,9.63533306122,,,2015_Sep_08_1516,K,facesParametric,2,59.6345127144,
./stim/MorphM9_08_orig.jpg,199,,,,,,,,,0,199,199,199,,,,,,,,,,,,,,,-15.1171875,-1.376953125,1,0,0,4.39013910294,,,2015_Sep_08_1516,K,facesParametric,2,59.6345127144,
./stim/MorphF10_01_orig.jpg,200,,,,,,,,,0,200,200,200,,,,,,,,,,,,,,,-14.794921875,-1.58203125,1,0,0,3.36482810974,,,2015_Sep_08_1516,K,facesParametric,2,59.6345127144,
./stim/MorphM10_00_orig.jpg,201,,,,,,,,,0,201,201,201,,,,,,,,,,,,,,,-14.70703125,-1.58203125,0,0,1,1.32260298729,,,2015_Sep_08_1516,K,facesParametric,2,59.6345127144,
./stim/MorphM2_00_orig.jpg,202,,,,,,,,,0,202,202,202,,,,,,,,,,,,,,,-14.560546875,-1.494140625,0,0,1,0.903775930405,,,2015_Sep_08_1516,K,facesParametric,2,59.6345127144,
./stim/MorphM9_01_orig.jpg,203,,,,,,,,,0,203,203,203,,,,,,,,,,,,,,,-14.267578125,-1.58203125,0,0,1,7.35653090477,,,2015_Sep_08_1516,K,facesParametric,2,59.6345127144,
./stim/MorphF7_09_orig.jpg,204,,,,,,,,,0,204,204,204,,,,,,,,,,,,,,,-14.033203125,-1.435546875,1,0,0,0.767717838287,,,2015_Sep_08_1516,K,facesParametric,2,59.6345127144,
./stim/MorphF9_00_orig.jpg,205,,,,,,,,,0,205,205,205,,,,,,,,,,,,,,,-13.857421875,-1.552734375,1,0,0,2.17780995369,,,2015_Sep_08_1516,K,facesParametric,2,59.6345127144,
./stim/MorphM2_02_orig.jpg,206,,,,,,,,,0,206,206,206,,,,,,,,,,,,,,,-13.798828125,-1.728515625,0,0,1,5.96510720253,,,2015_Sep_08_1516,K,facesParametric,2,59.6345127144,
./stim/MorphF8_05_orig.jpg,207,,,,,,,,,0,207,207,207,,,,,,,,,,,,,,,-13.798828125,-1.58203125,1,0,0,1.25397086143,,,2015_Sep_08_1516,K,facesParametric,2,59.6345127144,
./stim/MorphF3_09_orig.jpg,208,,,,,,,,,0,208,208,208,,,,,,,,,,,,,,,-13.681640625,-1.611328125,1,0,0,1.7251830101,,,2015_Sep_08_1516,K,facesParametric,2,59.6345127144,
./stim/MorphM5_10_orig.jpg,209,,,,,,,,,0,209,209,209,,,,,,,,,,,,,,,-13.76953125,-1.435546875,1,0,0,1.25493812561,,,2015_Sep_08_1516,K,facesParametric,2,59.6345127144,
./stim/MorphM8_08_orig.jpg,210,,,,,,,,,0,210,210,210,,,,,,,,,,,,,,,-13.505859375,-1.318359375,1,0,0,0.785149097443,,,2015_Sep_08_1516,K,facesParametric,2,59.6345127144,
./stim/MorphM3_07_orig.jpg,211,,,,,,,,,0,211,211,211,,,,,,,,,,,,,,,-13.53515625,-1.142578125,1,0,0,2.69535899162,,,2015_Sep_08_1516,K,facesParametric,2,59.6345127144,
./stim/MorphM5_06_orig.jpg,212,,,,,,,,,0,212,212,212,,,,,,,,,,,,,,,-13.18359375,-1.11328125,0,0,1,4.03790187836,,,2015_Sep_08_1516,K,facesParametric,2,59.6345127144,
./stim/MorphF5_09_orig.jpg,213,,,,,,,,,0,213,213,213,,,,,,,,,,,,,,,-13.154296875,-1.083984375,1,0,0,1.15520000458,,,2015_Sep_08_1516,K,facesParametric,2,59.6345127144,
./stim/MorphF8_06_orig.jpg,214,,,,,,,,,0,214,214,214,,,,,,,,,,,,,,,-13.53515625,-2.255859375,1,0,0,5.74702501297,,,2015_Sep_08_1516,K,facesParametric,2,59.6345127144,
./stim/MorphF5_04_orig.jpg,215,,,,,,,,,0,215,215,215,,,,,,,,,,,,,,,-14.0625,-2.8125,0,0,1,1.89258503914,,,2015_Sep_08_1516,K,facesParametric,2,59.6345127144,
./stim/MorphM2_04_orig.jpg,216,,,,,,,,,0,216,216,216,,,,,,,,,,,,,,,-14.70703125,-2.841796875,0,0,1,3.61737012863,,,2015_Sep_08_1516,K,facesParametric,2,59.6345127144,
./stim/MorphF2_05_orig.jpg,217,,,,,,,,,0,217,217,217,,,,,,,,,,,,,,,-14.619140625,-2.490234375,1,0,0,1.00308299065,,,2015_Sep_08_1516,K,facesParametric,2,59.6345127144,
./stim/MorphM7_01_orig.jpg,218,,,,,,,,,0,218,218,218,,,,,,,,,,,,,,,-14.53125,-2.548828125,1,0,0,1.97647500038,,,2015_Sep_08_1516,K,facesParametric,2,59.6345127144,
./stim/MorphF10_09_orig.jpg,219,,,,,,,,,0,219,219,219,,,,,,,,,,,,,,,-14.6484375,-2.578125,1,0,0,0.802324056625,,,2015_Sep_08_1516,K,facesParametric,2,59.6345127144,
