img,num,basicLoop.thisRepN,basicLoop.thisTrialN,basicLoop.thisN,basicLoop.thisIndex,trials.thisRepN,trials.thisTrialN,trials.thisN,trials.thisIndex,key_resp_2.keys,key_resp_2.rt,basicRating1.response,basicRating1.rt,basicRating2.response,basicRating2.rt,basicRating3.response,basicRating3.rt,basicRating4.response,basicRating4.rt,key_resp_3.keys,key_resp_3.rt,key_resp_4.keys,key_resp_4.rt,mouseResp.x,mouseResp.y,mouseResp.leftButton,mouseResp.midButton,mouseResp.rightButton,mouseResp.time,date,group,expName,participant,frameRate,
,,,,,,,,,,return,34.8604531288,,,,,,,,,,,,,,,,,,,2015_Sep_15_1204,K,facesParametric,3,59.7068398808,
./basicStim/23M_SP_O.jpg,,0,0,0,54,,,,,,,None,None,ANG,15.463,None,None,None,None,,,,,,,,,,,2015_Sep_15_1204,K,facesParametric,3,59.7068398808,
./basicStim/36M_SA_C.jpg,,0,1,1,81,,,,,,,None,None,None,None,SUP,13.527,None,None,,,,,,,,,,,2015_Sep_15_1204,K,facesParametric,3,59.7068398808,
./basicStim/34M_AN_O.jpg,,0,2,2,70,,,,,,,None,None,None,None,DIS,7.832,None,None,,,,,,,,,,,2015_Sep_15_1204,K,facesParametric,3,59.7068398808,
./basicStim/24M_FE_O.jpg,,0,3,3,58,,,,,,,None,None,None,None,SUP,17.054,None,None,,,,,,,,,,,2015_Sep_15_1204,K,facesParametric,3,59.7068398808,
./basicStim/07F_FE_O.jpg,,0,4,4,30,,,,,,,None,None,None,None,DIS,10.293,None,None,,,,,,,,,,,2015_Sep_15_1204,K,facesParametric,3,59.7068398808,
./basicStim/28M_NE_C.jpg,,0,5,5,69,,,,,,,None,None,None,None,None,None,NTR,8.733,,,,,,,,,,,2015_Sep_15_1204,K,facesParametric,3,59.7068398808,
./basicStim/24M_SA_C.jpg,,0,6,6,60,,,,,,,None,None,None,None,DIS,8.096,None,None,,,,,,,,,,,2015_Sep_15_1204,K,facesParametric,3,59.7068398808,
./basicStim/36M_AN_O.jpg,,0,7,7,77,,,,,,,None,None,None,None,None,None,NTR,6.401,,,,,,,,,,,2015_Sep_15_1204,K,facesParametric,3,59.7068398808,
./basicStim/02F_AN_O.jpg,,0,8,8,7,,,,,,,None,None,None,None,SUP,4.375,None,None,,,,,,,,,,,2015_Sep_15_1204,K,facesParametric,3,59.7068398808,
./basicStim/09F_SP_O.jpg,,0,9,9,40,,,,,,,None,None,FEA,8.397,None,None,None,None,,,,,,,,,,,2015_Sep_15_1204,K,facesParametric,3,59.7068398808,
./basicStim/23M_NE_C.jpg,,0,10,10,55,,,,,,,None,None,None,None,None,None,NTR,4.341,,,,,,,,,,,2015_Sep_15_1204,K,facesParametric,3,59.7068398808,
./basicStim/24M_NE_C.jpg,,0,11,11,62,,,,,,,None,None,None,None,None,None,NTR,9.136,,,,,,,,,,,2015_Sep_15_1204,K,facesParametric,3,59.7068398808,
./basicStim/21M_AN_O.jpg,,0,12,12,42,,,,,,,None,None,FEA,6.645,None,None,None,None,,,,,,,,,,,2015_Sep_15_1204,K,facesParametric,3,59.7068398808,
./basicStim/03F_DI_O.jpg,,0,13,13,15,,,,,,,None,None,None,None,DIS,2.784,None,None,,,,,,,,,,,2015_Sep_15_1204,K,facesParametric,3,59.7068398808,
./basicStim/36M_SP_O.jpg,,0,14,14,82,,,,,,,None,None,None,None,SUP,5.233,None,None,,,,,,,,,,,2015_Sep_15_1204,K,facesParametric,3,59.7068398808,
./basicStim/01F_SA_C.jpg,,0,15,15,4,,,,,,,None,None,None,None,SUP,5.532,None,None,,,,,,,,,,,2015_Sep_15_1204,K,facesParametric,3,59.7068398808,
./basicStim/01F_SP_O.jpg,,0,16,16,5,,,,,,,None,None,None,None,SUP,3.522,None,None,,,,,,,,,,,2015_Sep_15_1204,K,facesParametric,3,59.7068398808,
./basicStim/23M_SA_C.jpg,,0,17,17,53,,,,,,,None,None,ANG,4.342,None,None,None,None,,,,,,,,,,,2015_Sep_15_1204,K,facesParametric,3,59.7068398808,
./basicStim/06F_AN_O.jpg,,0,18,18,21,,,,,,,None,None,None,None,DIS,5.174,None,None,,,,,,,,,,,2015_Sep_15_1204,K,facesParametric,3,59.7068398808,
./basicStim/03F_SA_C.jpg,,0,19,19,18,,,,,,,SAD,4.185,None,None,None,None,None,None,,,,,,,,,,,2015_Sep_15_1204,K,facesParametric,3,59.7068398808,
./basicStim/02F_SP_O.jpg,,0,20,20,12,,,,,,,None,None,None,None,SUP,5.825,None,None,,,,,,,,,,,2015_Sep_15_1204,K,facesParametric,3,59.7068398808,
./basicStim/02F_HA_O.jpg,,0,21,21,10,,,,,,,HAP,3.509,None,None,None,None,None,None,,,,,,,,,,,2015_Sep_15_1204,K,facesParametric,3,59.7068398808,
./basicStim/07F_HA_O.jpg,,0,22,22,31,,,,,,,HAP,3.112,None,None,None,None,None,None,,,,,,,,,,,2015_Sep_15_1204,K,facesParametric,3,59.7068398808,
./basicStim/03F_AN_O.jpg,,0,23,23,14,,,,,,,None,None,ANG,2.938,None,None,None,None,,,,,,,,,,,2015_Sep_15_1204,K,facesParametric,3,59.7068398808,
./basicStim/36M_NE_C.jpg,,0,24,24,83,,,,,,,None,None,None,None,None,None,NTR,4.514,,,,,,,,,,,2015_Sep_15_1204,K,facesParametric,3,59.7068398808,
./basicStim/23M_AN_O.jpg,,0,25,25,49,,,,,,,None,None,ANG,3.006,None,None,None,None,,,,,,,,,,,2015_Sep_15_1204,K,facesParametric,3,59.7068398808,
./basicStim/36M_HA_O.jpg,,0,26,26,80,,,,,,,HAP,1.671,None,None,None,None,None,None,,,,,,,,,,,2015_Sep_15_1204,K,facesParametric,3,59.7068398808,
./basicStim/24M_DI_O.jpg,,0,27,27,57,,,,,,,SAD,4.982,None,None,None,None,None,None,,,,,,,,,,,2015_Sep_15_1204,K,facesParametric,3,59.7068398808,
./basicStim/36M_FE_O.jpg,,0,28,28,79,,,,,,,None,None,None,None,None,None,NTR,5.917,,,,,,,,,,,2015_Sep_15_1204,K,facesParametric,3,59.7068398808,
./basicStim/21M_DI_O.jpg,,0,29,29,43,,,,,,,None,None,None,None,DIS,2.345,None,None,,,,,,,,,,,2015_Sep_15_1204,K,facesParametric,3,59.7068398808,
./basicStim/23M_HA_O.jpg,,0,30,30,52,,,,,,,HAP,3.193,None,None,None,None,None,None,,,,,,,,,,,2015_Sep_15_1204,K,facesParametric,3,59.7068398808,
./basicStim/09F_HA_O.jpg,,0,31,31,38,,,,,,,HAP,3.157,None,None,None,None,None,None,,,,,,,,,,,2015_Sep_15_1204,K,facesParametric,3,59.7068398808,
./basicStim/24M_SP_O.jpg,,0,32,32,61,,,,,,,None,None,None,None,SUP,4.111,None,None,,,,,,,,,,,2015_Sep_15_1204,K,facesParametric,3,59.7068398808,
./basicStim/07F_SP_O.jpg,,0,33,33,33,,,,,,,None,None,ANG,7.158,None,None,None,None,,,,,,,,,,,2015_Sep_15_1204,K,facesParametric,3,59.7068398808,
./basicStim/06F_HA_O.jpg,,0,34,34,24,,,,,,,None,None,None,None,SUP,4.766,None,None,,,,,,,,,,,2015_Sep_15_1204,K,facesParametric,3,59.7068398808,
./basicStim/01F_AN_O.jpg,,0,35,35,0,,,,,,,None,None,ANG,3.04,None,None,None,None,,,,,,,,,,,2015_Sep_15_1204,K,facesParametric,3,59.7068398808,
./basicStim/02F_FE_O.jpg,,0,36,36,9,,,,,,,None,None,ANG,3.856,None,None,None,None,,,,,,,,,,,2015_Sep_15_1204,K,facesParametric,3,59.7068398808,
./basicStim/21M_FE_O.jpg,,0,37,37,44,,,,,,,None,None,None,None,SUP,3.436,None,None,,,,,,,,,,,2015_Sep_15_1204,K,facesParametric,3,59.7068398808,
./basicStim/03F_SP_O.jpg,,0,38,38,19,,,,,,,HAP,2.821,None,None,None,None,None,None,,,,,,,,,,,2015_Sep_15_1204,K,facesParametric,3,59.7068398808,
./basicStim/28M_SP_O.jpg,,0,39,39,68,,,,,,,None,None,None,None,SUP,3.757,None,None,,,,,,,,,,,2015_Sep_15_1204,K,facesParametric,3,59.7068398808,
./basicStim/07F_SA_C.jpg,,0,40,40,32,,,,,,,SAD,5.232,None,None,None,None,None,None,,,,,,,,,,,2015_Sep_15_1204,K,facesParametric,3,59.7068398808,
./basicStim/09F_NE_C.jpg,,0,41,41,41,,,,,,,None,None,None,None,SUP,7.878,None,None,,,,,,,,,,,2015_Sep_15_1204,K,facesParametric,3,59.7068398808,
./basicStim/01F_HA_O.jpg,,0,42,42,3,,,,,,,HAP,1.413,None,None,None,None,None,None,,,,,,,,,,,2015_Sep_15_1204,K,facesParametric,3,59.7068398808,
./basicStim/02F_DI_O.jpg,,0,43,43,8,,,,,,,None,None,None,None,DIS,2.903,None,None,,,,,,,,,,,2015_Sep_15_1204,K,facesParametric,3,59.7068398808,
./basicStim/34M_SA_C.jpg,,0,44,44,74,,,,,,,None,None,ANG,2.437,None,None,None,None,,,,,,,,,,,2015_Sep_15_1204,K,facesParametric,3,59.7068398808,
./basicStim/34M_SP_O.jpg,,0,45,45,75,,,,,,,HAP,3.677,None,None,None,None,None,None,,,,,,,,,,,2015_Sep_15_1204,K,facesParametric,3,59.7068398808,
./basicStim/02F_NE_C.jpg,,0,46,46,13,,,,,,,None,None,None,None,SUP,2.72,None,None,,,,,,,,,,,2015_Sep_15_1204,K,facesParametric,3,59.7068398808,
./basicStim/28M_SA_C.jpg,,0,47,47,67,,,,,,,None,None,None,None,None,None,NTR,3.625,,,,,,,,,,,2015_Sep_15_1204,K,facesParametric,3,59.7068398808,
./basicStim/03F_FE_O.jpg,,0,48,48,16,,,,,,,None,None,None,None,DIS,4.464,None,None,,,,,,,,,,,2015_Sep_15_1204,K,facesParametric,3,59.7068398808,
./basicStim/28M_AN_O.jpg,,0,49,49,63,,,,,,,None,None,None,None,DIS,3.335,None,None,,,,,,,,,,,2015_Sep_15_1204,K,facesParametric,3,59.7068398808,
./basicStim/06F_FE_O.jpg,,0,50,50,23,,,,,,,None,None,FEA,1.87,None,None,None,None,,,,,,,,,,,2015_Sep_15_1204,K,facesParametric,3,59.7068398808,
./basicStim/09F_AN_O.jpg,,0,51,51,35,,,,,,,None,None,ANG,2.988,None,None,None,None,,,,,,,,,,,2015_Sep_15_1204,K,facesParametric,3,59.7068398808,
./basicStim/34M_FE_O.jpg,,0,52,52,72,,,,,,,None,None,None,None,SUP,2.532,None,None,,,,,,,,,,,2015_Sep_15_1204,K,facesParametric,3,59.7068398808,
./basicStim/06F_SA_C.jpg,,0,53,53,25,,,,,,,None,None,ANG,3.155,None,None,None,None,,,,,,,,,,,2015_Sep_15_1204,K,facesParametric,3,59.7068398808,
./basicStim/03F_HA_O.jpg,,0,54,54,17,,,,,,,HAP,1.733,None,None,None,None,None,None,,,,,,,,,,,2015_Sep_15_1204,K,facesParametric,3,59.7068398808,
./basicStim/01F_FE_O.jpg,,0,55,55,2,,,,,,,None,None,ANG,4.202,None,None,None,None,,,,,,,,,,,2015_Sep_15_1204,K,facesParametric,3,59.7068398808,
./basicStim/28M_HA_O.jpg,,0,56,56,66,,,,,,,HAP,1.28,None,None,None,None,None,None,,,,,,,,,,,2015_Sep_15_1204,K,facesParametric,3,59.7068398808,
./basicStim/34M_DI_O.jpg,,0,57,57,71,,,,,,,None,None,None,None,DIS,1.925,None,None,,,,,,,,,,,2015_Sep_15_1204,K,facesParametric,3,59.7068398808,
./basicStim/28M_DI_O.jpg,,0,58,58,64,,,,,,,None,None,None,None,DIS,2.094,None,None,,,,,,,,,,,2015_Sep_15_1204,K,facesParametric,3,59.7068398808,
./basicStim/01F_NE_C.jpg,,0,59,59,6,,,,,,,None,None,None,None,SUP,3.32,None,None,,,,,,,,,,,2015_Sep_15_1204,K,facesParametric,3,59.7068398808,
./basicStim/07F_AN_O.jpg,,0,60,60,28,,,,,,,None,None,ANG,3.205,None,None,None,None,,,,,,,,,,,2015_Sep_15_1204,K,facesParametric,3,59.7068398808,
./basicStim/21M_SA_C.jpg,,0,61,61,46,,,,,,,None,None,None,None,None,None,NTR,7.582,,,,,,,,,,,2015_Sep_15_1204,K,facesParametric,3,59.7068398808,
./basicStim/36M_DI_O.jpg,,0,62,62,78,,,,,,,None,None,None,None,DIS,1.307,None,None,,,,,,,,,,,2015_Sep_15_1204,K,facesParametric,3,59.7068398808,
./basicStim/34M_NE_C.jpg,,0,63,63,76,,,,,,,None,None,None,None,SUP,4.291,None,None,,,,,,,,,,,2015_Sep_15_1204,K,facesParametric,3,59.7068398808,
./basicStim/24M_HA_O.jpg,,0,64,64,59,,,,,,,HAP,1.981,None,None,None,None,None,None,,,,,,,,,,,2015_Sep_15_1204,K,facesParametric,3,59.7068398808,
./basicStim/06F_DI_O.jpg,,0,65,65,22,,,,,,,None,None,None,None,DIS,1.892,None,None,,,,,,,,,,,2015_Sep_15_1204,K,facesParametric,3,59.7068398808,
./basicStim/21M_NE_C.jpg,,0,66,66,48,,,,,,,None,None,ANG,3.424,None,None,None,None,,,,,,,,,,,2015_Sep_15_1204,K,facesParametric,3,59.7068398808,
./basicStim/21M_SP_O.jpg,,0,67,67,47,,,,,,,None,None,None,None,SUP,2.653,None,None,,,,,,,,,,,2015_Sep_15_1204,K,facesParametric,3,59.7068398808,
./basicStim/09F_DI_O.jpg,,0,68,68,36,,,,,,,None,None,None,None,DIS,1.928,None,None,,,,,,,,,,,2015_Sep_15_1204,K,facesParametric,3,59.7068398808,
./basicStim/01F_DI_O.jpg,,0,69,69,1,,,,,,,None,None,None,None,DIS,1.46,None,None,,,,,,,,,,,2015_Sep_15_1204,K,facesParametric,3,59.7068398808,
./basicStim/21M_HA_O.jpg,,0,70,70,45,,,,,,,HAP,1.634,None,None,None,None,None,None,,,,,,,,,,,2015_Sep_15_1204,K,facesParametric,3,59.7068398808,
./basicStim/09F_SA_C.jpg,,0,71,71,39,,,,,,,None,None,ANG,1.979,None,None,None,None,,,,,,,,,,,2015_Sep_15_1204,K,facesParametric,3,59.7068398808,
./basicStim/07F_NE_C.jpg,,0,72,72,34,,,,,,,None,None,None,None,None,None,NTR,5.857,,,,,,,,,,,2015_Sep_15_1204,K,facesParametric,3,59.7068398808,
./basicStim/02F_SA_C.jpg,,0,73,73,11,,,,,,,None,None,None,None,None,None,NTR,4.175,,,,,,,,,,,2015_Sep_15_1204,K,facesParametric,3,59.7068398808,
./basicStim/06F_NE_C.jpg,,0,74,74,27,,,,,,,SAD,4.72,None,None,None,None,None,None,,,,,,,,,,,2015_Sep_15_1204,K,facesParametric,3,59.7068398808,
./basicStim/23M_DI_O.jpg,,0,75,75,50,,,,,,,None,None,None,None,DIS,2.279,None,None,,,,,,,,,,,2015_Sep_15_1204,K,facesParametric,3,59.7068398808,
./basicStim/24M_AN_O.jpg,,0,76,76,56,,,,,,,None,None,ANG,2.42,None,None,None,None,,,,,,,,,,,2015_Sep_15_1204,K,facesParametric,3,59.7068398808,
./basicStim/34M_HA_O.jpg,,0,77,77,73,,,,,,,HAP,1.448,None,None,None,None,None,None,,,,,,,,,,,2015_Sep_15_1204,K,facesParametric,3,59.7068398808,
./basicStim/28M_FE_O.jpg,,0,78,78,65,,,,,,,None,None,ANG,2.532,None,None,None,None,,,,,,,,,,,2015_Sep_15_1204,K,facesParametric,3,59.7068398808,
./basicStim/09F_FE_O.jpg,,0,79,79,37,,,,,,,None,None,None,None,DIS,3.957,None,None,,,,,,,,,,,2015_Sep_15_1204,K,facesParametric,3,59.7068398808,
./basicStim/07F_DI_O.jpg,,0,80,80,29,,,,,,,None,None,None,None,DIS,1.247,None,None,,,,,,,,,,,2015_Sep_15_1204,K,facesParametric,3,59.7068398808,
./basicStim/03F_NE_C.jpg,,0,81,81,20,,,,,,,None,None,None,None,SUP,1.463,None,None,,,,,,,,,,,2015_Sep_15_1204,K,facesParametric,3,59.7068398808,
./basicStim/06F_SP_O.jpg,,0,82,82,26,,,,,,,None,None,None,None,SUP,1.442,None,None,,,,,,,,,,,2015_Sep_15_1204,K,facesParametric,3,59.7068398808,
./basicStim/23M_FE_O.jpg,,0,83,83,51,,,,,,,None,None,None,None,SUP,4.208,None,None,,,,,,,,,,,2015_Sep_15_1204,K,facesParametric,3,59.7068398808,
,,,,,,,,,,,,,,,,,,,,return,14.0273079872,,,,,,,,,2015_Sep_15_1204,K,facesParametric,3,59.7068398808,
,,,,,,,,,,return,23.8825938702,,,,,,,,,,,,,,,,,,,2015_Sep_15_1204,K,facesParametric,3,59.7068398808,
,,,,,,,,,,,,,,,,,,,,return,12.1336681843,,,,,,,,,2015_Sep_15_1204,K,facesParametric,3,59.7068398808,
,,,,,,,,,,,,,,,,,,,,,,return,11.413175106,,,,,,,2015_Sep_15_1204,K,facesParametric,3,59.7068398808,
./stim/MorphM6_10_orig.jpg,0,,,,,0,0,0,0,,,,,,,,,,,,,,,-23.4375,-11.30859375,0,0,1,11.8992819786,2015_Sep_15_1204,K,facesParametric,3,59.7068398808,
./stim/MorphF9_04_orig.jpg,1,,,,,0,1,1,1,,,,,,,,,,,,,,,-23.4375,-8.37890625,0,0,1,11.9640889168,2015_Sep_15_1204,K,facesParametric,3,59.7068398808,
./stim/MorphM3_03_orig.jpg,2,,,,,0,2,2,2,,,,,,,,,,,,,,,-19.716796875,13.18359375,1,0,0,13.908164978,2015_Sep_15_1204,K,facesParametric,3,59.7068398808,
./stim/MorphM1_00_orig.jpg,3,,,,,0,3,3,3,,,,,,,,,,,,,,,-11.89453125,12.890625,1,0,0,10.5240149498,2015_Sep_15_1204,K,facesParametric,3,59.7068398808,
./stim/MorphM6_09_orig.jpg,4,,,,,0,4,4,4,,,,,,,,,,,,,,,-11.337890625,12.94921875,0,0,1,9.34931516647,2015_Sep_15_1204,K,facesParametric,3,59.7068398808,
./stim/MorphM10_02_orig.jpg,5,,,,,0,5,5,5,,,,,,,,,,,,,,,-11.6015625,12.744140625,1,0,0,2.22684216499,2015_Sep_15_1204,K,facesParametric,3,59.7068398808,
./stim/MorphM3_06_orig.jpg,6,,,,,0,6,6,6,,,,,,,,,,,,,,,-11.806640625,12.568359375,1,0,0,4.40578007698,2015_Sep_15_1204,K,facesParametric,3,59.7068398808,
./stim/MorphM7_08_orig.jpg,7,,,,,0,7,7,7,,,,,,,,,,,,,,,-11.396484375,11.953125,0,0,1,2.32792019844,2015_Sep_15_1204,K,facesParametric,3,59.7068398808,
./stim/MorphM6_04_orig.jpg,8,,,,,0,8,8,8,,,,,,,,,,,,,,,-11.279296875,11.806640625,0,0,1,3.83587908745,2015_Sep_15_1204,K,facesParametric,3,59.7068398808,
./stim/MorphM2_05_orig.jpg,9,,,,,0,9,9,9,,,,,,,,,,,,,,,-11.6015625,11.689453125,0,0,1,4.83960294724,2015_Sep_15_1204,K,facesParametric,3,59.7068398808,
./stim/MorphM3_01_orig.jpg,10,,,,,0,10,10,10,,,,,,,,,,,,,,,-10.78125,11.279296875,1,0,0,1.23847699165,2015_Sep_15_1204,K,facesParametric,3,59.7068398808,
./stim/MorphF1_03_orig.jpg,11,,,,,0,11,11,11,,,,,,,,,,,,,,,-10.3125,10.83984375,0,0,1,3.5335419178,2015_Sep_15_1204,K,facesParametric,3,59.7068398808,
./stim/MorphF8_09_orig.jpg,12,,,,,0,12,12,12,,,,,,,,,,,,,,,-10.400390625,10.751953125,0,0,1,3.06403207779,2015_Sep_15_1204,K,facesParametric,3,59.7068398808,
./stim/MorphF3_01_orig.jpg,13,,,,,0,13,13,13,,,,,,,,,,,,,,,-10.400390625,10.751953125,1,0,0,1.79221510887,2015_Sep_15_1204,K,facesParametric,3,59.7068398808,
./stim/MorphF7_03_orig.jpg,14,,,,,0,14,14,14,,,,,,,,,,,,,,,-10.546875,10.810546875,0,0,1,3.76743006706,2015_Sep_15_1204,K,facesParametric,3,59.7068398808,
./stim/MorphM1_05_orig.jpg,15,,,,,0,15,15,15,,,,,,,,,,,,,,,-10.48828125,10.927734375,0,0,1,3.8026509285,2015_Sep_15_1204,K,facesParametric,3,59.7068398808,
./stim/MorphM5_08_orig.jpg,16,,,,,0,16,16,16,,,,,,,,,,,,,,,-10.458984375,10.986328125,0,0,1,3.53373289108,2015_Sep_15_1204,K,facesParametric,3,59.7068398808,
./stim/MorphF7_01_orig.jpg,17,,,,,0,17,17,17,,,,,,,,,,,,,,,-10.517578125,11.07421875,1,0,0,1.4714050293,2015_Sep_15_1204,K,facesParametric,3,59.7068398808,
./stim/MorphF1_10_orig.jpg,18,,,,,0,18,18,18,,,,,,,,,,,,,,,-10.546875,11.19140625,1,0,0,1.89278197289,2015_Sep_15_1204,K,facesParametric,3,59.7068398808,
./stim/MorphF9_06_orig.jpg,19,,,,,0,19,19,19,,,,,,,,,,,,,,,-10.576171875,11.25,1,0,0,5.06007480621,2015_Sep_15_1204,K,facesParametric,3,59.7068398808,
./stim/MorphM4_00_orig.jpg,20,,,,,0,20,20,20,,,,,,,,,,,,,,,-10.576171875,11.25,1,0,0,4.6246740818,2015_Sep_15_1204,K,facesParametric,3,59.7068398808,
./stim/MorphM10_08_orig.jpg,21,,,,,0,21,21,21,,,,,,,,,,,,,,,-10.60546875,11.1328125,0,0,1,1.89101004601,2015_Sep_15_1204,K,facesParametric,3,59.7068398808,
./stim/MorphF8_07_orig.jpg,22,,,,,0,22,22,22,,,,,,,,,,,,,,,-10.634765625,11.103515625,0,0,1,2.00972795486,2015_Sep_15_1204,K,facesParametric,3,59.7068398808,
./stim/MorphF6_02_orig.jpg,23,,,,,0,23,23,23,,,,,,,,,,,,,,,-10.634765625,11.103515625,1,0,0,1.02144384384,2015_Sep_15_1204,K,facesParametric,3,59.7068398808,
./stim/MorphM2_08_orig.jpg,24,,,,,0,24,24,24,,,,,,,,,,,,,,,-10.83984375,10.927734375,0,0,1,3.56753897667,2015_Sep_15_1204,K,facesParametric,3,59.7068398808,
./stim/MorphF9_05_orig.jpg,25,,,,,0,25,25,25,,,,,,,,,,,,,,,-10.83984375,10.927734375,0,0,1,3.01649808884,2015_Sep_15_1204,K,facesParametric,3,59.7068398808,
./stim/MorphF1_08_orig.jpg,26,,,,,0,26,26,26,,,,,,,,,,,,,,,-10.83984375,10.927734375,0,0,1,5.64599704742,2015_Sep_15_1204,K,facesParametric,3,59.7068398808,
./stim/MorphF6_09_orig.jpg,27,,,,,0,27,27,27,,,,,,,,,,,,,,,-10.83984375,10.927734375,1,0,0,1.92615890503,2015_Sep_15_1204,K,facesParametric,3,59.7068398808,
./stim/MorphF2_09_orig.jpg,28,,,,,0,28,28,28,,,,,,,,,,,,,,,-10.83984375,10.927734375,0,0,1,1.82546401024,2015_Sep_15_1204,K,facesParametric,3,59.7068398808,
./stim/MorphF1_04_orig.jpg,29,,,,,0,29,29,29,,,,,,,,,,,,,,,-10.751953125,10.927734375,0,0,1,5.19295501709,2015_Sep_15_1204,K,facesParametric,3,59.7068398808,
./stim/MorphM4_06_orig.jpg,30,,,,,0,30,30,30,,,,,,,,,,,,,,,-10.72265625,10.8984375,0,0,1,2.07642698288,2015_Sep_15_1204,K,facesParametric,3,59.7068398808,
./stim/MorphM5_04_orig.jpg,31,,,,,0,31,31,31,,,,,,,,,,,,,,,-10.78125,10.927734375,0,0,1,4.40657615662,2015_Sep_15_1204,K,facesParametric,3,59.7068398808,
./stim/MorphF10_02_orig.jpg,32,,,,,0,32,32,32,,,,,,,,,,,,,,,-10.78125,10.927734375,1,0,0,1.05454921722,2015_Sep_15_1204,K,facesParametric,3,59.7068398808,
./stim/MorphF6_05_orig.jpg,33,,,,,0,33,33,33,,,,,,,,,,,,,,,-10.78125,10.927734375,1,0,0,1.45704197884,2015_Sep_15_1204,K,facesParametric,3,59.7068398808,
./stim/MorphF8_01_orig.jpg,34,,,,,0,34,34,34,,,,,,,,,,,,,,,-10.83984375,10.95703125,1,0,0,1.422093153,2015_Sep_15_1204,K,facesParametric,3,59.7068398808,
./stim/MorphM2_06_orig.jpg,35,,,,,0,35,35,35,,,,,,,,,,,,,,,-10.83984375,10.95703125,1,0,0,2.30987405777,2015_Sep_15_1204,K,facesParametric,3,59.7068398808,
./stim/MorphM9_02_orig.jpg,36,,,,,0,36,36,36,,,,,,,,,,,,,,,-10.83984375,10.95703125,1,0,0,3.0319609642,2015_Sep_15_1204,K,facesParametric,3,59.7068398808,
./stim/MorphM5_03_orig.jpg,37,,,,,0,37,37,37,,,,,,,,,,,,,,,-10.83984375,10.95703125,0,0,1,1.87608504295,2015_Sep_15_1204,K,facesParametric,3,59.7068398808,
./stim/MorphM4_01_orig.jpg,38,,,,,0,38,38,38,,,,,,,,,,,,,,,-10.869140625,10.869140625,0,0,1,1.6406121254,2015_Sep_15_1204,K,facesParametric,3,59.7068398808,
./stim/MorphM6_05_orig.jpg,39,,,,,0,39,39,39,,,,,,,,,,,,,,,-10.869140625,10.869140625,0,0,1,2.64590001106,2015_Sep_15_1204,K,facesParametric,3,59.7068398808,
./stim/MorphF4_02_orig.jpg,40,,,,,0,40,40,40,,,,,,,,,,,,,,,-10.869140625,10.869140625,1,0,0,3.08261609077,2015_Sep_15_1204,K,facesParametric,3,59.7068398808,
./stim/MorphM9_03_orig.jpg,41,,,,,0,41,41,41,,,,,,,,,,,,,,,-10.810546875,10.95703125,0,0,1,2.21141886711,2015_Sep_15_1204,K,facesParametric,3,59.7068398808,
./stim/MorphF4_06_orig.jpg,42,,,,,0,42,42,42,,,,,,,,,,,,,,,-10.810546875,10.95703125,0,0,1,3.14895915985,2015_Sep_15_1204,K,facesParametric,3,59.7068398808,
./stim/MorphF5_00_orig.jpg,43,,,,,0,43,43,43,,,,,,,,,,,,,,,-10.83984375,10.83984375,1,0,0,4.00426292419,2015_Sep_15_1204,K,facesParametric,3,59.7068398808,
./stim/MorphM7_04_orig.jpg,44,,,,,0,44,44,44,,,,,,,,,,,,,,,-10.78125,10.83984375,0,0,1,2.42870497704,2015_Sep_15_1204,K,facesParametric,3,59.7068398808,
./stim/MorphF1_07_orig.jpg,45,,,,,0,45,45,45,,,,,,,,,,,,,,,-10.751953125,10.927734375,0,0,1,5.89832782745,2015_Sep_15_1204,K,facesParametric,3,59.7068398808,
./stim/MorphF7_02_orig.jpg,46,,,,,0,46,46,46,,,,,,,,,,,,,,,-10.751953125,10.927734375,1,0,0,1.30451488495,2015_Sep_15_1204,K,facesParametric,3,59.7068398808,
./stim/MorphF3_08_orig.jpg,47,,,,,0,47,47,47,,,,,,,,,,,,,,,-10.751953125,10.927734375,0,0,1,1.4393620491,2015_Sep_15_1204,K,facesParametric,3,59.7068398808,
./stim/MorphM4_03_orig.jpg,48,,,,,0,48,48,48,,,,,,,,,,,,,,,-10.83984375,11.044921875,0,0,1,3.80258798599,2015_Sep_15_1204,K,facesParametric,3,59.7068398808,
./stim/MorphM7_05_orig.jpg,49,,,,,0,49,49,49,,,,,,,,,,,,,,,-10.810546875,10.986328125,0,0,1,1.2894308567,2015_Sep_15_1204,K,facesParametric,3,59.7068398808,
./stim/MorphM4_08_orig.jpg,50,,,,,0,50,50,50,,,,,,,,,,,,,,,-10.810546875,10.986328125,0,0,1,1.99164295197,2015_Sep_15_1204,K,facesParametric,3,59.7068398808,
./stim/MorphM2_03_orig.jpg,51,,,,,0,51,51,51,,,,,,,,,,,,,,,-10.810546875,10.986328125,0,0,1,2.07706594467,2015_Sep_15_1204,K,facesParametric,3,59.7068398808,
./stim/MorphF3_10_orig.jpg,52,,,,,0,52,52,52,,,,,,,,,,,,,,,-10.810546875,10.986328125,0,0,1,1.77361011505,2015_Sep_15_1204,K,facesParametric,3,59.7068398808,
./stim/MorphF6_08_orig.jpg,53,,,,,0,53,53,53,,,,,,,,,,,,,,,-10.78125,11.015625,1,0,0,2.24429702759,2015_Sep_15_1204,K,facesParametric,3,59.7068398808,
./stim/MorphM3_10_orig.jpg,54,,,,,0,54,54,54,,,,,,,,,,,,,,,-10.78125,11.015625,1,0,0,1.79214215279,2015_Sep_15_1204,K,facesParametric,3,59.7068398808,
./stim/MorphM10_03_orig.jpg,55,,,,,0,55,55,55,,,,,,,,,,,,,,,-10.78125,11.015625,1,0,0,4.35487008095,2015_Sep_15_1204,K,facesParametric,3,59.7068398808,
./stim/MorphF2_03_orig.jpg,56,,,,,0,56,56,56,,,,,,,,,,,,,,,-11.103515625,10.927734375,0,0,1,4.9087100029,2015_Sep_15_1204,K,facesParametric,3,59.7068398808,
./stim/MorphM7_10_orig.jpg,57,,,,,0,57,57,57,,,,,,,,,,,,,,,-11.103515625,10.927734375,0,0,1,1.75689291954,2015_Sep_15_1204,K,facesParametric,3,59.7068398808,
./stim/MorphF8_00_orig.jpg,58,,,,,0,58,58,58,,,,,,,,,,,,,,,-11.103515625,10.927734375,0,0,1,1.79115486145,2015_Sep_15_1204,K,facesParametric,3,59.7068398808,
./stim/MorphF7_07_orig.jpg,59,,,,,0,59,59,59,,,,,,,,,,,,,,,-11.1328125,10.95703125,1,0,0,3.46800899506,2015_Sep_15_1204,K,facesParametric,3,59.7068398808,
./stim/MorphM8_09_orig.jpg,60,,,,,0,60,60,60,,,,,,,,,,,,,,,-11.1328125,10.95703125,0,0,1,4.10543894768,2015_Sep_15_1204,K,facesParametric,3,59.7068398808,
./stim/MorphF5_08_orig.jpg,61,,,,,0,61,61,61,,,,,,,,,,,,,,,-11.1328125,10.95703125,0,0,1,2.02405691147,2015_Sep_15_1204,K,facesParametric,3,59.7068398808,
./stim/MorphM8_00_orig.jpg,62,,,,,0,62,62,62,,,,,,,,,,,,,,,-11.1328125,10.95703125,0,0,1,3.14788794518,2015_Sep_15_1204,K,facesParametric,3,59.7068398808,
./stim/MorphF4_04_orig.jpg,63,,,,,0,63,63,63,,,,,,,,,,,,,,,-11.220703125,11.015625,0,0,1,6.2667081356,2015_Sep_15_1204,K,facesParametric,3,59.7068398808,
./stim/MorphM8_05_orig.jpg,64,,,,,0,64,64,64,,,,,,,,,,,,,,,-11.42578125,11.07421875,1,0,0,1.52339696884,2015_Sep_15_1204,K,facesParametric,3,59.7068398808,
./stim/MorphM1_09_orig.jpg,65,,,,,0,65,65,65,,,,,,,,,,,,,,,-11.279296875,11.3671875,0,0,1,1.28752589226,2015_Sep_15_1204,K,facesParametric,3,59.7068398808,
./stim/MorphF8_04_orig.jpg,66,,,,,0,66,66,66,,,,,,,,,,,,,,,-11.455078125,11.396484375,1,0,0,1.67453312874,2015_Sep_15_1204,K,facesParametric,3,59.7068398808,
./stim/MorphM10_07_orig.jpg,67,,,,,0,67,67,67,,,,,,,,,,,,,,,-11.455078125,11.396484375,0,0,1,1.2389421463,2015_Sep_15_1204,K,facesParametric,3,59.7068398808,
./stim/MorphM5_05_orig.jpg,68,,,,,0,68,68,68,,,,,,,,,,,,,,,-11.455078125,11.396484375,1,0,0,1.90952014923,2015_Sep_15_1204,K,facesParametric,3,59.7068398808,
./stim/MorphM3_02_orig.jpg,69,,,,,0,69,69,69,,,,,,,,,,,,,,,-11.455078125,11.396484375,0,0,1,3.4180791378,2015_Sep_15_1204,K,facesParametric,3,59.7068398808,
./stim/MorphF2_08_orig.jpg,70,,,,,0,70,70,70,,,,,,,,,,,,,,,-11.455078125,11.396484375,0,0,1,2.63009405136,2015_Sep_15_1204,K,facesParametric,3,59.7068398808,
./stim/MorphM5_00_orig.jpg,71,,,,,0,71,71,71,,,,,,,,,,,,,,,-11.455078125,11.396484375,0,0,1,2.09151411057,2015_Sep_15_1204,K,facesParametric,3,59.7068398808,
./stim/MorphF6_07_orig.jpg,72,,,,,0,72,72,72,,,,,,,,,,,,,,,-11.455078125,11.3671875,0,0,1,0.853813886642,2015_Sep_15_1204,K,facesParametric,3,59.7068398808,
./stim/MorphM7_07_orig.jpg,73,,,,,0,73,73,73,,,,,,,,,,,,,,,-11.513671875,11.30859375,0,0,1,2.27793908119,2015_Sep_15_1204,K,facesParametric,3,59.7068398808,
./stim/MorphM4_05_orig.jpg,74,,,,,0,74,74,74,,,,,,,,,,,,,,,-11.513671875,11.30859375,1,0,0,2.71379303932,2015_Sep_15_1204,K,facesParametric,3,59.7068398808,
./stim/MorphF1_02_orig.jpg,75,,,,,0,75,75,75,,,,,,,,,,,,,,,-11.513671875,11.30859375,1,0,0,1.43872094154,2015_Sep_15_1204,K,facesParametric,3,59.7068398808,
./stim/MorphM1_03_orig.jpg,76,,,,,0,76,76,76,,,,,,,,,,,,,,,-11.513671875,11.25,1,0,0,1.95932888985,2015_Sep_15_1204,K,facesParametric,3,59.7068398808,
./stim/MorphM6_01_orig.jpg,77,,,,,0,77,77,77,,,,,,,,,,,,,,,-11.513671875,11.25,1,0,0,1.89295005798,2015_Sep_15_1204,K,facesParametric,3,59.7068398808,
./stim/MorphF5_05_orig.jpg,78,,,,,0,78,78,78,,,,,,,,,,,,,,,-11.71875,11.25,0,0,1,2.84585118294,2015_Sep_15_1204,K,facesParametric,3,59.7068398808,
./stim/MorphF4_10_orig.jpg,79,,,,,0,79,79,79,,,,,,,,,,,,,,,-11.77734375,11.25,0,0,1,2.49555683136,2015_Sep_15_1204,K,facesParametric,3,59.7068398808,
./stim/MorphF9_03_orig.jpg,80,,,,,0,80,80,80,,,,,,,,,,,,,,,-11.806640625,11.25,0,0,1,2.26173186302,2015_Sep_15_1204,K,facesParametric,3,59.7068398808,
./stim/MorphM8_04_orig.jpg,81,,,,,0,81,81,81,,,,,,,,,,,,,,,-11.806640625,11.25,0,0,1,2.68018698692,2015_Sep_15_1204,K,facesParametric,3,59.7068398808,
./stim/MorphF2_04_orig.jpg,82,,,,,0,82,82,82,,,,,,,,,,,,,,,-11.806640625,11.25,0,0,1,3.14950108528,2015_Sep_15_1204,K,facesParametric,3,59.7068398808,
./stim/MorphM10_01_orig.jpg,83,,,,,0,83,83,83,,,,,,,,,,,,,,,-11.806640625,11.25,1,0,0,1.18888616562,2015_Sep_15_1204,K,facesParametric,3,59.7068398808,
./stim/MorphF6_10_orig.jpg,84,,,,,0,84,84,84,,,,,,,,,,,,,,,-11.806640625,11.25,1,0,0,1.65742897987,2015_Sep_15_1204,K,facesParametric,3,59.7068398808,
./stim/MorphF10_00_orig.jpg,85,,,,,0,85,85,85,,,,,,,,,,,,,,,-11.806640625,11.25,1,0,0,1.54061198235,2015_Sep_15_1204,K,facesParametric,3,59.7068398808,
./stim/MorphM10_04_orig.jpg,86,,,,,0,86,86,86,,,,,,,,,,,,,,,-11.77734375,11.19140625,1,0,0,3.43497991562,2015_Sep_15_1204,K,facesParametric,3,59.7068398808,
./stim/MorphM4_07_orig.jpg,87,,,,,0,87,87,87,,,,,,,,,,,,,,,-11.689453125,11.162109375,1,0,0,3.86795282364,2015_Sep_15_1204,K,facesParametric,3,59.7068398808,
./stim/MorphF10_07_orig.jpg,88,,,,,0,88,88,88,,,,,,,,,,,,,,,-11.689453125,11.162109375,1,0,0,3.86860489845,2015_Sep_15_1204,K,facesParametric,3,59.7068398808,
./stim/MorphF8_02_orig.jpg,89,,,,,0,89,89,89,,,,,,,,,,,,,,,-11.748046875,11.103515625,1,0,0,1.43954396248,2015_Sep_15_1204,K,facesParametric,3,59.7068398808,
./stim/MorphM10_06_orig.jpg,90,,,,,0,90,90,90,,,,,,,,,,,,,,,-11.8359375,11.044921875,0,0,1,2.79729604721,2015_Sep_15_1204,K,facesParametric,3,59.7068398808,
./stim/MorphF6_06_orig.jpg,91,,,,,0,91,91,91,,,,,,,,,,,,,,,-11.806640625,11.015625,1,0,0,2.83004212379,2015_Sep_15_1204,K,facesParametric,3,59.7068398808,
./stim/MorphF2_07_orig.jpg,92,,,,,0,92,92,92,,,,,,,,,,,,,,,-11.806640625,10.986328125,0,0,1,1.58950591087,2015_Sep_15_1204,K,facesParametric,3,59.7068398808,
./stim/MorphF3_04_orig.jpg,93,,,,,0,93,93,93,,,,,,,,,,,,,,,-11.806640625,10.986328125,0,0,1,2.00854206085,2015_Sep_15_1204,K,facesParametric,3,59.7068398808,
./stim/MorphM10_10_orig.jpg,94,,,,,0,94,94,94,,,,,,,,,,,,,,,-11.806640625,10.986328125,0,0,1,3.51741409302,2015_Sep_15_1204,K,facesParametric,3,59.7068398808,
./stim/MorphF3_06_orig.jpg,95,,,,,0,95,95,95,,,,,,,,,,,,,,,-11.806640625,10.986328125,1,0,0,2.44552397728,2015_Sep_15_1204,K,facesParametric,3,59.7068398808,
./stim/MorphM8_06_orig.jpg,96,,,,,0,96,96,96,,,,,,,,,,,,,,,-11.806640625,10.986328125,0,0,1,1.13828802109,2015_Sep_15_1204,K,facesParametric,3,59.7068398808,
./stim/MorphM4_02_orig.jpg,97,,,,,0,97,97,97,,,,,,,,,,,,,,,-11.806640625,10.986328125,1,0,0,2.96555304527,2015_Sep_15_1204,K,facesParametric,3,59.7068398808,
./stim/MorphF9_08_orig.jpg,98,,,,,0,98,98,98,,,,,,,,,,,,,,,-11.806640625,10.986328125,0,0,1,3.5671350956,2015_Sep_15_1204,K,facesParametric,3,59.7068398808,
./stim/MorphF3_07_orig.jpg,99,,,,,0,99,99,99,,,,,,,,,,,,,,,-11.806640625,10.986328125,0,0,1,1.1228659153,2015_Sep_15_1204,K,facesParametric,3,59.7068398808,
./stim/MorphM10_09_orig.jpg,100,,,,,0,100,100,100,,,,,,,,,,,,,,,-11.806640625,10.986328125,0,0,1,3.33302807808,2015_Sep_15_1204,K,facesParametric,3,59.7068398808,
./stim/MorphM4_04_orig.jpg,101,,,,,0,101,101,101,,,,,,,,,,,,,,,-11.8359375,10.6640625,0,0,1,3.33258795738,2015_Sep_15_1204,K,facesParametric,3,59.7068398808,
./stim/MorphM6_07_orig.jpg,102,,,,,0,102,102,102,,,,,,,,,,,,,,,-11.865234375,10.60546875,0,0,1,3.70208096504,2015_Sep_15_1204,K,facesParametric,3,59.7068398808,
./stim/MorphF4_01_orig.jpg,103,,,,,0,103,103,103,,,,,,,,,,,,,,,-11.953125,10.224609375,0,0,1,5.07683706284,2015_Sep_15_1204,K,facesParametric,3,59.7068398808,
./stim/MorphF10_06_orig.jpg,104,,,,,0,104,104,104,,,,,,,,,,,,,,,-11.953125,10.224609375,0,0,1,1.22284507751,2015_Sep_15_1204,K,facesParametric,3,59.7068398808,
./stim/MorphM3_00_orig.jpg,105,,,,,0,105,105,105,,,,,,,,,,,,,,,-11.953125,10.1953125,1,0,0,1.60537815094,2015_Sep_15_1204,K,facesParametric,3,59.7068398808,
./stim/MorphF7_08_orig.jpg,106,,,,,0,106,106,106,,,,,,,,,,,,,,,-11.923828125,10.048828125,1,0,0,1.65871810913,2015_Sep_15_1204,K,facesParametric,3,59.7068398808,
./stim/MorphF1_06_orig.jpg,107,,,,,0,107,107,107,,,,,,,,,,,,,,,-12.041015625,9.9609375,0,0,1,1.90846014023,2015_Sep_15_1204,K,facesParametric,3,59.7068398808,
./stim/MorphM7_02_orig.jpg,108,,,,,0,108,108,108,,,,,,,,,,,,,,,-12.041015625,9.9609375,0,0,1,1.75841808319,2015_Sep_15_1204,K,facesParametric,3,59.7068398808,
./stim/MorphM5_02_orig.jpg,109,,,,,0,109,109,109,,,,,,,,,,,,,,,-12.099609375,9.9609375,1,0,0,1.94324612617,2015_Sep_15_1204,K,facesParametric,3,59.7068398808,
./stim/MorphM6_08_orig.jpg,110,,,,,0,110,110,110,,,,,,,,,,,,,,,-12.0703125,9.90234375,0,0,1,3.78657603264,2015_Sep_15_1204,K,facesParametric,3,59.7068398808,
./stim/MorphF6_01_orig.jpg,111,,,,,0,111,111,111,,,,,,,,,,,,,,,-12.0703125,9.90234375,1,0,0,1.47327399254,2015_Sep_15_1204,K,facesParametric,3,59.7068398808,
./stim/MorphM3_08_orig.jpg,112,,,,,0,112,112,112,,,,,,,,,,,,,,,-12.041015625,9.755859375,1,0,0,1.45720696449,2015_Sep_15_1204,K,facesParametric,3,59.7068398808,
./stim/MorphF2_06_orig.jpg,113,,,,,0,113,113,113,,,,,,,,,,,,,,,-12.041015625,9.7265625,0,0,1,4.62315511703,2015_Sep_15_1204,K,facesParametric,3,59.7068398808,
./stim/MorphM9_05_orig.jpg,114,,,,,0,114,114,114,,,,,,,,,,,,,,,-12.041015625,9.609375,0,0,1,2.01030182838,2015_Sep_15_1204,K,facesParametric,3,59.7068398808,
./stim/MorphM7_06_orig.jpg,115,,,,,0,115,115,115,,,,,,,,,,,,,,,-12.041015625,9.521484375,0,0,1,1.38983488083,2015_Sep_15_1204,K,facesParametric,3,59.7068398808,
./stim/MorphF7_00_orig.jpg,116,,,,,0,116,116,116,,,,,,,,,,,,,,,-12.041015625,9.521484375,1,0,0,1.43899917603,2015_Sep_15_1204,K,facesParametric,3,59.7068398808,
./stim/MorphM7_00_orig.jpg,117,,,,,0,117,117,117,,,,,,,,,,,,,,,-12.041015625,9.404296875,0,0,1,2.49614095688,2015_Sep_15_1204,K,facesParametric,3,59.7068398808,
./stim/MorphM6_02_orig.jpg,118,,,,,0,118,118,118,,,,,,,,,,,,,,,-12.01171875,9.78515625,0,0,1,5.39548707008,2015_Sep_15_1204,K,facesParametric,3,59.7068398808,
./stim/MorphF7_04_orig.jpg,119,,,,,0,119,119,119,,,,,,,,,,,,,,,-11.923828125,9.90234375,1,0,0,3.40091514587,2015_Sep_15_1204,K,facesParametric,3,59.7068398808,
./stim/MorphF4_00_orig.jpg,120,,,,,0,120,120,120,,,,,,,,,,,,,,,-11.923828125,9.873046875,1,0,0,1.2557721138,2015_Sep_15_1204,K,facesParametric,3,59.7068398808,
./stim/MorphF9_07_orig.jpg,121,,,,,0,121,121,121,,,,,,,,,,,,,,,-12.099609375,9.55078125,0,0,1,4.42311692238,2015_Sep_15_1204,K,facesParametric,3,59.7068398808,
./stim/MorphF4_05_orig.jpg,122,,,,,0,122,122,122,,,,,,,,,,,,,,,-12.158203125,9.462890625,1,0,0,2.94871902466,2015_Sep_15_1204,K,facesParametric,3,59.7068398808,
./stim/MorphF5_10_orig.jpg,123,,,,,0,123,123,123,,,,,,,,,,,,,,,-12.216796875,9.375,0,0,1,3.13099098206,2015_Sep_15_1204,K,facesParametric,3,59.7068398808,
./stim/MorphM9_06_orig.jpg,124,,,,,0,124,124,124,,,,,,,,,,,,,,,-12.24609375,9.31640625,0,0,1,1.8588950634,2015_Sep_15_1204,K,facesParametric,3,59.7068398808,
./stim/MorphF1_00_orig.jpg,125,,,,,0,125,125,125,,,,,,,,,,,,,,,-12.24609375,9.228515625,1,0,0,2.22785305977,2015_Sep_15_1204,K,facesParametric,3,59.7068398808,
./stim/MorphF5_07_orig.jpg,126,,,,,0,126,126,126,,,,,,,,,,,,,,,-13.88671875,9.2578125,0,0,1,3.78475618362,2015_Sep_15_1204,K,facesParametric,3,59.7068398808,
./stim/MorphM6_06_orig.jpg,127,,,,,0,127,127,127,,,,,,,,,,,,,,,-13.916015625,9.287109375,0,0,1,4.7926659584,2015_Sep_15_1204,K,facesParametric,3,59.7068398808,
./stim/MorphF2_00_orig.jpg,128,,,,,0,128,128,128,,,,,,,,,,,,,,,-13.9453125,9.052734375,0,0,1,2.52877998352,2015_Sep_15_1204,K,facesParametric,3,59.7068398808,
./stim/MorphM6_03_orig.jpg,129,,,,,0,129,129,129,,,,,,,,,,,,,,,-14.033203125,8.818359375,0,0,1,3.71955084801,2015_Sep_15_1204,K,facesParametric,3,59.7068398808,
./stim/MorphM3_04_orig.jpg,130,,,,,0,130,130,130,,,,,,,,,,,,,,,-14.091796875,8.759765625,0,0,1,3.40016412735,2015_Sep_15_1204,K,facesParametric,3,59.7068398808,
./stim/MorphM8_01_orig.jpg,131,,,,,0,131,131,131,,,,,,,,,,,,,,,-14.12109375,8.759765625,0,0,1,1.72537589073,2015_Sep_15_1204,K,facesParametric,3,59.7068398808,
./stim/MorphM1_06_orig.jpg,132,,,,,0,132,132,132,,,,,,,,,,,,,,,-14.47265625,8.583984375,1,0,0,2.51051902771,2015_Sep_15_1204,K,facesParametric,3,59.7068398808,
./stim/MorphM2_09_orig.jpg,133,,,,,0,133,133,133,,,,,,,,,,,,,,,-14.4140625,8.291015625,0,0,1,4.18894100189,2015_Sep_15_1204,K,facesParametric,3,59.7068398808,
./stim/MorphF2_01_orig.jpg,134,,,,,0,134,134,134,,,,,,,,,,,,,,,-14.619140625,8.26171875,0,0,1,4.2534160614,2015_Sep_15_1204,K,facesParametric,3,59.7068398808,
./stim/MorphM5_01_orig.jpg,135,,,,,0,135,135,135,,,,,,,,,,,,,,,-14.619140625,8.26171875,0,0,1,1.85891008377,2015_Sep_15_1204,K,facesParametric,3,59.7068398808,
./stim/MorphF8_03_orig.jpg,136,,,,,0,136,136,136,,,,,,,,,,,,,,,-14.6484375,8.26171875,1,0,0,4.94310307503,2015_Sep_15_1204,K,facesParametric,3,59.7068398808,
./stim/MorphF10_03_orig.jpg,137,,,,,0,137,137,137,,,,,,,,,,,,,,,-14.677734375,8.115234375,1,0,0,1.17158102989,2015_Sep_15_1204,K,facesParametric,3,59.7068398808,
./stim/MorphM7_09_orig.jpg,138,,,,,0,138,138,138,,,,,,,,,,,,,,,-14.6484375,8.0859375,0,0,1,3.53518009186,2015_Sep_15_1204,K,facesParametric,3,59.7068398808,
./stim/MorphM9_00_orig.jpg,139,,,,,0,139,139,139,,,,,,,,,,,,,,,-14.6484375,8.02734375,1,0,0,2.27750897408,2015_Sep_15_1204,K,facesParametric,3,59.7068398808,
./stim/MorphM3_05_orig.jpg,140,,,,,0,140,140,140,,,,,,,,,,,,,,,-14.677734375,7.998046875,0,0,1,4.22235393524,2015_Sep_15_1204,K,facesParametric,3,59.7068398808,
./stim/MorphM1_07_orig.jpg,141,,,,,0,141,141,141,,,,,,,,,,,,,,,-14.677734375,7.998046875,0,0,1,4.79201006889,2015_Sep_15_1204,K,facesParametric,3,59.7068398808,
./stim/MorphM9_07_orig.jpg,142,,,,,0,142,142,142,,,,,,,,,,,,,,,-14.677734375,7.998046875,0,0,1,1.57419514656,2015_Sep_15_1204,K,facesParametric,3,59.7068398808,
./stim/MorphF3_03_orig.jpg,143,,,,,0,143,143,143,,,,,,,,,,,,,,,-14.619140625,7.96875,1,0,0,6.75263690948,2015_Sep_15_1204,K,facesParametric,3,59.7068398808,
./stim/MorphF4_07_orig.jpg,144,,,,,0,144,144,144,,,,,,,,,,,,,,,-14.765625,7.822265625,0,0,1,3.90378904343,2015_Sep_15_1204,K,facesParametric,3,59.7068398808,
./stim/MorphM2_10_orig.jpg,145,,,,,0,145,145,145,,,,,,,,,,,,,,,-14.94140625,7.822265625,0,0,1,3.85373616219,2015_Sep_15_1204,K,facesParametric,3,59.7068398808,
./stim/MorphF7_06_orig.jpg,146,,,,,0,146,146,146,,,,,,,,,,,,,,,-14.94140625,7.822265625,1,0,0,1.35598087311,2015_Sep_15_1204,K,facesParametric,3,59.7068398808,
./stim/MorphM8_02_orig.jpg,147,,,,,0,147,147,147,,,,,,,,,,,,,,,-15.17578125,7.79296875,0,0,1,4.84195399284,2015_Sep_15_1204,K,facesParametric,3,59.7068398808,
./stim/MorphF3_05_orig.jpg,148,,,,,0,148,148,148,,,,,,,,,,,,,,,-15.17578125,7.79296875,0,0,1,1.94300484657,2015_Sep_15_1204,K,facesParametric,3,59.7068398808,
./stim/MorphF6_04_orig.jpg,149,,,,,0,149,149,149,,,,,,,,,,,,,,,-15.17578125,8.84765625,1,0,0,2.81428003311,2015_Sep_15_1204,K,facesParametric,3,59.7068398808,
./stim/MorphM4_10_orig.jpg,150,,,,,0,150,150,150,,,,,,,,,,,,,,,-16.7578125,8.642578125,1,0,0,1.99319505692,2015_Sep_15_1204,K,facesParametric,3,59.7068398808,
./stim/MorphF10_08_orig.jpg,151,,,,,0,151,151,151,,,,,,,,,,,,,,,-17.431640625,9.0234375,0,0,1,3.29941987991,2015_Sep_15_1204,K,facesParametric,3,59.7068398808,
./stim/MorphF5_02_orig.jpg,152,,,,,0,152,152,152,,,,,,,,,,,,,,,-17.4609375,8.935546875,0,0,1,2.81428408623,2015_Sep_15_1204,K,facesParametric,3,59.7068398808,
./stim/MorphF1_05_orig.jpg,153,,,,,0,153,153,153,,,,,,,,,,,,,,,-17.4609375,9.052734375,0,0,1,3.31825780869,2015_Sep_15_1204,K,facesParametric,3,59.7068398808,
./stim/MorphF9_09_orig.jpg,154,,,,,0,154,154,154,,,,,,,,,,,,,,,-17.4609375,8.935546875,0,0,1,1.42257595062,2015_Sep_15_1204,K,facesParametric,3,59.7068398808,
./stim/MorphF5_03_orig.jpg,155,,,,,0,155,155,155,,,,,,,,,,,,,,,-17.4609375,8.935546875,0,0,1,1.37095189095,2015_Sep_15_1204,K,facesParametric,3,59.7068398808,
./stim/MorphF4_03_orig.jpg,156,,,,,0,156,156,156,,,,,,,,,,,,,,,-17.431640625,8.90625,1,0,0,4.38994598389,2015_Sep_15_1204,K,facesParametric,3,59.7068398808,
./stim/MorphF5_01_orig.jpg,157,,,,,0,157,157,157,,,,,,,,,,,,,,,-17.314453125,8.7890625,0,0,1,2.57946920395,2015_Sep_15_1204,K,facesParametric,3,59.7068398808,
./stim/MorphM1_01_orig.jpg,158,,,,,0,158,158,158,,,,,,,,,,,,,,,-17.314453125,8.73046875,1,0,0,3.24999189377,2015_Sep_15_1204,K,facesParametric,3,59.7068398808,
./stim/MorphF9_02_orig.jpg,159,,,,,0,159,159,159,,,,,,,,,,,,,,,-17.783203125,8.701171875,1,0,0,6.41784501076,2015_Sep_15_1204,K,facesParametric,3,59.7068398808,
./stim/MorphF2_02_orig.jpg,160,,,,,0,160,160,160,,,,,,,,,,,,,,,-18.017578125,8.5546875,0,0,1,1.99290108681,2015_Sep_15_1204,K,facesParametric,3,59.7068398808,
./stim/MorphM8_10_orig.jpg,161,,,,,0,161,161,161,,,,,,,,,,,,,,,-18.28125,8.525390625,0,0,1,3.36749410629,2015_Sep_15_1204,K,facesParametric,3,59.7068398808,
./stim/MorphM1_10_orig.jpg,162,,,,,0,162,162,162,,,,,,,,,,,,,,,-18.33984375,8.525390625,0,0,1,3.63402891159,2015_Sep_15_1204,K,facesParametric,3,59.7068398808,
./stim/MorphF10_04_orig.jpg,163,,,,,0,163,163,163,,,,,,,,,,,,,,,-18.310546875,8.5546875,1,0,0,1.59096002579,2015_Sep_15_1204,K,facesParametric,3,59.7068398808,
./stim/MorphF3_00_orig.jpg,164,,,,,0,164,164,164,,,,,,,,,,,,,,,-18.251953125,8.701171875,1,0,0,2.17746710777,2015_Sep_15_1204,K,facesParametric,3,59.7068398808,
./stim/MorphM2_07_orig.jpg,165,,,,,0,165,165,165,,,,,,,,,,,,,,,-18.3984375,8.671875,0,0,1,1.85771822929,2015_Sep_15_1204,K,facesParametric,3,59.7068398808,
./stim/MorphF7_05_orig.jpg,166,,,,,0,166,166,166,,,,,,,,,,,,,,,-18.45703125,8.671875,1,0,0,1.42157697678,2015_Sep_15_1204,K,facesParametric,3,59.7068398808,
./stim/MorphF6_03_orig.jpg,167,,,,,0,167,167,167,,,,,,,,,,,,,,,-18.486328125,8.701171875,1,0,0,2.9299800396,2015_Sep_15_1204,K,facesParametric,3,59.7068398808,
./stim/MorphF3_02_orig.jpg,168,,,,,0,168,168,168,,,,,,,,,,,,,,,-18.57421875,8.73046875,0,0,1,4.33890581131,2015_Sep_15_1204,K,facesParametric,3,59.7068398808,
./stim/MorphF1_01_orig.jpg,169,,,,,0,169,169,169,,,,,,,,,,,,,,,-18.603515625,8.759765625,1,0,0,2.09369492531,2015_Sep_15_1204,K,facesParametric,3,59.7068398808,
./stim/MorphM1_04_orig.jpg,170,,,,,0,170,170,170,,,,,,,,,,,,,,,-18.6328125,8.73046875,1,0,0,1.32266998291,2015_Sep_15_1204,K,facesParametric,3,59.7068398808,
./stim/MorphF4_09_orig.jpg,171,,,,,0,171,171,171,,,,,,,,,,,,,,,-18.779296875,8.642578125,0,0,1,2.74738907814,2015_Sep_15_1204,K,facesParametric,3,59.7068398808,
./stim/MorphM6_00_orig.jpg,172,,,,,0,172,172,172,,,,,,,,,,,,,,,-18.80859375,8.642578125,1,0,0,1.32274413109,2015_Sep_15_1204,K,facesParametric,3,59.7068398808,
./stim/MorphM5_09_orig.jpg,173,,,,,0,173,173,173,,,,,,,,,,,,,,,-18.837890625,8.525390625,0,0,1,4.00443410873,2015_Sep_15_1204,K,facesParametric,3,59.7068398808,
./stim/MorphF5_06_orig.jpg,174,,,,,0,174,174,174,,,,,,,,,,,,,,,-18.837890625,8.525390625,0,0,1,2.22733187675,2015_Sep_15_1204,K,facesParametric,3,59.7068398808,
./stim/MorphF9_01_orig.jpg,175,,,,,0,175,175,175,,,,,,,,,,,,,,,-19.1015625,8.525390625,0,0,1,1.87335586548,2015_Sep_15_1204,K,facesParametric,3,59.7068398808,
./stim/MorphM5_07_orig.jpg,176,,,,,0,176,176,176,,,,,,,,,,,,,,,-19.1015625,8.525390625,0,0,1,3.04862093925,2015_Sep_15_1204,K,facesParametric,3,59.7068398808,
./stim/MorphM2_01_orig.jpg,177,,,,,0,177,177,177,,,,,,,,,,,,,,,-19.248046875,8.73046875,1,0,0,2.69590210915,2015_Sep_15_1204,K,facesParametric,3,59.7068398808,
./stim/MorphM7_03_orig.jpg,178,,,,,0,178,178,178,,,,,,,,,,,,,,,-19.248046875,8.73046875,0,0,1,1.64103913307,2015_Sep_15_1204,K,facesParametric,3,59.7068398808,
./stim/MorphM9_09_orig.jpg,179,,,,,0,179,179,179,,,,,,,,,,,,,,,-19.27734375,8.701171875,0,0,1,2.94795393944,2015_Sep_15_1204,K,facesParametric,3,59.7068398808,
./stim/MorphF9_10_orig.jpg,180,,,,,0,180,180,180,,,,,,,,,,,,,,,-19.3359375,8.73046875,0,0,1,1.90972900391,2015_Sep_15_1204,K,facesParametric,3,59.7068398808,
./stim/MorphF8_10_orig.jpg,181,,,,,0,181,181,181,,,,,,,,,,,,,,,-19.3359375,8.73046875,0,0,1,1.50750017166,2015_Sep_15_1204,K,facesParametric,3,59.7068398808,
./stim/MorphF10_10_orig.jpg,182,,,,,0,182,182,182,,,,,,,,,,,,,,,-19.3359375,8.73046875,0,0,1,1.38948512077,2015_Sep_15_1204,K,facesParametric,3,59.7068398808,
./stim/MorphM3_09_orig.jpg,183,,,,,0,183,183,183,,,,,,,,,,,,,,,-19.3359375,8.73046875,0,0,1,2.74544906616,2015_Sep_15_1204,K,facesParametric,3,59.7068398808,
./stim/MorphF10_05_orig.jpg,184,,,,,0,184,184,184,,,,,,,,,,,,,,,-19.3359375,8.73046875,0,0,1,1.72623896599,2015_Sep_15_1204,K,facesParametric,3,59.7068398808,
./stim/MorphF6_00_orig.jpg,185,,,,,0,185,185,185,,,,,,,,,,,,,,,-19.3359375,8.73046875,1,0,0,2.49387311935,2015_Sep_15_1204,K,facesParametric,3,59.7068398808,
./stim/MorphF8_08_orig.jpg,186,,,,,0,186,186,186,,,,,,,,,,,,,,,-19.3359375,8.73046875,0,0,1,2.37637686729,2015_Sep_15_1204,K,facesParametric,3,59.7068398808,
./stim/MorphF7_10_orig.jpg,187,,,,,0,187,187,187,,,,,,,,,,,,,,,-19.541015625,8.37890625,1,0,0,0.851011991501,2015_Sep_15_1204,K,facesParametric,3,59.7068398808,
./stim/MorphM9_10_orig.jpg,188,,,,,0,188,188,188,,,,,,,,,,,,,,,-19.39453125,8.291015625,1,0,0,4.6920671463,2015_Sep_15_1204,K,facesParametric,3,59.7068398808,
./stim/MorphM10_05_orig.jpg,189,,,,,0,189,189,189,,,,,,,,,,,,,,,-19.39453125,8.291015625,1,0,0,4.06953907013,2015_Sep_15_1204,K,facesParametric,3,59.7068398808,
./stim/MorphM8_03_orig.jpg,190,,,,,0,190,190,190,,,,,,,,,,,,,,,-19.423828125,8.291015625,1,0,0,1.63885378838,2015_Sep_15_1204,K,facesParametric,3,59.7068398808,
./stim/MorphF2_10_orig.jpg,191,,,,,0,191,191,191,,,,,,,,,,,,,,,-19.482421875,8.291015625,0,0,1,2.44558501244,2015_Sep_15_1204,K,facesParametric,3,59.7068398808,
./stim/MorphM1_02_orig.jpg,192,,,,,0,192,192,192,,,,,,,,,,,,,,,-19.5703125,8.203125,0,0,1,2.04346013069,2015_Sep_15_1204,K,facesParametric,3,59.7068398808,
./stim/MorphM4_09_orig.jpg,193,,,,,0,193,193,193,,,,,,,,,,,,,,,-19.62890625,8.0859375,0,0,1,1.72453188896,2015_Sep_15_1204,K,facesParametric,3,59.7068398808,
./stim/MorphM8_07_orig.jpg,194,,,,,0,194,194,194,,,,,,,,,,,,,,,-19.62890625,7.998046875,0,0,1,4.33796906471,2015_Sep_15_1204,K,facesParametric,3,59.7068398808,
./stim/MorphM1_08_orig.jpg,195,,,,,0,195,195,195,,,,,,,,,,,,,,,-19.62890625,7.998046875,0,0,1,4.07123708725,2015_Sep_15_1204,K,facesParametric,3,59.7068398808,
./stim/MorphF4_08_orig.jpg,196,,,,,0,196,196,196,,,,,,,,,,,,,,,-19.658203125,7.96875,0,0,1,2.93188405037,2015_Sep_15_1204,K,facesParametric,3,59.7068398808,
./stim/MorphM9_04_orig.jpg,197,,,,,0,197,197,197,,,,,,,,,,,,,,,-19.599609375,7.96875,0,0,1,2.24437379837,2015_Sep_15_1204,K,facesParametric,3,59.7068398808,
./stim/MorphF1_09_orig.jpg,198,,,,,0,198,198,198,,,,,,,,,,,,,,,-19.921875,8.0859375,0,0,1,1.97649312019,2015_Sep_15_1204,K,facesParametric,3,59.7068398808,
./stim/MorphM9_08_orig.jpg,199,,,,,0,199,199,199,,,,,,,,,,,,,,,-20.80078125,8.84765625,0,0,1,4.28955197334,2015_Sep_15_1204,K,facesParametric,3,59.7068398808,
./stim/MorphF10_01_orig.jpg,200,,,,,0,200,200,200,,,,,,,,,,,,,,,-20.302734375,9.287109375,1,0,0,1.1209628582,2015_Sep_15_1204,K,facesParametric,3,59.7068398808,
./stim/MorphM10_00_orig.jpg,201,,,,,0,201,201,201,,,,,,,,,,,,,,,-19.86328125,7.79296875,1,0,0,1.18825387955,2015_Sep_15_1204,K,facesParametric,3,59.7068398808,
./stim/MorphM2_00_orig.jpg,202,,,,,0,202,202,202,,,,,,,,,,,,,,,-19.62890625,7.67578125,1,0,0,1.2222878933,2015_Sep_15_1204,K,facesParametric,3,59.7068398808,
./stim/MorphM9_01_orig.jpg,203,,,,,0,203,203,203,,,,,,,,,,,,,,,-19.5703125,7.587890625,1,0,0,1.50665616989,2015_Sep_15_1204,K,facesParametric,3,59.7068398808,
./stim/MorphF7_09_orig.jpg,204,,,,,0,204,204,204,,,,,,,,,,,,,,,-19.482421875,7.5,1,0,0,2.44556903839,2015_Sep_15_1204,K,facesParametric,3,59.7068398808,
./stim/MorphF9_00_orig.jpg,205,,,,,0,205,205,205,,,,,,,,,,,,,,,-19.04296875,7.32421875,1,0,0,3.09725499153,2015_Sep_15_1204,K,facesParametric,3,59.7068398808,
./stim/MorphM2_02_orig.jpg,206,,,,,0,206,206,206,,,,,,,,,,,,,,,-19.482421875,7.44140625,1,0,0,4.50683712959,2015_Sep_15_1204,K,facesParametric,3,59.7068398808,
./stim/MorphF8_05_orig.jpg,207,,,,,0,207,207,207,,,,,,,,,,,,,,,-19.482421875,7.44140625,1,0,0,1.25558590889,2015_Sep_15_1204,K,facesParametric,3,59.7068398808,
./stim/MorphF3_09_orig.jpg,208,,,,,0,208,208,208,,,,,,,,,,,,,,,-19.423828125,7.32421875,0,0,1,1.99343299866,2015_Sep_15_1204,K,facesParametric,3,59.7068398808,
./stim/MorphM5_10_orig.jpg,209,,,,,0,209,209,209,,,,,,,,,,,,,,,-19.453125,7.294921875,0,0,1,2.39555692673,2015_Sep_15_1204,K,facesParametric,3,59.7068398808,
./stim/MorphM8_08_orig.jpg,210,,,,,0,210,210,210,,,,,,,,,,,,,,,-19.51171875,7.20703125,0,0,1,3.18293190002,2015_Sep_15_1204,K,facesParametric,3,59.7068398808,
./stim/MorphM3_07_orig.jpg,211,,,,,0,211,211,211,,,,,,,,,,,,,,,-19.51171875,7.1484375,1,0,0,4.37287020683,2015_Sep_15_1204,K,facesParametric,3,59.7068398808,
./stim/MorphM5_06_orig.jpg,212,,,,,0,212,212,212,,,,,,,,,,,,,,,-19.62890625,6.97265625,0,0,1,5.00825405121,2015_Sep_15_1204,K,facesParametric,3,59.7068398808,
./stim/MorphF5_09_orig.jpg,213,,,,,0,213,213,213,,,,,,,,,,,,,,,-19.6875,6.9140625,0,0,1,2.06013607979,2015_Sep_15_1204,K,facesParametric,3,59.7068398808,
./stim/MorphF8_06_orig.jpg,214,,,,,0,214,214,214,,,,,,,,,,,,,,,-19.716796875,6.9140625,0,0,1,3.2838280201,2015_Sep_15_1204,K,facesParametric,3,59.7068398808,
./stim/MorphF5_04_orig.jpg,215,,,,,0,215,215,215,,,,,,,,,,,,,,,-19.716796875,6.9140625,0,0,1,1.52395200729,2015_Sep_15_1204,K,facesParametric,3,59.7068398808,
./stim/MorphM2_04_orig.jpg,216,,,,,0,216,216,216,,,,,,,,,,,,,,,-22.20703125,6.943359375,0,0,1,3.93687295914,2015_Sep_15_1204,K,facesParametric,3,59.7068398808,
./stim/MorphF2_05_orig.jpg,217,,,,,0,217,217,217,,,,,,,,,,,,,,,-22.001953125,6.4453125,0,0,1,1.90876317024,2015_Sep_15_1204,K,facesParametric,3,59.7068398808,
./stim/MorphM7_01_orig.jpg,218,,,,,0,218,218,218,,,,,,,,,,,,,,,-22.060546875,6.298828125,0,0,1,1.33857893944,2015_Sep_15_1204,K,facesParametric,3,59.7068398808,
./stim/MorphF10_09_orig.jpg,219,,,,,0,219,219,219,,,,,,,,,,,,,,,-22.20703125,6.064453125,0,0,1,2.22755098343,2015_Sep_15_1204,K,facesParametric,3,59.7068398808,
