img,num,basicLoop.thisRepN,basicLoop.thisTrialN,basicLoop.thisN,basicLoop.thisIndex,trials.thisRepN,trials.thisTrialN,trials.thisN,trials.thisIndex,trials2.thisRepN,trials2.thisTrialN,trials2.thisN,trials2.thisIndex,key_resp_2.keys,key_resp_2.rt,basicRating1.response,basicRating1.rt,basicRating2.response,basicRating2.rt,basicRating3.response,basicRating3.rt,basicRating4.response,basicRating4.rt,key_resp_3.keys,key_resp_3.rt,key_resp_4.keys,key_resp_4.rt,mouseResp.x,mouseResp.y,mouseResp.leftButton,mouseResp.midButton,mouseResp.rightButton,mouseResp.time,key_resp_5.keys,key_resp_5.rt,key_resp_7.keys,key_resp_7.rt,date,group,expName,participant,frameRate,
,,,,,,,,,,,,,,return,53.9157240391,,,,,,,,,,,,,,,,,,,,,,,2015_Sep_21_1640,K,facesParametric,4,59.6904405444,
./basicStim/07F_SP_O.jpg,,0,0,0,33,,,,,,,,,,,None,None,None,None,SUP,7.883,None,None,,,,,,,,,,,,,,,2015_Sep_21_1640,K,facesParametric,4,59.6904405444,
./basicStim/36M_SA_C.jpg,,0,1,1,81,,,,,,,,,,,None,None,None,None,None,None,NTR,24.54,,,,,,,,,,,,,,,2015_Sep_21_1640,K,facesParametric,4,59.6904405444,
./basicStim/36M_NE_C.jpg,,0,2,2,83,,,,,,,,,,,None,None,None,None,None,None,NTR,3.745,,,,,,,,,,,,,,,2015_Sep_21_1640,K,facesParametric,4,59.6904405444,
./basicStim/34M_HA_O.jpg,,0,3,3,73,,,,,,,,,,,HAP,3.025,None,None,None,None,None,None,,,,,,,,,,,,,,,2015_Sep_21_1640,K,facesParametric,4,59.6904405444,
./basicStim/36M_SP_O.jpg,,0,4,4,82,,,,,,,,,,,None,None,None,None,SUP,3.757,None,None,,,,,,,,,,,,,,,2015_Sep_21_1640,K,facesParametric,4,59.6904405444,
./basicStim/24M_DI_O.jpg,,0,5,5,57,,,,,,,,,,,None,None,ANG,4.713,None,None,None,None,,,,,,,,,,,,,,,2015_Sep_21_1640,K,facesParametric,4,59.6904405444,
./basicStim/23M_AN_O.jpg,,0,6,6,49,,,,,,,,,,,None,None,FEA,7.012,None,None,None,None,,,,,,,,,,,,,,,2015_Sep_21_1640,K,facesParametric,4,59.6904405444,
./basicStim/06F_SA_C.jpg,,0,7,7,25,,,,,,,,,,,None,None,ANG,6.002,None,None,None,None,,,,,,,,,,,,,,,2015_Sep_21_1640,K,facesParametric,4,59.6904405444,
./basicStim/09F_NE_C.jpg,,0,8,8,41,,,,,,,,,,,None,None,None,None,None,None,NTR,1.711,,,,,,,,,,,,,,,2015_Sep_21_1640,K,facesParametric,4,59.6904405444,
./basicStim/24M_AN_O.jpg,,0,9,9,56,,,,,,,,,,,None,None,ANG,9.898,None,None,None,None,,,,,,,,,,,,,,,2015_Sep_21_1640,K,facesParametric,4,59.6904405444,
./basicStim/03F_AN_O.jpg,,0,10,10,14,,,,,,,,,,,None,None,ANG,1.31,None,None,None,None,,,,,,,,,,,,,,,2015_Sep_21_1640,K,facesParametric,4,59.6904405444,
./basicStim/23M_NE_C.jpg,,0,11,11,55,,,,,,,,,,,None,None,None,None,None,None,NTR,2.063,,,,,,,,,,,,,,,2015_Sep_21_1640,K,facesParametric,4,59.6904405444,
./basicStim/01F_HA_O.jpg,,0,12,12,3,,,,,,,,,,,HAP,1.918,None,None,None,None,None,None,,,,,,,,,,,,,,,2015_Sep_21_1640,K,facesParametric,4,59.6904405444,
./basicStim/36M_DI_O.jpg,,0,13,13,78,,,,,,,,,,,None,None,None,None,SUP,5.953,None,None,,,,,,,,,,,,,,,2015_Sep_21_1640,K,facesParametric,4,59.6904405444,
./basicStim/21M_HA_O.jpg,,0,14,14,45,,,,,,,,,,,HAP,2.168,None,None,None,None,None,None,,,,,,,,,,,,,,,2015_Sep_21_1640,K,facesParametric,4,59.6904405444,
./basicStim/24M_SP_O.jpg,,0,15,15,61,,,,,,,,,,,None,None,None,None,None,None,NTR,3.805,,,,,,,,,,,,,,,2015_Sep_21_1640,K,facesParametric,4,59.6904405444,
./basicStim/34M_SA_C.jpg,,0,16,16,74,,,,,,,,,,,None,None,None,None,SUP,5.148,None,None,,,,,,,,,,,,,,,2015_Sep_21_1640,K,facesParametric,4,59.6904405444,
./basicStim/06F_SP_O.jpg,,0,17,17,26,,,,,,,,,,,None,None,None,None,SUP,2.922,None,None,,,,,,,,,,,,,,,2015_Sep_21_1640,K,facesParametric,4,59.6904405444,
./basicStim/07F_NE_C.jpg,,0,18,18,34,,,,,,,,,,,None,None,None,None,None,None,NTR,2.294,,,,,,,,,,,,,,,2015_Sep_21_1640,K,facesParametric,4,59.6904405444,
./basicStim/21M_AN_O.jpg,,0,19,19,42,,,,,,,,,,,None,None,ANG,1.896,None,None,None,None,,,,,,,,,,,,,,,2015_Sep_21_1640,K,facesParametric,4,59.6904405444,
./basicStim/34M_SP_O.jpg,,0,20,20,75,,,,,,,,,,,None,None,None,None,SUP,2.601,None,None,,,,,,,,,,,,,,,2015_Sep_21_1640,K,facesParametric,4,59.6904405444,
./basicStim/09F_AN_O.jpg,,0,21,21,35,,,,,,,,,,,None,None,ANG,1.702,None,None,None,None,,,,,,,,,,,,,,,2015_Sep_21_1640,K,facesParametric,4,59.6904405444,
./basicStim/24M_NE_C.jpg,,0,22,22,62,,,,,,,,,,,None,None,None,None,None,None,NTR,1.194,,,,,,,,,,,,,,,2015_Sep_21_1640,K,facesParametric,4,59.6904405444,
./basicStim/21M_FE_O.jpg,,0,23,23,44,,,,,,,,,,,None,None,None,None,SUP,2.501,None,None,,,,,,,,,,,,,,,2015_Sep_21_1640,K,facesParametric,4,59.6904405444,
./basicStim/23M_DI_O.jpg,,0,24,24,50,,,,,,,,,,,SAD,2.32,None,None,None,None,None,None,,,,,,,,,,,,,,,2015_Sep_21_1640,K,facesParametric,4,59.6904405444,
./basicStim/28M_NE_C.jpg,,0,25,25,69,,,,,,,,,,,None,None,None,None,None,None,NTR,2.198,,,,,,,,,,,,,,,2015_Sep_21_1640,K,facesParametric,4,59.6904405444,
./basicStim/09F_FE_O.jpg,,0,26,26,37,,,,,,,,,,,None,None,None,None,SUP,2.04,None,None,,,,,,,,,,,,,,,2015_Sep_21_1640,K,facesParametric,4,59.6904405444,
./basicStim/02F_HA_O.jpg,,0,27,27,10,,,,,,,,,,,HAP,3.275,None,None,None,None,None,None,,,,,,,,,,,,,,,2015_Sep_21_1640,K,facesParametric,4,59.6904405444,
./basicStim/21M_SP_O.jpg,,0,28,28,47,,,,,,,,,,,None,None,None,None,SUP,2.621,None,None,,,,,,,,,,,,,,,2015_Sep_21_1640,K,facesParametric,4,59.6904405444,
./basicStim/07F_SA_C.jpg,,0,29,29,32,,,,,,,,,,,SAD,5.285,None,None,None,None,None,None,,,,,,,,,,,,,,,2015_Sep_21_1640,K,facesParametric,4,59.6904405444,
./basicStim/06F_AN_O.jpg,,0,30,30,21,,,,,,,,,,,None,None,None,None,SUP,1.261,None,None,,,,,,,,,,,,,,,2015_Sep_21_1640,K,facesParametric,4,59.6904405444,
./basicStim/03F_DI_O.jpg,,0,31,31,15,,,,,,,,,,,SAD,6.457,None,None,None,None,None,None,,,,,,,,,,,,,,,2015_Sep_21_1640,K,facesParametric,4,59.6904405444,
./basicStim/09F_SA_C.jpg,,0,32,32,39,,,,,,,,,,,None,None,FEA,6.24,None,None,None,None,,,,,,,,,,,,,,,2015_Sep_21_1640,K,facesParametric,4,59.6904405444,
./basicStim/06F_HA_O.jpg,,0,33,33,24,,,,,,,,,,,HAP,2.771,None,None,None,None,None,None,,,,,,,,,,,,,,,2015_Sep_21_1640,K,facesParametric,4,59.6904405444,
./basicStim/01F_SA_C.jpg,,0,34,34,4,,,,,,,,,,,SAD,3.917,None,None,None,None,None,None,,,,,,,,,,,,,,,2015_Sep_21_1640,K,facesParametric,4,59.6904405444,
./basicStim/24M_SA_C.jpg,,0,35,35,60,,,,,,,,,,,SAD,2.27,None,None,None,None,None,None,,,,,,,,,,,,,,,2015_Sep_21_1640,K,facesParametric,4,59.6904405444,
./basicStim/02F_DI_O.jpg,,0,36,36,8,,,,,,,,,,,None,None,None,None,SUP,6.036,None,None,,,,,,,,,,,,,,,2015_Sep_21_1640,K,facesParametric,4,59.6904405444,
./basicStim/36M_AN_O.jpg,,0,37,37,77,,,,,,,,,,,None,None,ANG,3.276,None,None,None,None,,,,,,,,,,,,,,,2015_Sep_21_1640,K,facesParametric,4,59.6904405444,
./basicStim/28M_AN_O.jpg,,0,38,38,63,,,,,,,,,,,None,None,ANG,4.398,None,None,None,None,,,,,,,,,,,,,,,2015_Sep_21_1640,K,facesParametric,4,59.6904405444,
./basicStim/36M_HA_O.jpg,,0,39,39,80,,,,,,,,,,,None,None,None,None,SUP,2.498,None,None,,,,,,,,,,,,,,,2015_Sep_21_1640,K,facesParametric,4,59.6904405444,
./basicStim/28M_SA_C.jpg,,0,40,40,67,,,,,,,,,,,None,None,None,None,SUP,4.093,None,None,,,,,,,,,,,,,,,2015_Sep_21_1640,K,facesParametric,4,59.6904405444,
./basicStim/34M_AN_O.jpg,,0,41,41,70,,,,,,,,,,,None,None,ANG,3.522,None,None,None,None,,,,,,,,,,,,,,,2015_Sep_21_1640,K,facesParametric,4,59.6904405444,
./basicStim/01F_NE_C.jpg,,0,42,42,6,,,,,,,,,,,None,None,None,None,None,None,NTR,1.876,,,,,,,,,,,,,,,2015_Sep_21_1640,K,facesParametric,4,59.6904405444,
./basicStim/03F_SA_C.jpg,,0,43,43,18,,,,,,,,,,,SAD,3.829,None,None,None,None,None,None,,,,,,,,,,,,,,,2015_Sep_21_1640,K,facesParametric,4,59.6904405444,
./basicStim/09F_HA_O.jpg,,0,44,44,38,,,,,,,,,,,HAP,2.101,None,None,None,None,None,None,,,,,,,,,,,,,,,2015_Sep_21_1640,K,facesParametric,4,59.6904405444,
./basicStim/01F_DI_O.jpg,,0,45,45,1,,,,,,,,,,,None,None,None,None,SUP,5.065,None,None,,,,,,,,,,,,,,,2015_Sep_21_1640,K,facesParametric,4,59.6904405444,
./basicStim/02F_NE_C.jpg,,0,46,46,13,,,,,,,,,,,None,None,None,None,SUP,6.228,None,None,,,,,,,,,,,,,,,2015_Sep_21_1640,K,facesParametric,4,59.6904405444,
./basicStim/21M_DI_O.jpg,,0,47,47,43,,,,,,,,,,,None,None,None,None,DIS,5.416,None,None,,,,,,,,,,,,,,,2015_Sep_21_1640,K,facesParametric,4,59.6904405444,
./basicStim/23M_SP_O.jpg,,0,48,48,54,,,,,,,,,,,None,None,None,None,SUP,2.889,None,None,,,,,,,,,,,,,,,2015_Sep_21_1640,K,facesParametric,4,59.6904405444,
./basicStim/09F_SP_O.jpg,,0,49,49,40,,,,,,,,,,,None,None,None,None,SUP,1.544,None,None,,,,,,,,,,,,,,,2015_Sep_21_1640,K,facesParametric,4,59.6904405444,
./basicStim/03F_HA_O.jpg,,0,50,50,17,,,,,,,,,,,HAP,2.538,None,None,None,None,None,None,,,,,,,,,,,,,,,2015_Sep_21_1640,K,facesParametric,4,59.6904405444,
./basicStim/02F_AN_O.jpg,,0,51,51,7,,,,,,,,,,,None,None,ANG,5.606,None,None,None,None,,,,,,,,,,,,,,,2015_Sep_21_1640,K,facesParametric,4,59.6904405444,
./basicStim/07F_HA_O.jpg,,0,52,52,31,,,,,,,,,,,HAP,1.781,None,None,None,None,None,None,,,,,,,,,,,,,,,2015_Sep_21_1640,K,facesParametric,4,59.6904405444,
./basicStim/07F_FE_O.jpg,,0,53,53,30,,,,,,,,,,,None,None,None,None,DIS,3.406,None,None,,,,,,,,,,,,,,,2015_Sep_21_1640,K,facesParametric,4,59.6904405444,
./basicStim/07F_AN_O.jpg,,0,54,54,28,,,,,,,,,,,None,None,ANG,2.748,None,None,None,None,,,,,,,,,,,,,,,2015_Sep_21_1640,K,facesParametric,4,59.6904405444,
./basicStim/23M_SA_C.jpg,,0,55,55,53,,,,,,,,,,,None,None,None,None,SUP,4.375,None,None,,,,,,,,,,,,,,,2015_Sep_21_1640,K,facesParametric,4,59.6904405444,
./basicStim/34M_FE_O.jpg,,0,56,56,72,,,,,,,,,,,None,None,FEA,2.483,None,None,None,None,,,,,,,,,,,,,,,2015_Sep_21_1640,K,facesParametric,4,59.6904405444,
./basicStim/28M_SP_O.jpg,,0,57,57,68,,,,,,,,,,,None,None,FEA,0.993,None,None,None,None,,,,,,,,,,,,,,,2015_Sep_21_1640,K,facesParametric,4,59.6904405444,
./basicStim/01F_SP_O.jpg,,0,58,58,5,,,,,,,,,,,None,None,None,None,SUP,3.174,None,None,,,,,,,,,,,,,,,2015_Sep_21_1640,K,facesParametric,4,59.6904405444,
./basicStim/03F_NE_C.jpg,,0,59,59,20,,,,,,,,,,,None,None,None,None,None,None,NTR,0.925,,,,,,,,,,,,,,,2015_Sep_21_1640,K,facesParametric,4,59.6904405444,
./basicStim/02F_FE_O.jpg,,0,60,60,9,,,,,,,,,,,None,None,None,None,SUP,3.612,None,None,,,,,,,,,,,,,,,2015_Sep_21_1640,K,facesParametric,4,59.6904405444,
./basicStim/21M_SA_C.jpg,,0,61,61,46,,,,,,,,,,,SAD,5.421,None,None,None,None,None,None,,,,,,,,,,,,,,,2015_Sep_21_1640,K,facesParametric,4,59.6904405444,
./basicStim/34M_NE_C.jpg,,0,62,62,76,,,,,,,,,,,None,None,None,None,None,None,NTR,1.864,,,,,,,,,,,,,,,2015_Sep_21_1640,K,facesParametric,4,59.6904405444,
./basicStim/01F_FE_O.jpg,,0,63,63,2,,,,,,,,,,,None,None,FEA,4.041,None,None,None,None,,,,,,,,,,,,,,,2015_Sep_21_1640,K,facesParametric,4,59.6904405444,
./basicStim/03F_FE_O.jpg,,0,64,64,16,,,,,,,,,,,None,None,None,None,SUP,4.107,None,None,,,,,,,,,,,,,,,2015_Sep_21_1640,K,facesParametric,4,59.6904405444,
./basicStim/02F_SA_C.jpg,,0,65,65,11,,,,,,,,,,,SAD,3.75,None,None,None,None,None,None,,,,,,,,,,,,,,,2015_Sep_21_1640,K,facesParametric,4,59.6904405444,
./basicStim/02F_SP_O.jpg,,0,66,66,12,,,,,,,,,,,HAP,4.529,None,None,None,None,None,None,,,,,,,,,,,,,,,2015_Sep_21_1640,K,facesParametric,4,59.6904405444,
./basicStim/23M_FE_O.jpg,,0,67,67,51,,,,,,,,,,,HAP,3.778,None,None,None,None,None,None,,,,,,,,,,,,,,,2015_Sep_21_1640,K,facesParametric,4,59.6904405444,
./basicStim/23M_HA_O.jpg,,0,68,68,52,,,,,,,,,,,HAP,2.655,None,None,None,None,None,None,,,,,,,,,,,,,,,2015_Sep_21_1640,K,facesParametric,4,59.6904405444,
./basicStim/07F_DI_O.jpg,,0,69,69,29,,,,,,,,,,,None,None,ANG,5.017,None,None,None,None,,,,,,,,,,,,,,,2015_Sep_21_1640,K,facesParametric,4,59.6904405444,
./basicStim/01F_AN_O.jpg,,0,70,70,0,,,,,,,,,,,None,None,ANG,2.401,None,None,None,None,,,,,,,,,,,,,,,2015_Sep_21_1640,K,facesParametric,4,59.6904405444,
./basicStim/24M_FE_O.jpg,,0,71,71,58,,,,,,,,,,,None,None,None,None,SUP,4.191,None,None,,,,,,,,,,,,,,,2015_Sep_21_1640,K,facesParametric,4,59.6904405444,
./basicStim/28M_HA_O.jpg,,0,72,72,66,,,,,,,,,,,HAP,2.936,None,None,None,None,None,None,,,,,,,,,,,,,,,2015_Sep_21_1640,K,facesParametric,4,59.6904405444,
./basicStim/03F_SP_O.jpg,,0,73,73,19,,,,,,,,,,,None,None,None,None,SUP,2.784,None,None,,,,,,,,,,,,,,,2015_Sep_21_1640,K,facesParametric,4,59.6904405444,
./basicStim/28M_FE_O.jpg,,0,74,74,65,,,,,,,,,,,None,None,FEA,2.046,None,None,None,None,,,,,,,,,,,,,,,2015_Sep_21_1640,K,facesParametric,4,59.6904405444,
./basicStim/28M_DI_O.jpg,,0,75,75,64,,,,,,,,,,,None,None,None,None,SUP,2.365,None,None,,,,,,,,,,,,,,,2015_Sep_21_1640,K,facesParametric,4,59.6904405444,
./basicStim/06F_FE_O.jpg,,0,76,76,23,,,,,,,,,,,None,None,FEA,2.735,None,None,None,None,,,,,,,,,,,,,,,2015_Sep_21_1640,K,facesParametric,4,59.6904405444,
./basicStim/36M_FE_O.jpg,,0,77,77,79,,,,,,,,,,,None,None,None,None,SUP,5.195,None,None,,,,,,,,,,,,,,,2015_Sep_21_1640,K,facesParametric,4,59.6904405444,
./basicStim/06F_NE_C.jpg,,0,78,78,27,,,,,,,,,,,None,None,None,None,None,None,NTR,1.547,,,,,,,,,,,,,,,2015_Sep_21_1640,K,facesParametric,4,59.6904405444,
./basicStim/24M_HA_O.jpg,,0,79,79,59,,,,,,,,,,,HAP,2.872,None,None,None,None,None,None,,,,,,,,,,,,,,,2015_Sep_21_1640,K,facesParametric,4,59.6904405444,
./basicStim/06F_DI_O.jpg,,0,80,80,22,,,,,,,,,,,None,None,FEA,3.444,None,None,None,None,,,,,,,,,,,,,,,2015_Sep_21_1640,K,facesParametric,4,59.6904405444,
./basicStim/34M_DI_O.jpg,,0,81,81,71,,,,,,,,,,,None,None,None,None,DIS,2.412,None,None,,,,,,,,,,,,,,,2015_Sep_21_1640,K,facesParametric,4,59.6904405444,
./basicStim/09F_DI_O.jpg,,0,82,82,36,,,,,,,,,,,None,None,None,None,DIS,1.75,None,None,,,,,,,,,,,,,,,2015_Sep_21_1640,K,facesParametric,4,59.6904405444,
./basicStim/21M_NE_C.jpg,,0,83,83,48,,,,,,,,,,,None,None,None,None,None,None,NTR,2.498,,,,,,,,,,,,,,,2015_Sep_21_1640,K,facesParametric,4,59.6904405444,
,,,,,,,,,,,,,,,,,,,,,,,,return,14.1798329353,,,,,,,,,,,,,2015_Sep_21_1640,K,facesParametric,4,59.6904405444,
,,,,,,,,,,,,,,return,21.0164058208,,,,,,,,,,,,,,,,,,,,,,,2015_Sep_21_1640,K,facesParametric,4,59.6904405444,
,,,,,,,,,,,,,,,,,,,,,,,,return,1.25682091713,,,,,,,,,,,,,2015_Sep_21_1640,K,facesParametric,4,59.6904405444,
,,,,,,,,,,,,,,,,,,,,,,,,,,return,2.39611196518,,,,,,,,,,,2015_Sep_21_1640,K,facesParametric,4,59.6904405444,
./stim/MorphF7_07_orig.jpg,0,,,,,0,0,0,0,,,,,,,,,,,,,,,,,,,4.833984375,-13.154296875,1,0,0,2.97952103615,,,,,2015_Sep_21_1640,K,facesParametric,4,59.6904405444,
./stim/MorphF4_07_orig.jpg,1,,,,,0,1,1,1,,,,,,,,,,,,,,,,,,,20.33203125,0.87890625,1,0,0,9.51448607445,,,,,2015_Sep_21_1640,K,facesParametric,4,59.6904405444,
./stim/MorphF6_08_orig.jpg,2,,,,,0,2,2,2,,,,,,,,,,,,,,,,,,,23.408203125,1.962890625,1,0,0,4.53919100761,,,,,2015_Sep_21_1640,K,facesParametric,4,59.6904405444,
./stim/MorphM10_02_orig.jpg,3,,,,,0,3,3,3,,,,,,,,,,,,,,,,,,,23.408203125,1.904296875,0,0,1,3.1327021122,,,,,2015_Sep_21_1640,K,facesParametric,4,59.6904405444,
./stim/MorphF10_07_orig.jpg,4,,,,,0,4,4,4,,,,,,,,,,,,,,,,,,,23.291015625,1.875,1,0,0,3.76825904846,,,,,2015_Sep_21_1640,K,facesParametric,4,59.6904405444,
./stim/MorphM3_04_orig.jpg,5,,,,,0,5,5,5,,,,,,,,,,,,,,,,,,,23.232421875,1.875,0,0,1,2.34475398064,,,,,2015_Sep_21_1640,K,facesParametric,4,59.6904405444,
./stim/MorphM4_06_orig.jpg,6,,,,,0,6,6,6,,,,,,,,,,,,,,,,,,,23.291015625,1.93359375,1,0,0,3.87070393562,,,,,2015_Sep_21_1640,K,facesParametric,4,59.6904405444,
./stim/MorphF9_06_orig.jpg,7,,,,,0,7,7,7,,,,,,,,,,,,,,,,,,,23.37890625,1.904296875,0,0,1,3.58505010605,,,,,2015_Sep_21_1640,K,facesParametric,4,59.6904405444,
./stim/MorphF2_06_orig.jpg,8,,,,,0,8,8,8,,,,,,,,,,,,,,,,,,,23.349609375,1.93359375,0,0,1,1.38909602165,,,,,2015_Sep_21_1640,K,facesParametric,4,59.6904405444,
./stim/MorphF10_08_orig.jpg,9,,,,,0,9,9,9,,,,,,,,,,,,,,,,,,,23.3203125,1.904296875,1,0,0,3.26731014252,,,,,2015_Sep_21_1640,K,facesParametric,4,59.6904405444,
./stim/MorphM2_05_orig.jpg,10,,,,,0,10,10,10,,,,,,,,,,,,,,,,,,,23.3203125,1.93359375,0,0,1,2.66335511208,,,,,2015_Sep_21_1640,K,facesParametric,4,59.6904405444,
./stim/MorphM8_04_orig.jpg,11,,,,,0,11,11,11,,,,,,,,,,,,,,,,,,,23.349609375,1.962890625,0,0,1,1.97631120682,,,,,2015_Sep_21_1640,K,facesParametric,4,59.6904405444,
./stim/MorphF10_01_orig.jpg,12,,,,,0,12,12,12,,,,,,,,,,,,,,,,,,,23.408203125,2.197265625,1,0,0,3.43430900574,,,,,2015_Sep_21_1640,K,facesParametric,4,59.6904405444,
./stim/MorphF6_10_orig.jpg,13,,,,,0,13,13,13,,,,,,,,,,,,,,,,,,,23.408203125,2.314453125,1,0,0,8.49600696564,,,,,2015_Sep_21_1640,K,facesParametric,4,59.6904405444,
./stim/MorphF5_07_orig.jpg,14,,,,,0,14,14,14,,,,,,,,,,,,,,,,,,,23.408203125,2.314453125,0,0,1,2.37870001793,,,,,2015_Sep_21_1640,K,facesParametric,4,59.6904405444,
./stim/MorphF4_04_orig.jpg,15,,,,,0,15,15,15,,,,,,,,,,,,,,,,,,,23.291015625,2.28515625,0,0,1,5.61327910423,,,,,2015_Sep_21_1640,K,facesParametric,4,59.6904405444,
./stim/MorphF2_09_orig.jpg,16,,,,,0,16,16,16,,,,,,,,,,,,,,,,,,,23.408203125,2.314453125,1,0,0,2.15860390663,,,,,2015_Sep_21_1640,K,facesParametric,4,59.6904405444,
./stim/MorphM3_02_orig.jpg,17,,,,,0,17,17,17,,,,,,,,,,,,,,,,,,,23.408203125,2.34375,1,0,0,2.81466078758,,,,,2015_Sep_21_1640,K,facesParametric,4,59.6904405444,
./stim/MorphM4_05_orig.jpg,18,,,,,0,18,18,18,,,,,,,,,,,,,,,,,,,23.349609375,2.34375,0,0,1,4.28903889656,,,,,2015_Sep_21_1640,K,facesParametric,4,59.6904405444,
./stim/MorphM6_08_orig.jpg,19,,,,,0,19,19,19,,,,,,,,,,,,,,,,,,,23.349609375,2.40234375,0,0,1,4.06943106651,,,,,2015_Sep_21_1640,K,facesParametric,4,59.6904405444,
./stim/MorphM2_08_orig.jpg,20,,,,,0,20,20,20,,,,,,,,,,,,,,,,,,,23.349609375,2.34375,0,0,1,6.09953212738,,,,,2015_Sep_21_1640,K,facesParametric,4,59.6904405444,
./stim/MorphF8_06_orig.jpg,21,,,,,0,21,21,21,,,,,,,,,,,,,,,,,,,23.3203125,2.2265625,1,0,0,2.4958050251,,,,,2015_Sep_21_1640,K,facesParametric,4,59.6904405444,
./stim/MorphM5_00_orig.jpg,22,,,,,0,22,22,22,,,,,,,,,,,,,,,,,,,23.26171875,2.2265625,0,0,1,4.60825705528,,,,,2015_Sep_21_1640,K,facesParametric,4,59.6904405444,
./stim/MorphM6_04_orig.jpg,23,,,,,0,23,23,23,,,,,,,,,,,,,,,,,,,23.26171875,2.2265625,0,0,1,3.68412709236,,,,,2015_Sep_21_1640,K,facesParametric,4,59.6904405444,
./stim/MorphM9_10_orig.jpg,24,,,,,0,24,24,24,,,,,,,,,,,,,,,,,,,23.232421875,2.16796875,1,0,0,2.026720047,,,,,2015_Sep_21_1640,K,facesParametric,4,59.6904405444,
./stim/MorphF3_01_orig.jpg,25,,,,,0,25,25,25,,,,,,,,,,,,,,,,,,,23.056640625,2.197265625,0,0,1,5.01009702682,,,,,2015_Sep_21_1640,K,facesParametric,4,59.6904405444,
./stim/MorphF8_07_orig.jpg,26,,,,,0,26,26,26,,,,,,,,,,,,,,,,,,,22.880859375,2.138671875,0,0,1,4.52351307869,,,,,2015_Sep_21_1640,K,facesParametric,4,59.6904405444,
./stim/MorphF3_04_orig.jpg,27,,,,,0,27,27,27,,,,,,,,,,,,,,,,,,,22.880859375,2.138671875,0,0,1,2.04371905327,,,,,2015_Sep_21_1640,K,facesParametric,4,59.6904405444,
./stim/MorphM1_09_orig.jpg,28,,,,,0,28,28,28,,,,,,,,,,,,,,,,,,,22.939453125,2.080078125,1,0,0,4.27200007439,,,,,2015_Sep_21_1640,K,facesParametric,4,59.6904405444,
./stim/MorphF9_02_orig.jpg,29,,,,,0,29,29,29,,,,,,,,,,,,,,,,,,,22.44140625,2.314453125,0,0,1,4.52367901802,,,,,2015_Sep_21_1640,K,facesParametric,4,59.6904405444,
./stim/MorphM1_08_orig.jpg,30,,,,,0,30,30,30,,,,,,,,,,,,,,,,,,,22.294921875,2.34375,1,0,0,2.57982301712,,,,,2015_Sep_21_1640,K,facesParametric,4,59.6904405444,
./stim/MorphF6_02_orig.jpg,31,,,,,0,31,31,31,,,,,,,,,,,,,,,,,,,21.826171875,2.314453125,0,0,1,2.62989091873,,,,,2015_Sep_21_1640,K,facesParametric,4,59.6904405444,
./stim/MorphF9_03_orig.jpg,32,,,,,0,32,32,32,,,,,,,,,,,,,,,,,,,21.62109375,2.255859375,0,0,1,2.04367208481,,,,,2015_Sep_21_1640,K,facesParametric,4,59.6904405444,
./stim/MorphM3_03_orig.jpg,33,,,,,0,33,33,33,,,,,,,,,,,,,,,,,,,21.591796875,2.197265625,1,0,0,1.80780696869,,,,,2015_Sep_21_1640,K,facesParametric,4,59.6904405444,
./stim/MorphF5_08_orig.jpg,34,,,,,0,34,34,34,,,,,,,,,,,,,,,,,,,21.62109375,2.16796875,1,0,0,2.24495792389,,,,,2015_Sep_21_1640,K,facesParametric,4,59.6904405444,
./stim/MorphF6_01_orig.jpg,35,,,,,0,35,35,35,,,,,,,,,,,,,,,,,,,21.50390625,2.16796875,0,0,1,1.94203996658,,,,,2015_Sep_21_1640,K,facesParametric,4,59.6904405444,
./stim/MorphM9_06_orig.jpg,36,,,,,0,36,36,36,,,,,,,,,,,,,,,,,,,21.328125,2.080078125,0,0,1,1.94257521629,,,,,2015_Sep_21_1640,K,facesParametric,4,59.6904405444,
./stim/MorphM10_06_orig.jpg,37,,,,,0,37,37,37,,,,,,,,,,,,,,,,,,,21.328125,2.109375,1,0,0,2.71229696274,,,,,2015_Sep_21_1640,K,facesParametric,4,59.6904405444,
./stim/MorphM8_10_orig.jpg,38,,,,,0,38,38,38,,,,,,,,,,,,,,,,,,,21.4453125,2.138671875,1,0,0,1.55789494514,,,,,2015_Sep_21_1640,K,facesParametric,4,59.6904405444,
./stim/MorphM1_10_orig.jpg,39,,,,,0,39,39,39,,,,,,,,,,,,,,,,,,,21.38671875,2.138671875,1,0,0,3.73559689522,,,,,2015_Sep_21_1640,K,facesParametric,4,59.6904405444,
./stim/MorphF8_00_orig.jpg,40,,,,,0,40,40,40,,,,,,,,,,,,,,,,,,,21.298828125,2.080078125,0,0,1,1.67437696457,,,,,2015_Sep_21_1640,K,facesParametric,4,59.6904405444,
./stim/MorphM10_07_orig.jpg,41,,,,,0,41,41,41,,,,,,,,,,,,,,,,,,,21.26953125,2.05078125,1,0,0,2.05978393555,,,,,2015_Sep_21_1640,K,facesParametric,4,59.6904405444,
./stim/MorphF3_00_orig.jpg,42,,,,,0,42,42,42,,,,,,,,,,,,,,,,,,,21.240234375,2.05078125,0,0,1,3.51771688461,,,,,2015_Sep_21_1640,K,facesParametric,4,59.6904405444,
./stim/MorphM3_10_orig.jpg,43,,,,,0,43,43,43,,,,,,,,,,,,,,,,,,,21.240234375,2.05078125,1,0,0,1.48913502693,,,,,2015_Sep_21_1640,K,facesParametric,4,59.6904405444,
./stim/MorphF9_08_orig.jpg,44,,,,,0,44,44,44,,,,,,,,,,,,,,,,,,,21.181640625,2.05078125,0,0,1,3.24914121628,,,,,2015_Sep_21_1640,K,facesParametric,4,59.6904405444,
./stim/MorphF5_09_orig.jpg,45,,,,,0,45,45,45,,,,,,,,,,,,,,,,,,,21.240234375,2.05078125,1,0,0,1.9098238945,,,,,2015_Sep_21_1640,K,facesParametric,4,59.6904405444,
./stim/MorphF7_02_orig.jpg,46,,,,,0,46,46,46,,,,,,,,,,,,,,,,,,,21.181640625,2.109375,0,0,1,1.84221100807,,,,,2015_Sep_21_1640,K,facesParametric,4,59.6904405444,
./stim/MorphF2_05_orig.jpg,47,,,,,0,47,47,47,,,,,,,,,,,,,,,,,,,21.181640625,2.080078125,1,0,0,4.49069595337,,,,,2015_Sep_21_1640,K,facesParametric,4,59.6904405444,
./stim/MorphF9_05_orig.jpg,48,,,,,0,48,48,48,,,,,,,,,,,,,,,,,,,21.181640625,2.080078125,0,0,1,4.57158112526,,,,,2015_Sep_21_1640,K,facesParametric,4,59.6904405444,
./stim/MorphM3_09_orig.jpg,49,,,,,0,49,49,49,,,,,,,,,,,,,,,,,,,21.2109375,2.109375,1,0,0,2.04248213768,,,,,2015_Sep_21_1640,K,facesParametric,4,59.6904405444,
./stim/MorphF4_09_orig.jpg,50,,,,,0,50,50,50,,,,,,,,,,,,,,,,,,,21.2109375,2.109375,1,0,0,2.0769610405,,,,,2015_Sep_21_1640,K,facesParametric,4,59.6904405444,
./stim/MorphM9_09_orig.jpg,51,,,,,0,51,51,51,,,,,,,,,,,,,,,,,,,21.328125,2.16796875,1,0,0,3.92033696175,,,,,2015_Sep_21_1640,K,facesParametric,4,59.6904405444,
./stim/MorphM5_07_orig.jpg,52,,,,,0,52,52,52,,,,,,,,,,,,,,,,,,,21.181640625,2.16796875,0,0,1,2.12531304359,,,,,2015_Sep_21_1640,K,facesParametric,4,59.6904405444,
./stim/MorphF4_01_orig.jpg,53,,,,,0,53,53,53,,,,,,,,,,,,,,,,,,,21.181640625,2.16796875,0,0,1,2.294465065,,,,,2015_Sep_21_1640,K,facesParametric,4,59.6904405444,
./stim/MorphF7_05_orig.jpg,54,,,,,0,54,54,54,,,,,,,,,,,,,,,,,,,21.181640625,2.16796875,0,0,1,1.55684685707,,,,,2015_Sep_21_1640,K,facesParametric,4,59.6904405444,
./stim/MorphM6_03_orig.jpg,55,,,,,0,55,55,55,,,,,,,,,,,,,,,,,,,21.15234375,2.197265625,0,0,1,3.30004191399,,,,,2015_Sep_21_1640,K,facesParametric,4,59.6904405444,
./stim/MorphF3_10_orig.jpg,56,,,,,0,56,56,56,,,,,,,,,,,,,,,,,,,19.951171875,-4.62890625,1,0,0,8.31134200096,,,,,2015_Sep_21_1640,K,facesParametric,4,59.6904405444,
./stim/MorphM2_03_orig.jpg,57,,,,,0,57,57,57,,,,,,,,,,,,,,,,,,,19.833984375,-4.62890625,0,0,1,1.52406311035,,,,,2015_Sep_21_1640,K,facesParametric,4,59.6904405444,
./stim/MorphF5_01_orig.jpg,58,,,,,0,58,58,58,,,,,,,,,,,,,,,,,,,19.365234375,-4.62890625,0,0,1,4.0704100132,,,,,2015_Sep_21_1640,K,facesParametric,4,59.6904405444,
./stim/MorphF3_03_orig.jpg,59,,,,,0,59,59,59,,,,,,,,,,,,,,,,,,,19.365234375,-4.62890625,0,0,1,4.02013087273,,,,,2015_Sep_21_1640,K,facesParametric,4,59.6904405444,
./stim/MorphF2_02_orig.jpg,60,,,,,0,60,60,60,,,,,,,,,,,,,,,,,,,19.365234375,-4.62890625,0,0,1,3.51818799973,,,,,2015_Sep_21_1640,K,facesParametric,4,59.6904405444,
./stim/MorphF4_02_orig.jpg,61,,,,,0,61,61,61,,,,,,,,,,,,,,,,,,,20.44921875,-11.689453125,0,0,1,9.56833004951,,,,,2015_Sep_21_1640,K,facesParametric,4,59.6904405444,
./stim/MorphM6_01_orig.jpg,62,,,,,0,62,62,62,,,,,,,,,,,,,,,,,,,20.44921875,-11.689453125,0,0,1,2.63020682335,,,,,2015_Sep_21_1640,K,facesParametric,4,59.6904405444,
./stim/MorphF1_01_orig.jpg,63,,,,,0,63,63,63,,,,,,,,,,,,,,,,,,,20.44921875,-11.689453125,0,0,1,1.70794391632,,,,,2015_Sep_21_1640,K,facesParametric,4,59.6904405444,
./stim/MorphM6_00_orig.jpg,64,,,,,0,64,64,64,,,,,,,,,,,,,,,,,,,20.478515625,-11.689453125,0,0,1,1.1533100605,,,,,2015_Sep_21_1640,K,facesParametric,4,59.6904405444,
./stim/MorphM9_07_orig.jpg,65,,,,,0,65,65,65,,,,,,,,,,,,,,,,,,,20.5078125,-11.71875,1,0,0,3.33465600014,,,,,2015_Sep_21_1640,K,facesParametric,4,59.6904405444,
./stim/MorphM7_07_orig.jpg,66,,,,,0,66,66,66,,,,,,,,,,,,,,,,,,,20.5078125,-11.71875,1,0,0,1.08685803413,,,,,2015_Sep_21_1640,K,facesParametric,4,59.6904405444,
./stim/MorphM10_08_orig.jpg,67,,,,,0,67,67,67,,,,,,,,,,,,,,,,,,,20.5078125,-11.71875,1,0,0,1.22251796722,,,,,2015_Sep_21_1640,K,facesParametric,4,59.6904405444,
./stim/MorphM7_06_orig.jpg,68,,,,,0,68,68,68,,,,,,,,,,,,,,,,,,,20.5078125,-11.71875,1,0,0,1.15522694588,,,,,2015_Sep_21_1640,K,facesParametric,4,59.6904405444,
./stim/MorphF9_00_orig.jpg,69,,,,,0,69,69,69,,,,,,,,,,,,,,,,,,,20.44921875,-11.71875,0,0,1,2.2274389267,,,,,2015_Sep_21_1640,K,facesParametric,4,59.6904405444,
./stim/MorphM3_07_orig.jpg,70,,,,,0,70,70,70,,,,,,,,,,,,,,,,,,,20.419921875,-11.71875,1,0,0,1.47364902496,,,,,2015_Sep_21_1640,K,facesParametric,4,59.6904405444,
./stim/MorphM1_00_orig.jpg,71,,,,,0,71,71,71,,,,,,,,,,,,,,,,,,,20.244140625,-11.77734375,0,0,1,2.57942986488,,,,,2015_Sep_21_1640,K,facesParametric,4,59.6904405444,
./stim/MorphF7_03_orig.jpg,72,,,,,0,72,72,72,,,,,,,,,,,,,,,,,,,20.21484375,-11.77734375,0,0,1,2.12745189667,,,,,2015_Sep_21_1640,K,facesParametric,4,59.6904405444,
./stim/MorphM4_07_orig.jpg,73,,,,,0,73,73,73,,,,,,,,,,,,,,,,,,,20.21484375,-11.77734375,1,0,0,1.99296188354,,,,,2015_Sep_21_1640,K,facesParametric,4,59.6904405444,
./stim/MorphM8_07_orig.jpg,74,,,,,0,74,74,74,,,,,,,,,,,,,,,,,,,20.244140625,-11.8359375,1,0,0,1.84279608727,,,,,2015_Sep_21_1640,K,facesParametric,4,59.6904405444,
./stim/MorphM5_04_orig.jpg,75,,,,,0,75,75,75,,,,,,,,,,,,,,,,,,,20.2734375,-11.865234375,0,0,1,1.67504000664,,,,,2015_Sep_21_1640,K,facesParametric,4,59.6904405444,
./stim/MorphM4_00_orig.jpg,76,,,,,0,76,76,76,,,,,,,,,,,,,,,,,,,20.21484375,-11.89453125,0,0,1,3.06351399422,,,,,2015_Sep_21_1640,K,facesParametric,4,59.6904405444,
./stim/MorphF8_04_orig.jpg,77,,,,,0,77,77,77,,,,,,,,,,,,,,,,,,,20.09765625,-11.923828125,0,0,1,3.73490786552,,,,,2015_Sep_21_1640,K,facesParametric,4,59.6904405444,
./stim/MorphF1_03_orig.jpg,78,,,,,0,78,78,78,,,,,,,,,,,,,,,,,,,20.126953125,-11.953125,0,0,1,1.30581307411,,,,,2015_Sep_21_1640,K,facesParametric,4,59.6904405444,
./stim/MorphM5_10_orig.jpg,79,,,,,0,79,79,79,,,,,,,,,,,,,,,,,,,20.09765625,-11.953125,1,0,0,5.74615383148,,,,,2015_Sep_21_1640,K,facesParametric,4,59.6904405444,
./stim/MorphM4_04_orig.jpg,80,,,,,0,80,80,80,,,,,,,,,,,,,,,,,,,19.5703125,-11.8359375,1,0,0,3.51872014999,,,,,2015_Sep_21_1640,K,facesParametric,4,59.6904405444,
./stim/MorphM1_02_orig.jpg,81,,,,,0,81,81,81,,,,,,,,,,,,,,,,,,,22.8515625,-10.224609375,1,0,0,5.19370102882,,,,,2015_Sep_21_1640,K,facesParametric,4,59.6904405444,
./stim/MorphM2_00_orig.jpg,82,,,,,0,82,82,82,,,,,,,,,,,,,,,,,,,22.763671875,-9.90234375,0,0,1,2.15991806984,,,,,2015_Sep_21_1640,K,facesParametric,4,59.6904405444,
./stim/MorphF5_10_orig.jpg,83,,,,,0,83,83,83,,,,,,,,,,,,,,,,,,,22.763671875,-9.755859375,1,0,0,2.0598731041,,,,,2015_Sep_21_1640,K,facesParametric,4,59.6904405444,
./stim/MorphF1_04_orig.jpg,84,,,,,0,84,84,84,,,,,,,,,,,,,,,,,,,22.705078125,-9.697265625,0,0,1,2.81403303146,,,,,2015_Sep_21_1640,K,facesParametric,4,59.6904405444,
./stim/MorphM8_05_orig.jpg,85,,,,,0,85,85,85,,,,,,,,,,,,,,,,,,,22.705078125,-9.697265625,1,0,0,4.82599496841,,,,,2015_Sep_21_1640,K,facesParametric,4,59.6904405444,
./stim/MorphF9_01_orig.jpg,86,,,,,0,86,86,86,,,,,,,,,,,,,,,,,,,22.236328125,-9.66796875,0,0,1,1.13819003105,,,,,2015_Sep_21_1640,K,facesParametric,4,59.6904405444,
./stim/MorphM5_02_orig.jpg,87,,,,,0,87,87,87,,,,,,,,,,,,,,,,,,,22.119140625,-9.7265625,0,0,1,3.3677611351,,,,,2015_Sep_21_1640,K,facesParametric,4,59.6904405444,
./stim/MorphF8_05_orig.jpg,88,,,,,0,88,88,88,,,,,,,,,,,,,,,,,,,22.08984375,-9.931640625,0,0,1,2.89831805229,,,,,2015_Sep_21_1640,K,facesParametric,4,59.6904405444,
./stim/MorphM6_02_orig.jpg,89,,,,,0,89,89,89,,,,,,,,,,,,,,,,,,,22.060546875,-9.9609375,0,0,1,1.55715584755,,,,,2015_Sep_21_1640,K,facesParametric,4,59.6904405444,
./stim/MorphF5_06_orig.jpg,90,,,,,0,90,90,90,,,,,,,,,,,,,,,,,,,22.060546875,-10.078125,0,0,1,1.25354719162,,,,,2015_Sep_21_1640,K,facesParametric,4,59.6904405444,
./stim/MorphM4_01_orig.jpg,91,,,,,0,91,91,91,,,,,,,,,,,,,,,,,,,22.001953125,-10.107421875,0,0,1,3.16658806801,,,,,2015_Sep_21_1640,K,facesParametric,4,59.6904405444,
./stim/MorphF7_09_orig.jpg,92,,,,,0,92,92,92,,,,,,,,,,,,,,,,,,,22.20703125,-10.078125,1,0,0,5.2948820591,,,,,2015_Sep_21_1640,K,facesParametric,4,59.6904405444,
./stim/MorphF10_02_orig.jpg,93,,,,,0,93,93,93,,,,,,,,,,,,,,,,,,,22.08984375,-10.1953125,0,0,1,1.95726490021,,,,,2015_Sep_21_1640,K,facesParametric,4,59.6904405444,
./stim/MorphF6_07_orig.jpg,94,,,,,0,94,94,94,,,,,,,,,,,,,,,,,,,22.119140625,-10.224609375,0,0,1,3.78639817238,,,,,2015_Sep_21_1640,K,facesParametric,4,59.6904405444,
./stim/MorphF7_04_orig.jpg,95,,,,,0,95,95,95,,,,,,,,,,,,,,,,,,,22.119140625,-10.224609375,0,0,1,1.32243180275,,,,,2015_Sep_21_1640,K,facesParametric,4,59.6904405444,
./stim/MorphM9_08_orig.jpg,96,,,,,0,96,96,96,,,,,,,,,,,,,,,,,,,22.119140625,-10.224609375,0,0,1,2.69688606262,,,,,2015_Sep_21_1640,K,facesParametric,4,59.6904405444,
./stim/MorphM4_10_orig.jpg,97,,,,,0,97,97,97,,,,,,,,,,,,,,,,,,,22.119140625,-10.166015625,1,0,0,2.04296398163,,,,,2015_Sep_21_1640,K,facesParametric,4,59.6904405444,
./stim/MorphF3_06_orig.jpg,98,,,,,0,98,98,98,,,,,,,,,,,,,,,,,,,22.08984375,-12.1875,0,0,1,6.38189101219,,,,,2015_Sep_21_1640,K,facesParametric,4,59.6904405444,
./stim/MorphM7_00_orig.jpg,99,,,,,0,99,99,99,,,,,,,,,,,,,,,,,,,21.357421875,-12.5390625,0,0,1,4.07161998749,,,,,2015_Sep_21_1640,K,facesParametric,4,59.6904405444,
./stim/MorphM5_05_orig.jpg,100,,,,,0,100,100,100,,,,,,,,,,,,,,,,,,,21.26953125,-12.158203125,0,0,1,3.61876511574,,,,,2015_Sep_21_1640,K,facesParametric,4,59.6904405444,
./stim/MorphM9_00_orig.jpg,101,,,,,0,101,101,101,,,,,,,,,,,,,,,,,,,19.453125,-13.154296875,0,0,1,3.76932811737,,,,,2015_Sep_21_1640,K,facesParametric,4,59.6904405444,
./stim/MorphM3_06_orig.jpg,102,,,,,0,102,102,102,,,,,,,,,,,,,,,,,,,19.365234375,-12.978515625,1,0,0,1.65824699402,,,,,2015_Sep_21_1640,K,facesParametric,4,59.6904405444,
./stim/MorphF2_08_orig.jpg,103,,,,,0,103,103,103,,,,,,,,,,,,,,,,,,,19.39453125,-12.94921875,1,0,0,1.23870801926,,,,,2015_Sep_21_1640,K,facesParametric,4,59.6904405444,
./stim/MorphM5_06_orig.jpg,104,,,,,0,104,104,104,,,,,,,,,,,,,,,,,,,18.8671875,-13.154296875,0,0,1,1.87607192993,,,,,2015_Sep_21_1640,K,facesParametric,4,59.6904405444,
./stim/MorphF7_06_orig.jpg,105,,,,,0,105,105,105,,,,,,,,,,,,,,,,,,,18.779296875,-13.154296875,0,0,1,2.63013195992,,,,,2015_Sep_21_1640,K,facesParametric,4,59.6904405444,
./stim/MorphM7_01_orig.jpg,106,,,,,0,106,106,106,,,,,,,,,,,,,,,,,,,18.80859375,-13.125,0,0,1,1.99299693108,,,,,2015_Sep_21_1640,K,facesParametric,4,59.6904405444,
./stim/MorphM6_05_orig.jpg,107,,,,,0,107,107,107,,,,,,,,,,,,,,,,,,,18.80859375,-13.125,0,0,1,1.64097905159,,,,,2015_Sep_21_1640,K,facesParametric,4,59.6904405444,
./stim/MorphF8_01_orig.jpg,108,,,,,0,108,108,108,,,,,,,,,,,,,,,,,,,18.779296875,-13.095703125,0,0,1,1.27271604538,,,,,2015_Sep_21_1640,K,facesParametric,4,59.6904405444,
./stim/MorphM2_01_orig.jpg,109,,,,,0,109,109,109,,,,,,,,,,,,,,,,,,,18.779296875,-13.095703125,0,0,1,1.58975696564,,,,,2015_Sep_21_1640,K,facesParametric,4,59.6904405444,
./stim/MorphF4_10_orig.jpg,110,,,,,0,110,110,110,,,,,,,,,,,,,,,,,,,18.80859375,-13.095703125,0,0,1,5.39366984367,,,,,2015_Sep_21_1640,K,facesParametric,4,59.6904405444,
./stim/MorphM5_01_orig.jpg,111,,,,,0,111,111,111,,,,,,,,,,,,,,,,,,,18.837890625,-13.125,0,0,1,1.05454206467,,,,,2015_Sep_21_1640,K,facesParametric,4,59.6904405444,
./stim/MorphM10_04_orig.jpg,112,,,,,0,112,112,112,,,,,,,,,,,,,,,,,,,18.779296875,-13.125,1,0,0,2.69703102112,,,,,2015_Sep_21_1640,K,facesParametric,4,59.6904405444,
./stim/MorphF3_05_orig.jpg,113,,,,,0,113,113,113,,,,,,,,,,,,,,,,,,,18.8671875,-13.154296875,0,0,1,2.91437411308,,,,,2015_Sep_21_1640,K,facesParametric,4,59.6904405444,
./stim/MorphF2_07_orig.jpg,114,,,,,0,114,114,114,,,,,,,,,,,,,,,,,,,18.837890625,-13.154296875,1,0,0,1.79185414314,,,,,2015_Sep_21_1640,K,facesParametric,4,59.6904405444,
./stim/MorphM5_08_orig.jpg,115,,,,,0,115,115,115,,,,,,,,,,,,,,,,,,,18.837890625,-13.125,0,0,1,1.89125800133,,,,,2015_Sep_21_1640,K,facesParametric,4,59.6904405444,
./stim/MorphM10_05_orig.jpg,116,,,,,0,116,116,116,,,,,,,,,,,,,,,,,,,18.80859375,-13.125,1,0,0,2.21100091934,,,,,2015_Sep_21_1640,K,facesParametric,4,59.6904405444,
./stim/MorphM4_03_orig.jpg,117,,,,,0,117,117,117,,,,,,,,,,,,,,,,,,,18.92578125,-13.095703125,0,0,1,2.32843995094,,,,,2015_Sep_21_1640,K,facesParametric,4,59.6904405444,
./stim/MorphF10_09_orig.jpg,118,,,,,0,118,118,118,,,,,,,,,,,,,,,,,,,19.072265625,-13.125,1,0,0,1.5220079422,,,,,2015_Sep_21_1640,K,facesParametric,4,59.6904405444,
./stim/MorphM1_01_orig.jpg,119,,,,,0,119,119,119,,,,,,,,,,,,,,,,,,,19.130859375,-13.154296875,0,0,1,2.37897801399,,,,,2015_Sep_21_1640,K,facesParametric,4,59.6904405444,
./stim/MorphF4_06_orig.jpg,120,,,,,0,120,120,120,,,,,,,,,,,,,,,,,,,19.16015625,-13.154296875,0,0,1,1.59079098701,,,,,2015_Sep_21_1640,K,facesParametric,4,59.6904405444,
./stim/MorphM3_01_orig.jpg,121,,,,,0,121,121,121,,,,,,,,,,,,,,,,,,,19.1015625,-13.154296875,1,0,0,1.87605881691,,,,,2015_Sep_21_1640,K,facesParametric,4,59.6904405444,
./stim/MorphF3_07_orig.jpg,122,,,,,0,122,122,122,,,,,,,,,,,,,,,,,,,19.04296875,-13.154296875,0,0,1,1.27153205872,,,,,2015_Sep_21_1640,K,facesParametric,4,59.6904405444,
./stim/MorphF10_05_orig.jpg,123,,,,,0,123,123,123,,,,,,,,,,,,,,,,,,,18.955078125,-13.154296875,1,0,0,2.42867803574,,,,,2015_Sep_21_1640,K,facesParametric,4,59.6904405444,
./stim/MorphF3_02_orig.jpg,124,,,,,0,124,124,124,,,,,,,,,,,,,,,,,,,18.984375,-13.06640625,0,0,1,1.08773899078,,,,,2015_Sep_21_1640,K,facesParametric,4,59.6904405444,
./stim/MorphF2_01_orig.jpg,125,,,,,0,125,125,125,,,,,,,,,,,,,,,,,,,18.896484375,-13.0078125,0,0,1,1.35558509827,,,,,2015_Sep_21_1640,K,facesParametric,4,59.6904405444,
./stim/MorphM7_09_orig.jpg,126,,,,,0,126,126,126,,,,,,,,,,,,,,,,,,,19.013671875,-12.890625,1,0,0,1.52413702011,,,,,2015_Sep_21_1640,K,facesParametric,4,59.6904405444,
./stim/MorphF2_03_orig.jpg,127,,,,,0,127,127,127,,,,,,,,,,,,,,,,,,,19.04296875,-12.83203125,0,0,1,1.13855791092,,,,,2015_Sep_21_1640,K,facesParametric,4,59.6904405444,
./stim/MorphM2_04_orig.jpg,128,,,,,0,128,128,128,,,,,,,,,,,,,,,,,,,19.013671875,-12.802734375,0,0,1,1.92606592178,,,,,2015_Sep_21_1640,K,facesParametric,4,59.6904405444,
./stim/MorphM3_08_orig.jpg,129,,,,,0,129,129,129,,,,,,,,,,,,,,,,,,,19.04296875,-12.744140625,1,0,0,1.33931088448,,,,,2015_Sep_21_1640,K,facesParametric,4,59.6904405444,
./stim/MorphM2_10_orig.jpg,130,,,,,0,130,130,130,,,,,,,,,,,,,,,,,,,19.16015625,-12.94921875,1,0,0,1.80898809433,,,,,2015_Sep_21_1640,K,facesParametric,4,59.6904405444,
./stim/MorphM8_09_orig.jpg,131,,,,,0,131,131,131,,,,,,,,,,,,,,,,,,,18.45703125,-12.94921875,1,0,0,1.42152190208,,,,,2015_Sep_21_1640,K,facesParametric,4,59.6904405444,
./stim/MorphM1_04_orig.jpg,132,,,,,0,132,132,132,,,,,,,,,,,,,,,,,,,18.3984375,-12.861328125,0,0,1,2.84569811821,,,,,2015_Sep_21_1640,K,facesParametric,4,59.6904405444,
./stim/MorphM10_00_orig.jpg,133,,,,,0,133,133,133,,,,,,,,,,,,,,,,,,,18.1640625,-13.095703125,0,0,1,3.78671789169,,,,,2015_Sep_21_1640,K,facesParametric,4,59.6904405444,
./stim/MorphM7_08_orig.jpg,134,,,,,0,134,134,134,,,,,,,,,,,,,,,,,,,18.10546875,-13.154296875,1,0,0,1.52338290215,,,,,2015_Sep_21_1640,K,facesParametric,4,59.6904405444,
./stim/MorphF1_10_orig.jpg,135,,,,,0,135,135,135,,,,,,,,,,,,,,,,,,,17.87109375,-12.94921875,0,0,1,2.68003201485,,,,,2015_Sep_21_1640,K,facesParametric,4,59.6904405444,
./stim/MorphM9_05_orig.jpg,136,,,,,0,136,136,136,,,,,,,,,,,,,,,,,,,17.8125,-12.919921875,0,0,1,4.27106881142,,,,,2015_Sep_21_1640,K,facesParametric,4,59.6904405444,
./stim/MorphM10_03_orig.jpg,137,,,,,0,137,137,137,,,,,,,,,,,,,,,,,,,17.9296875,-12.83203125,1,0,0,1.3392059803,,,,,2015_Sep_21_1640,K,facesParametric,4,59.6904405444,
./stim/MorphM6_07_orig.jpg,138,,,,,0,138,138,138,,,,,,,,,,,,,,,,,,,17.958984375,-12.83203125,0,0,1,1.74207901955,,,,,2015_Sep_21_1640,K,facesParametric,4,59.6904405444,
./stim/MorphM9_02_orig.jpg,139,,,,,0,139,139,139,,,,,,,,,,,,,,,,,,,17.9296875,-12.802734375,0,0,1,2.4621720314,,,,,2015_Sep_21_1640,K,facesParametric,4,59.6904405444,
./stim/MorphF2_04_orig.jpg,140,,,,,0,140,140,140,,,,,,,,,,,,,,,,,,,17.900390625,-12.802734375,1,0,0,3.23356413841,,,,,2015_Sep_21_1640,K,facesParametric,4,59.6904405444,
./stim/MorphF10_04_orig.jpg,141,,,,,0,141,141,141,,,,,,,,,,,,,,,,,,,17.900390625,-12.744140625,1,0,0,1.52225399017,,,,,2015_Sep_21_1640,K,facesParametric,4,59.6904405444,
./stim/MorphM9_01_orig.jpg,142,,,,,0,142,142,142,,,,,,,,,,,,,,,,,,,17.9296875,-12.71484375,0,0,1,1.82539105415,,,,,2015_Sep_21_1640,K,facesParametric,4,59.6904405444,
./stim/MorphF5_05_orig.jpg,143,,,,,0,143,143,143,,,,,,,,,,,,,,,,,,,17.900390625,-12.744140625,0,0,1,1.53923892975,,,,,2015_Sep_21_1640,K,facesParametric,4,59.6904405444,
./stim/MorphM8_01_orig.jpg,144,,,,,0,144,144,144,,,,,,,,,,,,,,,,,,,17.75390625,-12.5390625,0,0,1,8.42809796333,,,,,2015_Sep_21_1640,K,facesParametric,4,59.6904405444,
./stim/MorphF3_09_orig.jpg,145,,,,,0,145,145,145,,,,,,,,,,,,,,,,,,,17.783203125,-12.48046875,1,0,0,2.02629899979,,,,,2015_Sep_21_1640,K,facesParametric,4,59.6904405444,
./stim/MorphF5_04_orig.jpg,146,,,,,0,146,146,146,,,,,,,,,,,,,,,,,,,17.8125,-12.392578125,0,0,1,1.22108197212,,,,,2015_Sep_21_1640,K,facesParametric,4,59.6904405444,
./stim/MorphM1_06_orig.jpg,147,,,,,0,147,147,147,,,,,,,,,,,,,,,,,,,17.8125,-12.392578125,0,0,1,2.21025490761,,,,,2015_Sep_21_1640,K,facesParametric,4,59.6904405444,
./stim/MorphF8_08_orig.jpg,148,,,,,0,148,148,148,,,,,,,,,,,,,,,,,,,17.724609375,-12.333984375,1,0,0,1.15468788147,,,,,2015_Sep_21_1640,K,facesParametric,4,59.6904405444,
./stim/MorphF1_06_orig.jpg,149,,,,,0,149,149,149,,,,,,,,,,,,,,,,,,,17.783203125,-12.333984375,0,0,1,1.18641114235,,,,,2015_Sep_21_1640,K,facesParametric,4,59.6904405444,
./stim/MorphF6_03_orig.jpg,150,,,,,0,150,150,150,,,,,,,,,,,,,,,,,,,17.783203125,-12.333984375,1,0,0,1.40654397011,,,,,2015_Sep_21_1640,K,facesParametric,4,59.6904405444,
./stim/MorphF1_07_orig.jpg,151,,,,,0,151,151,151,,,,,,,,,,,,,,,,,,,17.724609375,-12.275390625,0,0,1,1.08799600601,,,,,2015_Sep_21_1640,K,facesParametric,4,59.6904405444,
./stim/MorphM2_09_orig.jpg,152,,,,,0,152,152,152,,,,,,,,,,,,,,,,,,,17.607421875,-12.216796875,1,0,0,2.21143317223,,,,,2015_Sep_21_1640,K,facesParametric,4,59.6904405444,
./stim/MorphM7_02_orig.jpg,153,,,,,0,153,153,153,,,,,,,,,,,,,,,,,,,17.51953125,-12.158203125,1,0,0,3.80321192741,,,,,2015_Sep_21_1640,K,facesParametric,4,59.6904405444,
./stim/MorphF6_04_orig.jpg,154,,,,,0,154,154,154,,,,,,,,,,,,,,,,,,,18.28125,-10.693359375,0,0,1,5.66230392456,,,,,2015_Sep_21_1640,K,facesParametric,4,59.6904405444,
./stim/MorphF7_01_orig.jpg,155,,,,,0,155,155,155,,,,,,,,,,,,,,,,,,,18.28125,-10.693359375,0,0,1,1.70606803894,,,,,2015_Sep_21_1640,K,facesParametric,4,59.6904405444,
./stim/MorphM2_07_orig.jpg,156,,,,,0,156,156,156,,,,,,,,,,,,,,,,,,,18.28125,-10.576171875,0,0,1,1.15514993668,,,,,2015_Sep_21_1640,K,facesParametric,4,59.6904405444,
./stim/MorphF6_00_orig.jpg,157,,,,,0,157,157,157,,,,,,,,,,,,,,,,,,,18.28125,-10.576171875,0,0,1,1.30624604225,,,,,2015_Sep_21_1640,K,facesParametric,4,59.6904405444,
./stim/MorphF7_08_orig.jpg,158,,,,,0,158,158,158,,,,,,,,,,,,,,,,,,,21.533203125,-9.580078125,1,0,0,4.15460300446,,,,,2015_Sep_21_1640,K,facesParametric,4,59.6904405444,
./stim/MorphM5_09_orig.jpg,159,,,,,0,159,159,159,,,,,,,,,,,,,,,,,,,21.533203125,-9.580078125,0,0,1,1.45732092857,,,,,2015_Sep_21_1640,K,facesParametric,4,59.6904405444,
./stim/MorphM3_00_orig.jpg,160,,,,,0,160,160,160,,,,,,,,,,,,,,,,,,,21.533203125,-9.580078125,1,0,0,1.2368080616,,,,,2015_Sep_21_1640,K,facesParametric,4,59.6904405444,
./stim/MorphF1_09_orig.jpg,161,,,,,0,161,161,161,,,,,,,,,,,,,,,,,,,21.474609375,-9.55078125,0,0,1,3.31693005562,,,,,2015_Sep_21_1640,K,facesParametric,4,59.6904405444,
./stim/MorphM9_04_orig.jpg,162,,,,,0,162,162,162,,,,,,,,,,,,,,,,,,,21.474609375,-9.55078125,0,0,1,1.55762910843,,,,,2015_Sep_21_1640,K,facesParametric,4,59.6904405444,
./stim/MorphM2_02_orig.jpg,163,,,,,0,163,163,163,,,,,,,,,,,,,,,,,,,19.21875,-9.375,0,0,1,1.92635822296,,,,,2015_Sep_21_1640,K,facesParametric,4,59.6904405444,
./stim/MorphF10_00_orig.jpg,164,,,,,0,164,164,164,,,,,,,,,,,,,,,,,,,19.21875,-9.375,0,0,1,2.34499406815,,,,,2015_Sep_21_1640,K,facesParametric,4,59.6904405444,
./stim/MorphF9_09_orig.jpg,165,,,,,0,165,165,165,,,,,,,,,,,,,,,,,,,19.21875,-9.228515625,1,0,0,1.70789694786,,,,,2015_Sep_21_1640,K,facesParametric,4,59.6904405444,
./stim/MorphF10_06_orig.jpg,166,,,,,0,166,166,166,,,,,,,,,,,,,,,,,,,18.984375,-9.2578125,1,0,0,1.69163107872,,,,,2015_Sep_21_1640,K,facesParametric,4,59.6904405444,
./stim/MorphM5_03_orig.jpg,167,,,,,0,167,167,167,,,,,,,,,,,,,,,,,,,18.92578125,-9.2578125,0,0,1,1.89234399796,,,,,2015_Sep_21_1640,K,facesParametric,4,59.6904405444,
./stim/MorphM1_07_orig.jpg,168,,,,,0,168,168,168,,,,,,,,,,,,,,,,,,,18.69140625,-8.73046875,1,0,0,6.76865386963,,,,,2015_Sep_21_1640,K,facesParametric,4,59.6904405444,
./stim/MorphF4_00_orig.jpg,169,,,,,0,169,169,169,,,,,,,,,,,,,,,,,,,18.720703125,-8.61328125,0,0,1,1.2383108139,,,,,2015_Sep_21_1640,K,facesParametric,4,59.6904405444,
./stim/MorphF7_00_orig.jpg,170,,,,,0,170,170,170,,,,,,,,,,,,,,,,,,,18.3984375,-8.232421875,0,0,1,4.02142214775,,,,,2015_Sep_21_1640,K,facesParametric,4,59.6904405444,
./stim/MorphF4_08_orig.jpg,171,,,,,0,171,171,171,,,,,,,,,,,,,,,,,,,18.427734375,-8.173828125,1,0,0,1.3395550251,,,,,2015_Sep_21_1640,K,facesParametric,4,59.6904405444,
./stim/MorphM3_05_orig.jpg,172,,,,,0,172,172,172,,,,,,,,,,,,,,,,,,,18.28125,-8.02734375,1,0,0,4.59056615829,,,,,2015_Sep_21_1640,K,facesParametric,4,59.6904405444,
./stim/MorphM7_04_orig.jpg,173,,,,,0,173,173,173,,,,,,,,,,,,,,,,,,,18.22265625,-8.02734375,1,0,0,3.88731598854,,,,,2015_Sep_21_1640,K,facesParametric,4,59.6904405444,
./stim/MorphM4_08_orig.jpg,174,,,,,0,174,174,174,,,,,,,,,,,,,,,,,,,18.22265625,-8.02734375,1,0,0,1.69118905067,,,,,2015_Sep_21_1640,K,facesParametric,4,59.6904405444,
./stim/MorphF1_02_orig.jpg,175,,,,,0,175,175,175,,,,,,,,,,,,,,,,,,,18.193359375,-7.939453125,0,0,1,1.60779690742,,,,,2015_Sep_21_1640,K,facesParametric,4,59.6904405444,
./stim/MorphM8_08_orig.jpg,176,,,,,0,176,176,176,,,,,,,,,,,,,,,,,,,18.193359375,-7.939453125,1,0,0,1.47234082222,,,,,2015_Sep_21_1640,K,facesParametric,4,59.6904405444,
./stim/MorphF9_04_orig.jpg,177,,,,,0,177,177,177,,,,,,,,,,,,,,,,,,,18.076171875,-7.6171875,0,0,1,8.11096000671,,,,,2015_Sep_21_1640,K,facesParametric,4,59.6904405444,
./stim/MorphM10_10_orig.jpg,178,,,,,0,178,178,178,,,,,,,,,,,,,,,,,,,18.017578125,-7.587890625,1,0,0,1.28826713562,,,,,2015_Sep_21_1640,K,facesParametric,4,59.6904405444,
./stim/MorphF6_05_orig.jpg,179,,,,,0,179,179,179,,,,,,,,,,,,,,,,,,,18.017578125,-7.587890625,0,0,1,2.07695007324,,,,,2015_Sep_21_1640,K,facesParametric,4,59.6904405444,
./stim/MorphF2_00_orig.jpg,180,,,,,0,180,180,180,,,,,,,,,,,,,,,,,,,18.017578125,-7.587890625,0,0,1,1.33906602859,,,,,2015_Sep_21_1640,K,facesParametric,4,59.6904405444,
./stim/MorphF5_00_orig.jpg,181,,,,,0,181,181,181,,,,,,,,,,,,,,,,,,,17.958984375,-7.587890625,0,0,1,2.10959601402,,,,,2015_Sep_21_1640,K,facesParametric,4,59.6904405444,
./stim/MorphF6_09_orig.jpg,182,,,,,0,182,182,182,,,,,,,,,,,,,,,,,,,17.080078125,-7.08984375,1,0,0,3.19928002357,,,,,2015_Sep_21_1640,K,facesParametric,4,59.6904405444,
./stim/MorphM4_02_orig.jpg,183,,,,,0,183,183,183,,,,,,,,,,,,,,,,,,,16.875,-7.03125,0,0,1,2.34326004982,,,,,2015_Sep_21_1640,K,facesParametric,4,59.6904405444,
./stim/MorphM8_03_orig.jpg,184,,,,,0,184,184,184,,,,,,,,,,,,,,,,,,,16.875,-7.03125,0,0,1,2.54612588882,,,,,2015_Sep_21_1640,K,facesParametric,4,59.6904405444,
./stim/MorphM7_10_orig.jpg,185,,,,,0,185,185,185,,,,,,,,,,,,,,,,,,,16.81640625,-7.060546875,1,0,0,1.13848996162,,,,,2015_Sep_21_1640,K,facesParametric,4,59.6904405444,
./stim/MorphF1_05_orig.jpg,186,,,,,0,186,186,186,,,,,,,,,,,,,,,,,,,16.611328125,-7.060546875,0,0,1,1.50704693794,,,,,2015_Sep_21_1640,K,facesParametric,4,59.6904405444,
./stim/MorphM10_09_orig.jpg,187,,,,,0,187,187,187,,,,,,,,,,,,,,,,,,,16.5234375,-6.97265625,1,0,0,1.44005680084,,,,,2015_Sep_21_1640,K,facesParametric,4,59.6904405444,
./stim/MorphF1_08_orig.jpg,188,,,,,0,188,188,188,,,,,,,,,,,,,,,,,,,16.376953125,-6.97265625,0,0,1,1.15356492996,,,,,2015_Sep_21_1640,K,facesParametric,4,59.6904405444,
./stim/MorphM6_06_orig.jpg,189,,,,,0,189,189,189,,,,,,,,,,,,,,,,,,,16.201171875,-7.763671875,0,0,1,3.300593853,,,,,2015_Sep_21_1640,K,facesParametric,4,59.6904405444,
./stim/MorphF8_09_orig.jpg,190,,,,,0,190,190,190,,,,,,,,,,,,,,,,,,,16.201171875,-7.763671875,1,0,0,1.5565969944,,,,,2015_Sep_21_1640,K,facesParametric,4,59.6904405444,
./stim/MorphF9_07_orig.jpg,191,,,,,0,191,191,191,,,,,,,,,,,,,,,,,,,16.259765625,-7.705078125,0,0,1,1.37286496162,,,,,2015_Sep_21_1640,K,facesParametric,4,59.6904405444,
./stim/MorphM9_03_orig.jpg,192,,,,,0,192,192,192,,,,,,,,,,,,,,,,,,,16.259765625,-7.705078125,0,0,1,1.44063687325,,,,,2015_Sep_21_1640,K,facesParametric,4,59.6904405444,
./stim/MorphF7_10_orig.jpg,193,,,,,0,193,193,193,,,,,,,,,,,,,,,,,,,16.23046875,-7.67578125,1,0,0,1.50573682785,,,,,2015_Sep_21_1640,K,facesParametric,4,59.6904405444,
./stim/MorphM2_06_orig.jpg,194,,,,,0,194,194,194,,,,,,,,,,,,,,,,,,,16.0546875,-7.265625,0,0,1,4.38732290268,,,,,2015_Sep_21_1640,K,facesParametric,4,59.6904405444,
./stim/MorphM6_10_orig.jpg,195,,,,,0,195,195,195,,,,,,,,,,,,,,,,,,,16.025390625,-7.236328125,1,0,0,1.42288303375,,,,,2015_Sep_21_1640,K,facesParametric,4,59.6904405444,
./stim/MorphF8_02_orig.jpg,196,,,,,0,196,196,196,,,,,,,,,,,,,,,,,,,16.025390625,-7.236328125,0,0,1,2.02589201927,,,,,2015_Sep_21_1640,K,facesParametric,4,59.6904405444,
./stim/MorphF4_05_orig.jpg,197,,,,,0,197,197,197,,,,,,,,,,,,,,,,,,,15.908203125,-7.1484375,0,0,1,4.72292685509,,,,,2015_Sep_21_1640,K,facesParametric,4,59.6904405444,
./stim/MorphF5_02_orig.jpg,198,,,,,0,198,198,198,,,,,,,,,,,,,,,,,,,15.908203125,-7.1484375,0,0,1,4.42329096794,,,,,2015_Sep_21_1640,K,facesParametric,4,59.6904405444,
./stim/MorphM7_05_orig.jpg,199,,,,,0,199,199,199,,,,,,,,,,,,,,,,,,,15.908203125,-7.1484375,1,0,0,1.17194581032,,,,,2015_Sep_21_1640,K,facesParametric,4,59.6904405444,
./stim/MorphM8_02_orig.jpg,200,,,,,0,200,200,200,,,,,,,,,,,,,,,,,,,15.87890625,-7.08984375,0,0,1,4.72408890724,,,,,2015_Sep_21_1640,K,facesParametric,4,59.6904405444,
./stim/MorphF4_03_orig.jpg,201,,,,,0,201,201,201,,,,,,,,,,,,,,,,,,,15.87890625,-7.08984375,0,0,1,1.20512700081,,,,,2015_Sep_21_1640,K,facesParametric,4,59.6904405444,
./stim/MorphM8_06_orig.jpg,202,,,,,0,202,202,202,,,,,,,,,,,,,,,,,,,15.87890625,-7.08984375,0,0,1,1.10444498062,,,,,2015_Sep_21_1640,K,facesParametric,4,59.6904405444,
./stim/MorphF8_10_orig.jpg,203,,,,,0,203,203,203,,,,,,,,,,,,,,,,,,,15.615234375,-6.826171875,1,0,0,1.37353205681,,,,,2015_Sep_21_1640,K,facesParametric,4,59.6904405444,
./stim/MorphM1_05_orig.jpg,204,,,,,0,204,204,204,,,,,,,,,,,,,,,,,,,15.615234375,-6.767578125,1,0,0,1.74096488953,,,,,2015_Sep_21_1640,K,facesParametric,4,59.6904405444,
./stim/MorphF8_03_orig.jpg,205,,,,,0,205,205,205,,,,,,,,,,,,,,,,,,,15.64453125,-6.73828125,0,0,1,1.87448692322,,,,,2015_Sep_21_1640,K,facesParametric,4,59.6904405444,
./stim/MorphF5_03_orig.jpg,206,,,,,0,206,206,206,,,,,,,,,,,,,,,,,,,15.5859375,-6.767578125,0,0,1,1.22248792648,,,,,2015_Sep_21_1640,K,facesParametric,4,59.6904405444,
./stim/MorphF2_10_orig.jpg,207,,,,,0,207,207,207,,,,,,,,,,,,,,,,,,,15.5859375,-6.767578125,1,0,0,1.52327799797,,,,,2015_Sep_21_1640,K,facesParametric,4,59.6904405444,
./stim/MorphF6_06_orig.jpg,208,,,,,0,208,208,208,,,,,,,,,,,,,,,,,,,15.5859375,-6.591796875,0,0,1,4.02165222168,,,,,2015_Sep_21_1640,K,facesParametric,4,59.6904405444,
./stim/MorphF1_00_orig.jpg,209,,,,,0,209,209,209,,,,,,,,,,,,,,,,,,,15.52734375,-6.591796875,0,0,1,1.40451717377,,,,,2015_Sep_21_1640,K,facesParametric,4,59.6904405444,
./stim/MorphF10_10_orig.jpg,210,,,,,0,210,210,210,,,,,,,,,,,,,,,,,,,15.52734375,-6.591796875,1,0,0,1.48857498169,,,,,2015_Sep_21_1640,K,facesParametric,4,59.6904405444,
./stim/MorphM7_03_orig.jpg,211,,,,,0,211,211,211,,,,,,,,,,,,,,,,,,,15.52734375,-6.591796875,1,0,0,1.28737688065,,,,,2015_Sep_21_1640,K,facesParametric,4,59.6904405444,
./stim/MorphF3_08_orig.jpg,212,,,,,0,212,212,212,,,,,,,,,,,,,,,,,,,15.498046875,-6.62109375,1,0,0,3.25022912025,,,,,2015_Sep_21_1640,K,facesParametric,4,59.6904405444,
./stim/MorphM4_09_orig.jpg,213,,,,,0,213,213,213,,,,,,,,,,,,,,,,,,,15.498046875,-6.62109375,1,0,0,1.52389812469,,,,,2015_Sep_21_1640,K,facesParametric,4,59.6904405444,
./stim/MorphM6_09_orig.jpg,214,,,,,0,214,214,214,,,,,,,,,,,,,,,,,,,15.52734375,-6.650390625,0,0,1,1.7915828228,,,,,2015_Sep_21_1640,K,facesParametric,4,59.6904405444,
./stim/MorphM8_00_orig.jpg,215,,,,,0,215,215,215,,,,,,,,,,,,,,,,,,,15.498046875,-6.650390625,0,0,1,1.45637917519,,,,,2015_Sep_21_1640,K,facesParametric,4,59.6904405444,
./stim/MorphM1_03_orig.jpg,216,,,,,0,216,216,216,,,,,,,,,,,,,,,,,,,15.46875,-6.650390625,0,0,1,2.57957410812,,,,,2015_Sep_21_1640,K,facesParametric,4,59.6904405444,
./stim/MorphF9_10_orig.jpg,217,,,,,0,217,217,217,,,,,,,,,,,,,,,,,,,15.46875,-6.62109375,1,0,0,1.77557301521,,,,,2015_Sep_21_1640,K,facesParametric,4,59.6904405444,
./stim/MorphF10_03_orig.jpg,218,,,,,0,218,218,218,,,,,,,,,,,,,,,,,,,15.46875,-6.591796875,0,0,1,1.65691685677,,,,,2015_Sep_21_1640,K,facesParametric,4,59.6904405444,
./stim/MorphM10_01_orig.jpg,219,,,,,0,219,219,219,,,,,,,,,,,,,,,,,,,15.439453125,-6.591796875,0,0,1,1.59141302109,,,,,2015_Sep_21_1640,K,facesParametric,4,59.6904405444,
,,,,,,,,,,,,,,,,,,,,,,,,,,,,,,,,,,return,7.47510313988,,,2015_Sep_21_1640,K,facesParametric,4,59.6904405444,
./stim/MorphF4_06_orig.jpg,0,,,,,,,,,0,0,0,0,,,,,,,,,,,,,,,15.322265625,-6.591796875,0,0,1,5.36547589302,,,,,2015_Sep_21_1640,K,facesParametric,4,59.6904405444,
./stim/MorphM2_10_orig.jpg,1,,,,,,,,,0,1,1,1,,,,,,,,,,,,,,,15.029296875,-6.6796875,1,0,0,8.05993294716,,,,,2015_Sep_21_1640,K,facesParametric,4,59.6904405444,
./stim/MorphF6_01_orig.jpg,2,,,,,,,,,0,2,2,2,,,,,,,,,,,,,,,15.0,-6.6796875,0,0,1,1.18886184692,,,,,2015_Sep_21_1640,K,facesParametric,4,59.6904405444,
./stim/MorphM2_09_orig.jpg,3,,,,,,,,,0,3,3,3,,,,,,,,,,,,,,,14.033203125,-6.62109375,1,0,0,1.15618300438,,,,,2015_Sep_21_1640,K,facesParametric,4,59.6904405444,
./stim/MorphM10_00_orig.jpg,4,,,,,,,,,0,4,4,4,,,,,,,,,,,,,,,14.033203125,-6.6796875,0,0,1,1.57282996178,,,,,2015_Sep_21_1640,K,facesParametric,4,59.6904405444,
./stim/MorphF3_09_orig.jpg,5,,,,,,,,,0,5,5,5,,,,,,,,,,,,,,,13.88671875,-6.708984375,1,0,0,1.8903491497,,,,,2015_Sep_21_1640,K,facesParametric,4,59.6904405444,
./stim/MorphF5_08_orig.jpg,6,,,,,,,,,0,6,6,6,,,,,,,,,,,,,,,13.798828125,-6.650390625,1,0,0,1.20582389832,,,,,2015_Sep_21_1640,K,facesParametric,4,59.6904405444,
./stim/MorphF3_06_orig.jpg,7,,,,,,,,,0,7,7,7,,,,,,,,,,,,,,,13.828125,-6.767578125,1,0,0,1.89266204834,,,,,2015_Sep_21_1640,K,facesParametric,4,59.6904405444,
./stim/MorphM1_10_orig.jpg,8,,,,,,,,,0,8,8,8,,,,,,,,,,,,,,,13.623046875,-6.6796875,1,0,0,4.30584692955,,,,,2015_Sep_21_1640,K,facesParametric,4,59.6904405444,
./stim/MorphM7_10_orig.jpg,9,,,,,,,,,0,9,9,9,,,,,,,,,,,,,,,13.623046875,-6.6796875,1,0,0,1.52385687828,,,,,2015_Sep_21_1640,K,facesParametric,4,59.6904405444,
./stim/MorphF10_06_orig.jpg,10,,,,,,,,,0,10,10,10,,,,,,,,,,,,,,,13.623046875,-6.6796875,1,0,0,1.23892402649,,,,,2015_Sep_21_1640,K,facesParametric,4,59.6904405444,
./stim/MorphM5_03_orig.jpg,11,,,,,,,,,0,11,11,11,,,,,,,,,,,,,,,13.623046875,-6.6796875,0,0,1,2.026679039,,,,,2015_Sep_21_1640,K,facesParametric,4,59.6904405444,
./stim/MorphF4_03_orig.jpg,12,,,,,,,,,0,12,12,12,,,,,,,,,,,,,,,13.65234375,-6.650390625,0,0,1,1.70703601837,,,,,2015_Sep_21_1640,K,facesParametric,4,59.6904405444,
./stim/MorphM6_10_orig.jpg,13,,,,,,,,,0,13,13,13,,,,,,,,,,,,,,,13.7109375,-6.62109375,1,0,0,1.9763109684,,,,,2015_Sep_21_1640,K,facesParametric,4,59.6904405444,
./stim/MorphF7_01_orig.jpg,14,,,,,,,,,0,14,14,14,,,,,,,,,,,,,,,13.7109375,-6.62109375,0,0,1,1.5381500721,,,,,2015_Sep_21_1640,K,facesParametric,4,59.6904405444,
./stim/MorphM4_02_orig.jpg,15,,,,,,,,,0,15,15,15,,,,,,,,,,,,,,,13.681640625,-6.650390625,0,0,1,3.45016884804,,,,,2015_Sep_21_1640,K,facesParametric,4,59.6904405444,
./stim/MorphF4_07_orig.jpg,16,,,,,,,,,0,16,16,16,,,,,,,,,,,,,,,13.65234375,-6.6796875,0,0,1,4.08705997467,,,,,2015_Sep_21_1640,K,facesParametric,4,59.6904405444,
./stim/MorphM5_09_orig.jpg,17,,,,,,,,,0,17,17,17,,,,,,,,,,,,,,,13.681640625,-6.650390625,1,0,0,1.92681097984,,,,,2015_Sep_21_1640,K,facesParametric,4,59.6904405444,
./stim/MorphF9_01_orig.jpg,18,,,,,,,,,0,18,18,18,,,,,,,,,,,,,,,13.681640625,-6.650390625,0,0,1,1.50618910789,,,,,2015_Sep_21_1640,K,facesParametric,4,59.6904405444,
./stim/MorphF5_03_orig.jpg,19,,,,,,,,,0,19,19,19,,,,,,,,,,,,,,,13.681640625,-6.4453125,0,0,1,6.71949696541,,,,,2015_Sep_21_1640,K,facesParametric,4,59.6904405444,
./stim/MorphF1_05_orig.jpg,20,,,,,,,,,0,20,20,20,,,,,,,,,,,,,,,13.359375,-6.38671875,0,0,1,3.19965696335,,,,,2015_Sep_21_1640,K,facesParametric,4,59.6904405444,
./stim/MorphF10_05_orig.jpg,21,,,,,,,,,0,21,21,21,,,,,,,,,,,,,,,13.18359375,-6.38671875,1,0,0,1.43922901154,,,,,2015_Sep_21_1640,K,facesParametric,4,59.6904405444,
./stim/MorphM2_06_orig.jpg,22,,,,,,,,,0,22,22,22,,,,,,,,,,,,,,,13.212890625,-6.26953125,0,0,1,7.50694608688,,,,,2015_Sep_21_1640,K,facesParametric,4,59.6904405444,
./stim/MorphM9_10_orig.jpg,23,,,,,,,,,0,23,23,23,,,,,,,,,,,,,,,13.212890625,-6.26953125,1,0,0,1.25588607788,,,,,2015_Sep_21_1640,K,facesParametric,4,59.6904405444,
./stim/MorphF1_03_orig.jpg,24,,,,,,,,,0,24,24,24,,,,,,,,,,,,,,,13.2421875,-6.328125,0,0,1,4.7752058506,,,,,2015_Sep_21_1640,K,facesParametric,4,59.6904405444,
./stim/MorphM7_01_orig.jpg,25,,,,,,,,,0,25,25,25,,,,,,,,,,,,,,,13.30078125,-6.26953125,1,0,0,2.54609107971,,,,,2015_Sep_21_1640,K,facesParametric,4,59.6904405444,
./stim/MorphF9_02_orig.jpg,26,,,,,,,,,0,26,26,26,,,,,,,,,,,,,,,13.330078125,-6.26953125,0,0,1,2.34514594078,,,,,2015_Sep_21_1640,K,facesParametric,4,59.6904405444,
./stim/MorphM3_08_orig.jpg,27,,,,,,,,,0,27,27,27,,,,,,,,,,,,,,,13.330078125,-6.26953125,1,0,0,1.15566587448,,,,,2015_Sep_21_1640,K,facesParametric,4,59.6904405444,
./stim/MorphF2_04_orig.jpg,28,,,,,,,,,0,28,28,28,,,,,,,,,,,,,,,13.330078125,-6.26953125,1,0,0,2.94825601578,,,,,2015_Sep_21_1640,K,facesParametric,4,59.6904405444,
./stim/MorphF8_04_orig.jpg,29,,,,,,,,,0,29,29,29,,,,,,,,,,,,,,,13.388671875,-6.26953125,0,0,1,1.72475099564,,,,,2015_Sep_21_1640,K,facesParametric,4,59.6904405444,
./stim/MorphF7_00_orig.jpg,30,,,,,,,,,0,30,30,30,,,,,,,,,,,,,,,13.388671875,-6.26953125,0,0,1,1.87577700615,,,,,2015_Sep_21_1640,K,facesParametric,4,59.6904405444,
./stim/MorphF1_06_orig.jpg,31,,,,,,,,,0,31,31,31,,,,,,,,,,,,,,,13.388671875,-6.26953125,0,0,1,2.51308298111,,,,,2015_Sep_21_1640,K,facesParametric,4,59.6904405444,
./stim/MorphM4_05_orig.jpg,32,,,,,,,,,0,32,32,32,,,,,,,,,,,,,,,13.564453125,-6.123046875,1,0,0,4.67231106758,,,,,2015_Sep_21_1640,K,facesParametric,4,59.6904405444,
./stim/MorphF10_08_orig.jpg,33,,,,,,,,,0,33,33,33,,,,,,,,,,,,,,,13.564453125,-6.123046875,1,0,0,1.38804888725,,,,,2015_Sep_21_1640,K,facesParametric,4,59.6904405444,
./stim/MorphM6_01_orig.jpg,34,,,,,,,,,0,34,34,34,,,,,,,,,,,,,,,13.564453125,-6.123046875,0,0,1,1.9933180809,,,,,2015_Sep_21_1640,K,facesParametric,4,59.6904405444,
./stim/MorphM9_09_orig.jpg,35,,,,,,,,,0,35,35,35,,,,,,,,,,,,,,,13.564453125,-6.123046875,1,0,0,3.16626691818,,,,,2015_Sep_21_1640,K,facesParametric,4,59.6904405444,
./stim/MorphF8_00_orig.jpg,36,,,,,,,,,0,36,36,36,,,,,,,,,,,,,,,13.564453125,-6.123046875,0,0,1,1.57483792305,,,,,2015_Sep_21_1640,K,facesParametric,4,59.6904405444,
./stim/MorphM1_08_orig.jpg,37,,,,,,,,,0,37,37,37,,,,,,,,,,,,,,,13.59375,-6.09375,1,0,0,3.31614017487,,,,,2015_Sep_21_1640,K,facesParametric,4,59.6904405444,
./stim/MorphF6_05_orig.jpg,38,,,,,,,,,0,38,38,38,,,,,,,,,,,,,,,13.59375,-6.09375,0,0,1,2.63013195992,,,,,2015_Sep_21_1640,K,facesParametric,4,59.6904405444,
./stim/MorphF7_05_orig.jpg,39,,,,,,,,,0,39,39,39,,,,,,,,,,,,,,,13.59375,-6.09375,1,0,0,5.36182284355,,,,,2015_Sep_21_1640,K,facesParametric,4,59.6904405444,
./stim/MorphM3_01_orig.jpg,40,,,,,,,,,0,40,40,40,,,,,,,,,,,,,,,13.59375,-6.09375,1,0,0,0.987660169601,,,,,2015_Sep_21_1640,K,facesParametric,4,59.6904405444,
./stim/MorphF5_07_orig.jpg,41,,,,,,,,,0,41,41,41,,,,,,,,,,,,,,,13.59375,-6.09375,0,0,1,1.79205417633,,,,,2015_Sep_21_1640,K,facesParametric,4,59.6904405444,
./stim/MorphM7_08_orig.jpg,42,,,,,,,,,0,42,42,42,,,,,,,,,,,,,,,13.59375,-6.09375,1,0,0,1.38894295692,,,,,2015_Sep_21_1640,K,facesParametric,4,59.6904405444,
./stim/MorphF2_06_orig.jpg,43,,,,,,,,,0,43,43,43,,,,,,,,,,,,,,,13.59375,-6.09375,1,0,0,1.13836789131,,,,,2015_Sep_21_1640,K,facesParametric,4,59.6904405444,
./stim/MorphF5_06_orig.jpg,44,,,,,,,,,0,44,44,44,,,,,,,,,,,,,,,13.59375,-6.09375,0,0,1,1.37375688553,,,,,2015_Sep_21_1640,K,facesParametric,4,59.6904405444,
./stim/MorphM4_01_orig.jpg,45,,,,,,,,,0,45,45,45,,,,,,,,,,,,,,,13.59375,-6.09375,1,0,0,3.61831712723,,,,,2015_Sep_21_1640,K,facesParametric,4,59.6904405444,
./stim/MorphF4_09_orig.jpg,46,,,,,,,,,0,46,46,46,,,,,,,,,,,,,,,13.59375,-6.09375,1,0,0,2.99874711037,,,,,2015_Sep_21_1640,K,facesParametric,4,59.6904405444,
./stim/MorphF6_08_orig.jpg,47,,,,,,,,,0,47,47,47,,,,,,,,,,,,,,,13.59375,-6.09375,1,0,0,6.31722903252,,,,,2015_Sep_21_1640,K,facesParametric,4,59.6904405444,
./stim/MorphM5_05_orig.jpg,48,,,,,,,,,0,48,48,48,,,,,,,,,,,,,,,13.53515625,-6.064453125,0,0,1,1.65743994713,,,,,2015_Sep_21_1640,K,facesParametric,4,59.6904405444,
./stim/MorphF8_09_orig.jpg,49,,,,,,,,,0,49,49,49,,,,,,,,,,,,,,,13.53515625,-6.064453125,1,0,0,1.62484717369,,,,,2015_Sep_21_1640,K,facesParametric,4,59.6904405444,
./stim/MorphM4_06_orig.jpg,50,,,,,,,,,0,50,50,50,,,,,,,,,,,,,,,13.53515625,-6.064453125,0,0,1,1.270622015,,,,,2015_Sep_21_1640,K,facesParametric,4,59.6904405444,
./stim/MorphF1_01_orig.jpg,51,,,,,,,,,0,51,51,51,,,,,,,,,,,,,,,13.4765625,-6.328125,0,0,1,3.61863589287,,,,,2015_Sep_21_1640,K,facesParametric,4,59.6904405444,
./stim/MorphM7_06_orig.jpg,52,,,,,,,,,0,52,52,52,,,,,,,,,,,,,,,14.6484375,-5.5078125,1,0,0,1.60770702362,,,,,2015_Sep_21_1640,K,facesParametric,4,59.6904405444,
./stim/MorphM9_04_orig.jpg,53,,,,,,,,,0,53,53,53,,,,,,,,,,,,,,,14.58984375,-5.478515625,0,0,1,1.87604904175,,,,,2015_Sep_21_1640,K,facesParametric,4,59.6904405444,
./stim/MorphM3_06_orig.jpg,54,,,,,,,,,0,54,54,54,,,,,,,,,,,,,,,14.47265625,-5.537109375,1,0,0,1.05373311043,,,,,2015_Sep_21_1640,K,facesParametric,4,59.6904405444,
./stim/MorphF4_02_orig.jpg,55,,,,,,,,,0,55,55,55,,,,,,,,,,,,,,,9.375,-7.060546875,0,0,1,7.84094595909,,,,,2015_Sep_21_1640,K,facesParametric,4,59.6904405444,
./stim/MorphF9_07_orig.jpg,56,,,,,,,,,0,56,56,56,,,,,,,,,,,,,,,9.375,-7.060546875,0,0,1,1.3385720253,,,,,2015_Sep_21_1640,K,facesParametric,4,59.6904405444,
./stim/MorphM9_08_orig.jpg,57,,,,,,,,,0,57,57,57,,,,,,,,,,,,,,,9.31640625,-7.060546875,1,0,0,2.04235196114,,,,,2015_Sep_21_1640,K,facesParametric,4,59.6904405444,
./stim/MorphF6_03_orig.jpg,58,,,,,,,,,0,58,58,58,,,,,,,,,,,,,,,9.19921875,-7.001953125,0,0,1,1.2547659874,,,,,2015_Sep_21_1640,K,facesParametric,4,59.6904405444,
./stim/MorphF7_06_orig.jpg,59,,,,,,,,,0,59,59,59,,,,,,,,,,,,,,,9.140625,-7.001953125,1,0,0,1.35646796227,,,,,2015_Sep_21_1640,K,facesParametric,4,59.6904405444,
./stim/MorphM6_06_orig.jpg,60,,,,,,,,,0,60,60,60,,,,,,,,,,,,,,,8.876953125,-6.97265625,0,0,1,1.42251801491,,,,,2015_Sep_21_1640,K,facesParametric,4,59.6904405444,
./stim/MorphF8_08_orig.jpg,61,,,,,,,,,0,61,61,61,,,,,,,,,,,,,,,8.818359375,-6.884765625,1,0,0,1.18766999245,,,,,2015_Sep_21_1640,K,facesParametric,4,59.6904405444,
./stim/MorphM6_02_orig.jpg,62,,,,,,,,,0,62,62,62,,,,,,,,,,,,,,,8.671875,-6.826171875,0,0,1,1.22207593918,,,,,2015_Sep_21_1640,K,facesParametric,4,59.6904405444,
./stim/MorphF7_02_orig.jpg,63,,,,,,,,,0,63,63,63,,,,,,,,,,,,,,,8.525390625,-6.85546875,0,0,1,1.87554812431,,,,,2015_Sep_21_1640,K,facesParametric,4,59.6904405444,
./stim/MorphM8_03_orig.jpg,64,,,,,,,,,0,64,64,64,,,,,,,,,,,,,,,8.49609375,-6.826171875,0,0,1,2.88140392303,,,,,2015_Sep_21_1640,K,facesParametric,4,59.6904405444,
./stim/MorphF10_02_orig.jpg,65,,,,,,,,,0,65,65,65,,,,,,,,,,,,,,,8.4375,-6.826171875,0,0,1,3.06585693359,,,,,2015_Sep_21_1640,K,facesParametric,4,59.6904405444,
./stim/MorphM7_04_orig.jpg,66,,,,,,,,,0,66,66,66,,,,,,,,,,,,,,,8.408203125,-6.796875,1,0,0,1.237844944,,,,,2015_Sep_21_1640,K,facesParametric,4,59.6904405444,
./stim/MorphF4_05_orig.jpg,67,,,,,,,,,0,67,67,67,,,,,,,,,,,,,,,8.3203125,-6.650390625,0,0,1,5.71170186996,,,,,2015_Sep_21_1640,K,facesParametric,4,59.6904405444,
./stim/MorphM10_08_orig.jpg,68,,,,,,,,,0,68,68,68,,,,,,,,,,,,,,,8.291015625,-6.650390625,1,0,0,1.1035759449,,,,,2015_Sep_21_1640,K,facesParametric,4,59.6904405444,
./stim/MorphF9_09_orig.jpg,69,,,,,,,,,0,69,69,69,,,,,,,,,,,,,,,8.02734375,-6.591796875,1,0,0,2.54644608498,,,,,2015_Sep_21_1640,K,facesParametric,4,59.6904405444,
./stim/MorphM4_00_orig.jpg,70,,,,,,,,,0,70,70,70,,,,,,,,,,,,,,,7.91015625,-6.533203125,0,0,1,2.88103699684,,,,,2015_Sep_21_1640,K,facesParametric,4,59.6904405444,
./stim/MorphM1_00_orig.jpg,71,,,,,,,,,0,71,71,71,,,,,,,,,,,,,,,-23.4375,-11.953125,0,0,1,3.78533983231,,,,,2015_Sep_21_1640,K,facesParametric,4,59.6904405444,
./stim/MorphM5_01_orig.jpg,72,,,,,,,,,0,72,72,72,,,,,,,,,,,,,,,-23.4375,-11.923828125,0,0,1,1.59053683281,,,,,2015_Sep_21_1640,K,facesParametric,4,59.6904405444,
./stim/MorphF10_04_orig.jpg,73,,,,,,,,,0,73,73,73,,,,,,,,,,,,,,,-23.4375,-11.806640625,1,0,0,5.59561014175,,,,,2015_Sep_21_1640,K,facesParametric,4,59.6904405444,
./stim/MorphM2_07_orig.jpg,74,,,,,,,,,0,74,74,74,,,,,,,,,,,,,,,-23.408203125,-11.77734375,1,0,0,1.70803594589,,,,,2015_Sep_21_1640,K,facesParametric,4,59.6904405444,
./stim/MorphM3_10_orig.jpg,75,,,,,,,,,0,75,75,75,,,,,,,,,,,,,,,-23.408203125,-11.77734375,1,0,0,0.85275387764,,,,,2015_Sep_21_1640,K,facesParametric,4,59.6904405444,
./stim/MorphM8_07_orig.jpg,76,,,,,,,,,0,76,76,76,,,,,,,,,,,,,,,-23.408203125,-11.77734375,1,0,0,1.02156400681,,,,,2015_Sep_21_1640,K,facesParametric,4,59.6904405444,
./stim/MorphF3_00_orig.jpg,77,,,,,,,,,0,77,77,77,,,,,,,,,,,,,,,-23.4375,-11.806640625,0,0,1,1.40560603142,,,,,2015_Sep_21_1640,K,facesParametric,4,59.6904405444,
./stim/MorphF1_09_orig.jpg,78,,,,,,,,,0,78,78,78,,,,,,,,,,,,,,,-23.4375,-11.806640625,1,0,0,2.59502291679,,,,,2015_Sep_21_1640,K,facesParametric,4,59.6904405444,
./stim/MorphF9_00_orig.jpg,79,,,,,,,,,0,79,79,79,,,,,,,,,,,,,,,-23.4375,-11.806640625,0,0,1,1.92612195015,,,,,2015_Sep_21_1640,K,facesParametric,4,59.6904405444,
./stim/MorphM5_04_orig.jpg,80,,,,,,,,,0,80,80,80,,,,,,,,,,,,,,,-23.4375,-11.806640625,0,0,1,1.39023709297,,,,,2015_Sep_21_1640,K,facesParametric,4,59.6904405444,
./stim/MorphM8_00_orig.jpg,81,,,,,,,,,0,81,81,81,,,,,,,,,,,,,,,-23.4375,-11.8359375,0,0,1,6.90204691887,,,,,2015_Sep_21_1640,K,facesParametric,4,59.6904405444,
./stim/MorphM6_05_orig.jpg,82,,,,,,,,,0,82,82,82,,,,,,,,,,,,,,,-23.4375,-11.8359375,0,0,1,5.17723083496,,,,,2015_Sep_21_1640,K,facesParametric,4,59.6904405444,
./stim/MorphF2_02_orig.jpg,83,,,,,,,,,0,83,83,83,,,,,,,,,,,,,,,-23.4375,-11.8359375,0,0,1,1.25500416756,,,,,2015_Sep_21_1640,K,facesParametric,4,59.6904405444,
./stim/MorphF10_03_orig.jpg,84,,,,,,,,,0,84,84,84,,,,,,,,,,,,,,,-23.408203125,-11.865234375,0,0,1,7.6408290863,,,,,2015_Sep_21_1640,K,facesParametric,4,59.6904405444,
./stim/MorphM4_08_orig.jpg,85,,,,,,,,,0,85,85,85,,,,,,,,,,,,,,,-23.408203125,-11.865234375,1,0,0,1.25545406342,,,,,2015_Sep_21_1640,K,facesParametric,4,59.6904405444,
./stim/MorphM5_06_orig.jpg,86,,,,,,,,,0,86,86,86,,,,,,,,,,,,,,,-23.4375,-11.865234375,0,0,1,3.19884395599,,,,,2015_Sep_21_1640,K,facesParametric,4,59.6904405444,
./stim/MorphM3_07_orig.jpg,87,,,,,,,,,0,87,87,87,,,,,,,,,,,,,,,-23.4375,-11.865234375,1,0,0,1.02125597,,,,,2015_Sep_21_1640,K,facesParametric,4,59.6904405444,
./stim/MorphF5_05_orig.jpg,88,,,,,,,,,0,88,88,88,,,,,,,,,,,,,,,-23.4375,-11.865234375,0,0,1,1.75843596458,,,,,2015_Sep_21_1640,K,facesParametric,4,59.6904405444,
./stim/MorphM6_03_orig.jpg,89,,,,,,,,,0,89,89,89,,,,,,,,,,,,,,,-23.4375,-11.865234375,0,0,1,1.75759100914,,,,,2015_Sep_21_1640,K,facesParametric,4,59.6904405444,
./stim/MorphF1_08_orig.jpg,90,,,,,,,,,0,90,90,90,,,,,,,,,,,,,,,-23.4375,-11.865234375,0,0,1,1.07141113281,,,,,2015_Sep_21_1640,K,facesParametric,4,59.6904405444,
./stim/MorphF6_04_orig.jpg,91,,,,,,,,,0,91,91,91,,,,,,,,,,,,,,,-23.4375,-11.865234375,0,0,1,1.37249112129,,,,,2015_Sep_21_1640,K,facesParametric,4,59.6904405444,
./stim/MorphM8_08_orig.jpg,92,,,,,,,,,0,92,92,92,,,,,,,,,,,,,,,-23.4375,-11.865234375,1,0,0,1.12166595459,,,,,2015_Sep_21_1640,K,facesParametric,4,59.6904405444,
./stim/MorphF9_08_orig.jpg,93,,,,,,,,,0,93,93,93,,,,,,,,,,,,,,,-23.4375,-11.865234375,0,0,1,1.45714092255,,,,,2015_Sep_21_1640,K,facesParametric,4,59.6904405444,
./stim/MorphF5_09_orig.jpg,94,,,,,,,,,0,94,94,94,,,,,,,,,,,,,,,-23.4375,-11.865234375,1,0,0,1.27249598503,,,,,2015_Sep_21_1640,K,facesParametric,4,59.6904405444,
./stim/MorphM10_05_orig.jpg,95,,,,,,,,,0,95,95,95,,,,,,,,,,,,,,,-23.4375,-11.865234375,1,0,0,1.05476093292,,,,,2015_Sep_21_1640,K,facesParametric,4,59.6904405444,
./stim/MorphM6_08_orig.jpg,96,,,,,,,,,0,96,96,96,,,,,,,,,,,,,,,-23.4375,-11.865234375,1,0,0,2.91258788109,,,,,2015_Sep_21_1640,K,facesParametric,4,59.6904405444,
./stim/MorphM8_06_orig.jpg,97,,,,,,,,,0,97,97,97,,,,,,,,,,,,,,,-23.4375,-11.865234375,0,0,1,6.63514900208,,,,,2015_Sep_21_1640,K,facesParametric,4,59.6904405444,
./stim/MorphM9_00_orig.jpg,98,,,,,,,,,0,98,98,98,,,,,,,,,,,,,,,-23.4375,-11.865234375,0,0,1,2.21121907234,,,,,2015_Sep_21_1640,K,facesParametric,4,59.6904405444,
./stim/MorphM3_04_orig.jpg,99,,,,,,,,,0,99,99,99,,,,,,,,,,,,,,,-23.4375,-11.865234375,1,0,0,1.20564317703,,,,,2015_Sep_21_1640,K,facesParametric,4,59.6904405444,
./stim/MorphF5_00_orig.jpg,100,,,,,,,,,0,100,100,100,,,,,,,,,,,,,,,-23.4375,-11.865234375,0,0,1,5.05827403069,,,,,2015_Sep_21_1640,K,facesParametric,4,59.6904405444,
./stim/MorphF3_02_orig.jpg,101,,,,,,,,,0,101,101,101,,,,,,,,,,,,,,,-23.4375,-11.865234375,0,0,1,1.55712199211,,,,,2015_Sep_21_1640,K,facesParametric,4,59.6904405444,
./stim/MorphF8_02_orig.jpg,102,,,,,,,,,0,102,102,102,,,,,,,,,,,,,,,-23.4375,-11.89453125,0,0,1,3.3152050972,,,,,2015_Sep_21_1640,K,facesParametric,4,59.6904405444,
./stim/MorphF7_09_orig.jpg,103,,,,,,,,,0,103,103,103,,,,,,,,,,,,,,,-23.4375,-11.89453125,1,0,0,0.904567956924,,,,,2015_Sep_21_1640,K,facesParametric,4,59.6904405444,
./stim/MorphM1_05_orig.jpg,104,,,,,,,,,0,104,104,104,,,,,,,,,,,,,,,-23.4375,-11.89453125,0,0,1,3.7355890274,,,,,2015_Sep_21_1640,K,facesParametric,4,59.6904405444,
./stim/MorphM9_02_orig.jpg,105,,,,,,,,,0,105,105,105,,,,,,,,,,,,,,,-23.4375,-11.89453125,0,0,1,5.1438908577,,,,,2015_Sep_21_1640,K,facesParametric,4,59.6904405444,
./stim/MorphM8_05_orig.jpg,106,,,,,,,,,0,106,106,106,,,,,,,,,,,,,,,-23.4375,-11.89453125,1,0,0,3.5351588726,,,,,2015_Sep_21_1640,K,facesParametric,4,59.6904405444,
./stim/MorphM3_00_orig.jpg,107,,,,,,,,,0,107,107,107,,,,,,,,,,,,,,,-23.4375,-11.89453125,1,0,0,0.903625011444,,,,,2015_Sep_21_1640,K,facesParametric,4,59.6904405444,
./stim/MorphF5_02_orig.jpg,108,,,,,,,,,0,108,108,108,,,,,,,,,,,,,,,-23.4375,-11.865234375,0,0,1,1.38814783096,,,,,2015_Sep_21_1640,K,facesParametric,4,59.6904405444,
./stim/MorphF6_06_orig.jpg,109,,,,,,,,,0,109,109,109,,,,,,,,,,,,,,,-23.4375,-11.865234375,1,0,0,3.75310087204,,,,,2015_Sep_21_1640,K,facesParametric,4,59.6904405444,
./stim/MorphF5_10_orig.jpg,110,,,,,,,,,0,110,110,110,,,,,,,,,,,,,,,-23.4375,-11.865234375,1,0,0,2.56277513504,,,,,2015_Sep_21_1640,K,facesParametric,4,59.6904405444,
./stim/MorphM7_07_orig.jpg,111,,,,,,,,,0,111,111,111,,,,,,,,,,,,,,,-23.4375,-11.865234375,1,0,0,0.937389850616,,,,,2015_Sep_21_1640,K,facesParametric,4,59.6904405444,
./stim/MorphM10_10_orig.jpg,112,,,,,,,,,0,112,112,112,,,,,,,,,,,,,,,-23.4375,-11.865234375,1,0,0,0.952435970306,,,,,2015_Sep_21_1640,K,facesParametric,4,59.6904405444,
./stim/MorphM5_00_orig.jpg,113,,,,,,,,,0,113,113,113,,,,,,,,,,,,,,,-23.4375,-11.865234375,0,0,1,1.27264809608,,,,,2015_Sep_21_1640,K,facesParametric,4,59.6904405444,
./stim/MorphF9_05_orig.jpg,114,,,,,,,,,0,114,114,114,,,,,,,,,,,,,,,-23.4375,-11.8359375,0,0,1,4.00423192978,,,,,2015_Sep_21_1640,K,facesParametric,4,59.6904405444,
./stim/MorphM9_06_orig.jpg,115,,,,,,,,,0,115,115,115,,,,,,,,,,,,,,,-23.4375,-11.806640625,0,0,1,3.5855050087,,,,,2015_Sep_21_1640,K,facesParametric,4,59.6904405444,
./stim/MorphM4_10_orig.jpg,116,,,,,,,,,0,116,116,116,,,,,,,,,,,,,,,-22.705078125,-11.748046875,1,0,0,5.32823586464,,,,,2015_Sep_21_1640,K,facesParametric,4,59.6904405444,
./stim/MorphM1_04_orig.jpg,117,,,,,,,,,0,117,117,117,,,,,,,,,,,,,,,-22.79296875,-11.748046875,1,0,0,3.98896813393,,,,,2015_Sep_21_1640,K,facesParametric,4,59.6904405444,
./stim/MorphF2_10_orig.jpg,118,,,,,,,,,0,118,118,118,,,,,,,,,,,,,,,-22.8515625,-11.748046875,1,0,0,1.10173296928,,,,,2015_Sep_21_1640,K,facesParametric,4,59.6904405444,
./stim/MorphF4_01_orig.jpg,119,,,,,,,,,0,119,119,119,,,,,,,,,,,,,,,-22.939453125,-11.748046875,0,0,1,1.9927380085,,,,,2015_Sep_21_1640,K,facesParametric,4,59.6904405444,
./stim/MorphF3_04_orig.jpg,120,,,,,,,,,0,120,120,120,,,,,,,,,,,,,,,-23.4375,-13.154296875,0,0,1,7.036495924,,,,,2015_Sep_21_1640,K,facesParametric,4,59.6904405444,
./stim/MorphM4_04_orig.jpg,121,,,,,,,,,0,121,121,121,,,,,,,,,,,,,,,-23.408203125,-13.095703125,0,0,1,2.51232504845,,,,,2015_Sep_21_1640,K,facesParametric,4,59.6904405444,
./stim/MorphF9_04_orig.jpg,122,,,,,,,,,0,122,122,122,,,,,,,,,,,,,,,-23.408203125,-13.095703125,0,0,1,1.00447511673,,,,,2015_Sep_21_1640,K,facesParametric,4,59.6904405444,
./stim/MorphM1_02_orig.jpg,123,,,,,,,,,0,123,123,123,,,,,,,,,,,,,,,-23.3203125,-13.037109375,0,0,1,4.5573580265,,,,,2015_Sep_21_1640,K,facesParametric,4,59.6904405444,
./stim/MorphF1_02_orig.jpg,124,,,,,,,,,0,124,124,124,,,,,,,,,,,,,,,-23.291015625,-12.94921875,0,0,1,1.47284817696,,,,,2015_Sep_21_1640,K,facesParametric,4,59.6904405444,
./stim/MorphM10_06_orig.jpg,125,,,,,,,,,0,125,125,125,,,,,,,,,,,,,,,-23.291015625,-12.861328125,1,0,0,0.936643838882,,,,,2015_Sep_21_1640,K,facesParametric,4,59.6904405444,
./stim/MorphM6_00_orig.jpg,126,,,,,,,,,0,126,126,126,,,,,,,,,,,,,,,-23.291015625,-12.83203125,0,0,1,1.85823202133,,,,,2015_Sep_21_1640,K,facesParametric,4,59.6904405444,
./stim/MorphM2_01_orig.jpg,127,,,,,,,,,0,127,127,127,,,,,,,,,,,,,,,-23.3203125,-12.861328125,0,0,1,2.11092305183,,,,,2015_Sep_21_1640,K,facesParametric,4,59.6904405444,
./stim/MorphF4_08_orig.jpg,128,,,,,,,,,0,128,128,128,,,,,,,,,,,,,,,-23.3203125,-12.861328125,1,0,0,1.30585503578,,,,,2015_Sep_21_1640,K,facesParametric,4,59.6904405444,
./stim/MorphF8_05_orig.jpg,129,,,,,,,,,0,129,129,129,,,,,,,,,,,,,,,-23.291015625,-12.802734375,1,0,0,2.84898400307,,,,,2015_Sep_21_1640,K,facesParametric,4,59.6904405444,
./stim/MorphM4_09_orig.jpg,130,,,,,,,,,0,130,130,130,,,,,,,,,,,,,,,-23.291015625,-12.802734375,1,0,0,1.2862238884,,,,,2015_Sep_21_1640,K,facesParametric,4,59.6904405444,
./stim/MorphF6_02_orig.jpg,131,,,,,,,,,0,131,131,131,,,,,,,,,,,,,,,-23.291015625,-12.802734375,1,0,0,1.22211813927,,,,,2015_Sep_21_1640,K,facesParametric,4,59.6904405444,
./stim/MorphF3_05_orig.jpg,132,,,,,,,,,0,132,132,132,,,,,,,,,,,,,,,-23.291015625,-12.802734375,0,0,1,1.77522397041,,,,,2015_Sep_21_1640,K,facesParametric,4,59.6904405444,
./stim/MorphM1_06_orig.jpg,133,,,,,,,,,0,133,133,133,,,,,,,,,,,,,,,-23.26171875,-12.71484375,0,0,1,10.624063015,,,,,2015_Sep_21_1640,K,facesParametric,4,59.6904405444,
./stim/MorphF3_01_orig.jpg,134,,,,,,,,,0,134,134,134,,,,,,,,,,,,,,,-23.26171875,-12.685546875,0,0,1,2.51329016685,,,,,2015_Sep_21_1640,K,facesParametric,4,59.6904405444,
./stim/MorphF2_03_orig.jpg,135,,,,,,,,,0,135,135,135,,,,,,,,,,,,,,,-23.26171875,-12.685546875,0,0,1,3.1159889698,,,,,2015_Sep_21_1640,K,facesParametric,4,59.6904405444,
./stim/MorphF5_04_orig.jpg,136,,,,,,,,,0,136,136,136,,,,,,,,,,,,,,,-23.26171875,-12.59765625,0,0,1,1.20532178879,,,,,2015_Sep_21_1640,K,facesParametric,4,59.6904405444,
./stim/MorphF10_07_orig.jpg,137,,,,,,,,,0,137,137,137,,,,,,,,,,,,,,,-23.232421875,-12.568359375,1,0,0,1.08819890022,,,,,2015_Sep_21_1640,K,facesParametric,4,59.6904405444,
./stim/MorphM3_02_orig.jpg,138,,,,,,,,,0,138,138,138,,,,,,,,,,,,,,,-23.203125,-12.5390625,1,0,0,0.970706939697,,,,,2015_Sep_21_1640,K,facesParametric,4,59.6904405444,
./stim/MorphF1_00_orig.jpg,139,,,,,,,,,0,139,139,139,,,,,,,,,,,,,,,-23.203125,-12.5390625,0,0,1,1.59206986427,,,,,2015_Sep_21_1640,K,facesParametric,4,59.6904405444,
./stim/MorphM2_04_orig.jpg,140,,,,,,,,,0,140,140,140,,,,,,,,,,,,,,,-23.173828125,-12.509765625,0,0,1,1.571652174,,,,,2015_Sep_21_1640,K,facesParametric,4,59.6904405444,
./stim/MorphM1_03_orig.jpg,141,,,,,,,,,0,141,141,141,,,,,,,,,,,,,,,-23.173828125,-12.509765625,1,0,0,3.78653907776,,,,,2015_Sep_21_1640,K,facesParametric,4,59.6904405444,
./stim/MorphF8_06_orig.jpg,142,,,,,,,,,0,142,142,142,,,,,,,,,,,,,,,-23.173828125,-12.509765625,1,0,0,1.27223205566,,,,,2015_Sep_21_1640,K,facesParametric,4,59.6904405444,
./stim/MorphM3_03_orig.jpg,143,,,,,,,,,0,143,143,143,,,,,,,,,,,,,,,-23.173828125,-12.509765625,1,0,0,1.94160914421,,,,,2015_Sep_21_1640,K,facesParametric,4,59.6904405444,
./stim/MorphF8_07_orig.jpg,144,,,,,,,,,0,144,144,144,,,,,,,,,,,,,,,-23.173828125,-12.509765625,1,0,0,1.82449007034,,,,,2015_Sep_21_1640,K,facesParametric,4,59.6904405444,
./stim/MorphM10_09_orig.jpg,145,,,,,,,,,0,145,145,145,,,,,,,,,,,,,,,-23.173828125,-12.509765625,1,0,0,1.15477800369,,,,,2015_Sep_21_1640,K,facesParametric,4,59.6904405444,
./stim/MorphF1_10_orig.jpg,146,,,,,,,,,0,146,146,146,,,,,,,,,,,,,,,-23.14453125,-12.48046875,0,0,1,2.24476790428,,,,,2015_Sep_21_1640,K,facesParametric,4,59.6904405444,
./stim/MorphF9_06_orig.jpg,147,,,,,,,,,0,147,147,147,,,,,,,,,,,,,,,-23.14453125,-12.48046875,0,0,1,1.32225584984,,,,,2015_Sep_21_1640,K,facesParametric,4,59.6904405444,
./stim/MorphM8_04_orig.jpg,148,,,,,,,,,0,148,148,148,,,,,,,,,,,,,,,-23.14453125,-12.48046875,0,0,1,1.071570158,,,,,2015_Sep_21_1640,K,facesParametric,4,59.6904405444,
./stim/MorphM3_09_orig.jpg,149,,,,,,,,,0,149,149,149,,,,,,,,,,,,,,,-23.0859375,-12.451171875,1,0,0,1.44095802307,,,,,2015_Sep_21_1640,K,facesParametric,4,59.6904405444,
./stim/MorphF6_07_orig.jpg,150,,,,,,,,,0,150,150,150,,,,,,,,,,,,,,,-23.056640625,-12.421875,1,0,0,2.45958614349,,,,,2015_Sep_21_1640,K,facesParametric,4,59.6904405444,
./stim/MorphM8_01_orig.jpg,151,,,,,,,,,0,151,151,151,,,,,,,,,,,,,,,-22.998046875,-12.392578125,0,0,1,1.55736589432,,,,,2015_Sep_21_1640,K,facesParametric,4,59.6904405444,
./stim/MorphF10_09_orig.jpg,152,,,,,,,,,0,152,152,152,,,,,,,,,,,,,,,-22.96875,-12.36328125,1,0,0,4.42384505272,,,,,2015_Sep_21_1640,K,facesParametric,4,59.6904405444,
./stim/MorphM9_01_orig.jpg,153,,,,,,,,,0,153,153,153,,,,,,,,,,,,,,,-22.96875,-12.36328125,0,0,1,6.31640791893,,,,,2015_Sep_21_1640,K,facesParametric,4,59.6904405444,
./stim/MorphF3_10_orig.jpg,154,,,,,,,,,0,154,154,154,,,,,,,,,,,,,,,-22.880859375,-12.333984375,1,0,0,1.74125790596,,,,,2015_Sep_21_1640,K,facesParametric,4,59.6904405444,
./stim/MorphM7_03_orig.jpg,155,,,,,,,,,0,155,155,155,,,,,,,,,,,,,,,-22.880859375,-12.333984375,0,0,1,2.44442892075,,,,,2015_Sep_21_1640,K,facesParametric,4,59.6904405444,
./stim/MorphF7_10_orig.jpg,156,,,,,,,,,0,156,156,156,,,,,,,,,,,,,,,-22.880859375,-12.333984375,1,0,0,1.23890519142,,,,,2015_Sep_21_1640,K,facesParametric,4,59.6904405444,
./stim/MorphF8_10_orig.jpg,157,,,,,,,,,0,157,157,157,,,,,,,,,,,,,,,-22.880859375,-12.333984375,1,0,0,1.10504198074,,,,,2015_Sep_21_1640,K,facesParametric,4,59.6904405444,
./stim/MorphF2_07_orig.jpg,158,,,,,,,,,0,158,158,158,,,,,,,,,,,,,,,-22.880859375,-12.333984375,1,0,0,1.20342493057,,,,,2015_Sep_21_1640,K,facesParametric,4,59.6904405444,
./stim/MorphF8_03_orig.jpg,159,,,,,,,,,0,159,159,159,,,,,,,,,,,,,,,-22.822265625,-12.333984375,0,0,1,2.07692599297,,,,,2015_Sep_21_1640,K,facesParametric,4,59.6904405444,
./stim/MorphM9_03_orig.jpg,160,,,,,,,,,0,160,160,160,,,,,,,,,,,,,,,-22.79296875,-12.3046875,0,0,1,1.27255797386,,,,,2015_Sep_21_1640,K,facesParametric,4,59.6904405444,
./stim/MorphF7_03_orig.jpg,161,,,,,,,,,0,161,161,161,,,,,,,,,,,,,,,-22.79296875,-12.3046875,0,0,1,2.64680194855,,,,,2015_Sep_21_1640,K,facesParametric,4,59.6904405444,
./stim/MorphM10_02_orig.jpg,162,,,,,,,,,0,162,162,162,,,,,,,,,,,,,,,-22.79296875,-12.3046875,0,0,1,3.6194601059,,,,,2015_Sep_21_1640,K,facesParametric,4,59.6904405444,
./stim/MorphM5_02_orig.jpg,163,,,,,,,,,0,163,163,163,,,,,,,,,,,,,,,-22.79296875,-12.3046875,0,0,1,2.15876483917,,,,,2015_Sep_21_1640,K,facesParametric,4,59.6904405444,
./stim/MorphF10_00_orig.jpg,164,,,,,,,,,0,164,164,164,,,,,,,,,,,,,,,-22.79296875,-12.3046875,0,0,1,0.953594923019,,,,,2015_Sep_21_1640,K,facesParametric,4,59.6904405444,
./stim/MorphF9_10_orig.jpg,165,,,,,,,,,0,165,165,165,,,,,,,,,,,,,,,-22.79296875,-12.3046875,1,0,0,1.6398601532,,,,,2015_Sep_21_1640,K,facesParametric,4,59.6904405444,
./stim/MorphM8_10_orig.jpg,166,,,,,,,,,0,166,166,166,,,,,,,,,,,,,,,-22.79296875,-12.3046875,1,0,0,1.77409505844,,,,,2015_Sep_21_1640,K,facesParametric,4,59.6904405444,
./stim/MorphF7_08_orig.jpg,167,,,,,,,,,0,167,167,167,,,,,,,,,,,,,,,-22.79296875,-12.3046875,1,0,0,1.4892308712,,,,,2015_Sep_21_1640,K,facesParametric,4,59.6904405444,
./stim/MorphF3_08_orig.jpg,168,,,,,,,,,0,168,168,168,,,,,,,,,,,,,,,-22.79296875,-12.3046875,0,0,1,1.64142489433,,,,,2015_Sep_21_1640,K,facesParametric,4,59.6904405444,
./stim/MorphF2_05_orig.jpg,169,,,,,,,,,0,169,169,169,,,,,,,,,,,,,,,-22.8515625,-12.36328125,1,0,0,8.34486985207,,,,,2015_Sep_21_1640,K,facesParametric,4,59.6904405444,
./stim/MorphM2_00_orig.jpg,170,,,,,,,,,0,170,170,170,,,,,,,,,,,,,,,-22.880859375,-12.36328125,0,0,1,1.62336206436,,,,,2015_Sep_21_1640,K,facesParametric,4,59.6904405444,
./stim/MorphF2_08_orig.jpg,171,,,,,,,,,0,171,171,171,,,,,,,,,,,,,,,-22.880859375,-12.36328125,1,0,0,1.39004802704,,,,,2015_Sep_21_1640,K,facesParametric,4,59.6904405444,
./stim/MorphF7_04_orig.jpg,172,,,,,,,,,0,172,172,172,,,,,,,,,,,,,,,-22.880859375,-12.36328125,0,0,1,2.21083402634,,,,,2015_Sep_21_1640,K,facesParametric,4,59.6904405444,
./stim/MorphF5_01_orig.jpg,173,,,,,,,,,0,173,173,173,,,,,,,,,,,,,,,-22.91015625,-12.392578125,0,0,1,1.0549519062,,,,,2015_Sep_21_1640,K,facesParametric,4,59.6904405444,
./stim/MorphM8_02_orig.jpg,174,,,,,,,,,0,174,174,174,,,,,,,,,,,,,,,-22.91015625,-12.392578125,0,0,1,4.40655517578,,,,,2015_Sep_21_1640,K,facesParametric,4,59.6904405444,
./stim/MorphM5_10_orig.jpg,175,,,,,,,,,0,175,175,175,,,,,,,,,,,,,,,-22.939453125,-12.421875,1,0,0,4.27219104767,,,,,2015_Sep_21_1640,K,facesParametric,4,59.6904405444,
./stim/MorphM6_04_orig.jpg,176,,,,,,,,,0,176,176,176,,,,,,,,,,,,,,,-22.939453125,-12.421875,0,0,1,1.95975995064,,,,,2015_Sep_21_1640,K,facesParametric,4,59.6904405444,
./stim/MorphF1_07_orig.jpg,177,,,,,,,,,0,177,177,177,,,,,,,,,,,,,,,-22.96875,-12.451171875,0,0,1,5.42922210693,,,,,2015_Sep_21_1640,K,facesParametric,4,59.6904405444,
./stim/MorphM9_05_orig.jpg,178,,,,,,,,,0,178,178,178,,,,,,,,,,,,,,,-22.96875,-12.451171875,0,0,1,1.49009609222,,,,,2015_Sep_21_1640,K,facesParametric,4,59.6904405444,
./stim/MorphF8_01_orig.jpg,179,,,,,,,,,0,179,179,179,,,,,,,,,,,,,,,-22.998046875,-12.421875,0,0,1,5.71412110329,,,,,2015_Sep_21_1640,K,facesParametric,4,59.6904405444,
./stim/MorphM1_09_orig.jpg,180,,,,,,,,,0,180,180,180,,,,,,,,,,,,,,,-22.96875,-12.451171875,1,0,0,2.69475984573,,,,,2015_Sep_21_1640,K,facesParametric,4,59.6904405444,
./stim/MorphF2_00_orig.jpg,181,,,,,,,,,0,181,181,181,,,,,,,,,,,,,,,-23.173828125,-12.5390625,0,0,1,4.99341988564,,,,,2015_Sep_21_1640,K,facesParametric,4,59.6904405444,
./stim/MorphM10_07_orig.jpg,182,,,,,,,,,0,182,182,182,,,,,,,,,,,,,,,-23.203125,-12.59765625,1,0,0,1.3895881176,,,,,2015_Sep_21_1640,K,facesParametric,4,59.6904405444,
./stim/MorphF7_07_orig.jpg,183,,,,,,,,,0,183,183,183,,,,,,,,,,,,,,,-23.203125,-12.59765625,1,0,0,1.45535206795,,,,,2015_Sep_21_1640,K,facesParametric,4,59.6904405444,
./stim/MorphM9_07_orig.jpg,184,,,,,,,,,0,184,184,184,,,,,,,,,,,,,,,-23.203125,-12.59765625,0,0,1,2.07696795464,,,,,2015_Sep_21_1640,K,facesParametric,4,59.6904405444,
./stim/MorphM7_00_orig.jpg,185,,,,,,,,,0,185,185,185,,,,,,,,,,,,,,,-23.173828125,-12.626953125,1,0,0,6.90209794044,,,,,2015_Sep_21_1640,K,facesParametric,4,59.6904405444,
./stim/MorphM2_05_orig.jpg,186,,,,,,,,,0,186,186,186,,,,,,,,,,,,,,,-23.203125,-12.65625,0,0,1,1.20534396172,,,,,2015_Sep_21_1640,K,facesParametric,4,59.6904405444,
./stim/MorphM10_04_orig.jpg,187,,,,,,,,,0,187,187,187,,,,,,,,,,,,,,,-23.203125,-12.65625,1,0,0,1.05347490311,,,,,2015_Sep_21_1640,K,facesParametric,4,59.6904405444,
./stim/MorphM7_05_orig.jpg,188,,,,,,,,,0,188,188,188,,,,,,,,,,,,,,,-23.203125,-12.65625,1,0,0,1.20540690422,,,,,2015_Sep_21_1640,K,facesParametric,4,59.6904405444,
./stim/MorphF4_10_orig.jpg,189,,,,,,,,,0,189,189,189,,,,,,,,,,,,,,,-23.173828125,-12.685546875,1,0,0,1.18646788597,,,,,2015_Sep_21_1640,K,facesParametric,4,59.6904405444,
./stim/MorphM4_07_orig.jpg,190,,,,,,,,,0,190,190,190,,,,,,,,,,,,,,,-23.173828125,-12.685546875,1,0,0,2.37697696686,,,,,2015_Sep_21_1640,K,facesParametric,4,59.6904405444,
./stim/MorphF6_09_orig.jpg,191,,,,,,,,,0,191,191,191,,,,,,,,,,,,,,,-23.203125,-12.71484375,1,0,0,3.34941506386,,,,,2015_Sep_21_1640,K,facesParametric,4,59.6904405444,
./stim/MorphF1_04_orig.jpg,192,,,,,,,,,0,192,192,192,,,,,,,,,,,,,,,-23.14453125,-12.685546875,0,0,1,1.58904695511,,,,,2015_Sep_21_1640,K,facesParametric,4,59.6904405444,
./stim/MorphM2_08_orig.jpg,193,,,,,,,,,0,193,193,193,,,,,,,,,,,,,,,-23.14453125,-12.685546875,0,0,1,6.09735298157,,,,,2015_Sep_21_1640,K,facesParametric,4,59.6904405444,
./stim/MorphF10_10_orig.jpg,194,,,,,,,,,0,194,194,194,,,,,,,,,,,,,,,-23.14453125,-12.685546875,1,0,0,0.987416982651,,,,,2015_Sep_21_1640,K,facesParametric,4,59.6904405444,
./stim/MorphM7_09_orig.jpg,195,,,,,,,,,0,195,195,195,,,,,,,,,,,,,,,-23.14453125,-12.685546875,1,0,0,1.40645599365,,,,,2015_Sep_21_1640,K,facesParametric,4,59.6904405444,
./stim/MorphF4_04_orig.jpg,196,,,,,,,,,0,196,196,196,,,,,,,,,,,,,,,-23.0859375,-12.744140625,0,0,1,3.26663708687,,,,,2015_Sep_21_1640,K,facesParametric,4,59.6904405444,
./stim/MorphF2_09_orig.jpg,197,,,,,,,,,0,197,197,197,,,,,,,,,,,,,,,-23.14453125,-12.7734375,1,0,0,1.32290196419,,,,,2015_Sep_21_1640,K,facesParametric,4,59.6904405444,
./stim/MorphM6_09_orig.jpg,198,,,,,,,,,0,198,198,198,,,,,,,,,,,,,,,-23.14453125,-12.7734375,1,0,0,3.25040912628,,,,,2015_Sep_21_1640,K,facesParametric,4,59.6904405444,
./stim/MorphF3_07_orig.jpg,199,,,,,,,,,0,199,199,199,,,,,,,,,,,,,,,-23.173828125,-12.802734375,1,0,0,1.72460079193,,,,,2015_Sep_21_1640,K,facesParametric,4,59.6904405444,
./stim/MorphM3_05_orig.jpg,200,,,,,,,,,0,200,200,200,,,,,,,,,,,,,,,-23.173828125,-12.802734375,1,0,0,1.18803787231,,,,,2015_Sep_21_1640,K,facesParametric,4,59.6904405444,
./stim/MorphM5_08_orig.jpg,201,,,,,,,,,0,201,201,201,,,,,,,,,,,,,,,-23.349609375,-12.94921875,0,0,1,3.78600597382,,,,,2015_Sep_21_1640,K,facesParametric,4,59.6904405444,
./stim/MorphM8_09_orig.jpg,202,,,,,,,,,0,202,202,202,,,,,,,,,,,,,,,-23.26171875,-12.978515625,1,0,0,8.27850484848,,,,,2015_Sep_21_1640,K,facesParametric,4,59.6904405444,
./stim/MorphF6_10_orig.jpg,203,,,,,,,,,0,203,203,203,,,,,,,,,,,,,,,-23.232421875,-13.0078125,1,0,0,1.20390605927,,,,,2015_Sep_21_1640,K,facesParametric,4,59.6904405444,
./stim/MorphM6_07_orig.jpg,204,,,,,,,,,0,204,204,204,,,,,,,,,,,,,,,-14.501953125,-9.111328125,0,0,1,6.80303883553,,,,,2015_Sep_21_1640,K,facesParametric,4,59.6904405444,
./stim/MorphF6_00_orig.jpg,205,,,,,,,,,0,205,205,205,,,,,,,,,,,,,,,-14.501953125,-9.111328125,0,0,1,1.6242518425,,,,,2015_Sep_21_1640,K,facesParametric,4,59.6904405444,
./stim/MorphM2_03_orig.jpg,206,,,,,,,,,0,206,206,206,,,,,,,,,,,,,,,-14.501953125,-9.111328125,0,0,1,5.64705014229,,,,,2015_Sep_21_1640,K,facesParametric,4,59.6904405444,
./stim/MorphM4_03_orig.jpg,207,,,,,,,,,0,207,207,207,,,,,,,,,,,,,,,-14.501953125,-9.111328125,1,0,0,4.20484280586,,,,,2015_Sep_21_1640,K,facesParametric,4,59.6904405444,
./stim/MorphF4_00_orig.jpg,208,,,,,,,,,0,208,208,208,,,,,,,,,,,,,,,-14.47265625,-9.111328125,0,0,1,1.52377796173,,,,,2015_Sep_21_1640,K,facesParametric,4,59.6904405444,
./stim/MorphM1_07_orig.jpg,209,,,,,,,,,0,209,209,209,,,,,,,,,,,,,,,-14.47265625,-9.111328125,1,0,0,4.10506391525,,,,,2015_Sep_21_1640,K,facesParametric,4,59.6904405444,
./stim/MorphF10_01_orig.jpg,210,,,,,,,,,0,210,210,210,,,,,,,,,,,,,,,-14.47265625,-9.111328125,0,0,1,3.24998211861,,,,,2015_Sep_21_1640,K,facesParametric,4,59.6904405444,
./stim/MorphM7_02_orig.jpg,211,,,,,,,,,0,211,211,211,,,,,,,,,,,,,,,-14.4140625,-9.111328125,1,0,0,2.74708008766,,,,,2015_Sep_21_1640,K,facesParametric,4,59.6904405444,
./stim/MorphM10_01_orig.jpg,212,,,,,,,,,0,212,212,212,,,,,,,,,,,,,,,-14.4140625,-9.111328125,0,0,1,1.85915994644,,,,,2015_Sep_21_1640,K,facesParametric,4,59.6904405444,
./stim/MorphF9_03_orig.jpg,213,,,,,,,,,0,213,213,213,,,,,,,,,,,,,,,-14.384765625,-9.08203125,0,0,1,1.22144913673,,,,,2015_Sep_21_1640,K,facesParametric,4,59.6904405444,
./stim/MorphM5_07_orig.jpg,214,,,,,,,,,0,214,214,214,,,,,,,,,,,,,,,-14.384765625,-9.08203125,0,0,1,1.02093100548,,,,,2015_Sep_21_1640,K,facesParametric,4,59.6904405444,
./stim/MorphM10_03_orig.jpg,215,,,,,,,,,0,215,215,215,,,,,,,,,,,,,,,-14.384765625,-9.08203125,1,0,0,1.8419418335,,,,,2015_Sep_21_1640,K,facesParametric,4,59.6904405444,
./stim/MorphF2_01_orig.jpg,216,,,,,,,,,0,216,216,216,,,,,,,,,,,,,,,-14.384765625,-9.08203125,0,0,1,5.66155791283,,,,,2015_Sep_21_1640,K,facesParametric,4,59.6904405444,
./stim/MorphM2_02_orig.jpg,217,,,,,,,,,0,217,217,217,,,,,,,,,,,,,,,-14.384765625,-9.08203125,0,0,1,1.77571702003,,,,,2015_Sep_21_1640,K,facesParametric,4,59.6904405444,
./stim/MorphM1_01_orig.jpg,218,,,,,,,,,0,218,218,218,,,,,,,,,,,,,,,-14.384765625,-9.08203125,1,0,0,3.28347206116,,,,,2015_Sep_21_1640,K,facesParametric,4,59.6904405444,
./stim/MorphF3_03_orig.jpg,219,,,,,,,,,0,219,219,219,,,,,,,,,,,,,,,-14.384765625,-9.08203125,0,0,1,6.18305301666,,,,,2015_Sep_21_1640,K,facesParametric,4,59.6904405444,
,,,,,,,,,,,,,,,,,,,,,,,,,,,,,,,,,,,,return,1.19646501541,2015_Sep_21_1640,K,facesParametric,4,59.6904405444,
