img,num,basicLoop.thisRepN,basicLoop.thisTrialN,basicLoop.thisN,basicLoop.thisIndex,trials.thisRepN,trials.thisTrialN,trials.thisN,trials.thisIndex,trials2.thisRepN,trials2.thisTrialN,trials2.thisN,trials2.thisIndex,key_resp_2.keys,key_resp_2.rt,basicRating1.response,basicRating1.rt,basicRating2.response,basicRating2.rt,basicRating3.response,basicRating3.rt,basicRating4.response,basicRating4.rt,key_resp_3.keys,key_resp_3.rt,key_resp_4.keys,key_resp_4.rt,mouseResp.x,mouseResp.y,mouseResp.leftButton,mouseResp.midButton,mouseResp.rightButton,mouseResp.time,key_resp_5.keys,key_resp_5.rt,key_resp_7.keys,key_resp_7.rt,date,group,expName,participant,frameRate,
,,,,,,,,,,,,,,return,135.009816885,,,,,,,,,,,,,,,,,,,,,,,2015_Sep_24_1537,K,facesParametric,5,59.4781503834,
./basicStim/09F_SP_O.jpg,,0,0,0,40,,,,,,,,,,,None,None,None,None,SUP,6.812,None,None,,,,,,,,,,,,,,,2015_Sep_24_1537,K,facesParametric,5,59.4781503834,
./basicStim/03F_AN_O.jpg,,0,1,1,14,,,,,,,,,,,None,None,ANG,3.727,None,None,None,None,,,,,,,,,,,,,,,2015_Sep_24_1537,K,facesParametric,5,59.4781503834,
./basicStim/28M_SA_C.jpg,,0,2,2,67,,,,,,,,,,,None,None,None,None,None,None,NTR,11.89,,,,,,,,,,,,,,,2015_Sep_24_1537,K,facesParametric,5,59.4781503834,
./basicStim/02F_DI_O.jpg,,0,3,3,8,,,,,,,,,,,None,None,ANG,4.629,None,None,None,None,,,,,,,,,,,,,,,2015_Sep_24_1537,K,facesParametric,5,59.4781503834,
./basicStim/28M_DI_O.jpg,,0,4,4,64,,,,,,,,,,,None,None,None,None,DIS,2.719,None,None,,,,,,,,,,,,,,,2015_Sep_24_1537,K,facesParametric,5,59.4781503834,
./basicStim/21M_HA_O.jpg,,0,5,5,45,,,,,,,,,,,HAP,1.213,None,None,None,None,None,None,,,,,,,,,,,,,,,2015_Sep_24_1537,K,facesParametric,5,59.4781503834,
./basicStim/34M_SP_O.jpg,,0,6,6,75,,,,,,,,,,,None,None,None,None,SUP,1.831,None,None,,,,,,,,,,,,,,,2015_Sep_24_1537,K,facesParametric,5,59.4781503834,
./basicStim/02F_AN_O.jpg,,0,7,7,7,,,,,,,,,,,None,None,ANG,2.418,None,None,None,None,,,,,,,,,,,,,,,2015_Sep_24_1537,K,facesParametric,5,59.4781503834,
./basicStim/23M_DI_O.jpg,,0,8,8,50,,,,,,,,,,,SAD,1.396,None,None,None,None,None,None,,,,,,,,,,,,,,,2015_Sep_24_1537,K,facesParametric,5,59.4781503834,
./basicStim/36M_AN_O.jpg,,0,9,9,77,,,,,,,,,,,None,None,ANG,1.929,None,None,None,None,,,,,,,,,,,,,,,2015_Sep_24_1537,K,facesParametric,5,59.4781503834,
./basicStim/36M_NE_C.jpg,,0,10,10,83,,,,,,,,,,,None,None,None,None,None,None,NTR,2.953,,,,,,,,,,,,,,,2015_Sep_24_1537,K,facesParametric,5,59.4781503834,
./basicStim/09F_SA_C.jpg,,0,11,11,39,,,,,,,,,,,SAD,1.245,None,None,None,None,None,None,,,,,,,,,,,,,,,2015_Sep_24_1537,K,facesParametric,5,59.4781503834,
./basicStim/02F_HA_O.jpg,,0,12,12,10,,,,,,,,,,,HAP,1.185,None,None,None,None,None,None,,,,,,,,,,,,,,,2015_Sep_24_1537,K,facesParametric,5,59.4781503834,
./basicStim/09F_DI_O.jpg,,0,13,13,36,,,,,,,,,,,None,None,None,None,DIS,2.447,None,None,,,,,,,,,,,,,,,2015_Sep_24_1537,K,facesParametric,5,59.4781503834,
./basicStim/06F_SA_C.jpg,,0,14,14,25,,,,,,,,,,,SAD,3.053,None,None,None,None,None,None,,,,,,,,,,,,,,,2015_Sep_24_1537,K,facesParametric,5,59.4781503834,
./basicStim/06F_SP_O.jpg,,0,15,15,26,,,,,,,,,,,None,None,None,None,SUP,1.995,None,None,,,,,,,,,,,,,,,2015_Sep_24_1537,K,facesParametric,5,59.4781503834,
./basicStim/06F_HA_O.jpg,,0,16,16,24,,,,,,,,,,,HAP,1.771,None,None,None,None,None,None,,,,,,,,,,,,,,,2015_Sep_24_1537,K,facesParametric,5,59.4781503834,
./basicStim/03F_FE_O.jpg,,0,17,17,16,,,,,,,,,,,None,None,None,None,SUP,2.114,None,None,,,,,,,,,,,,,,,2015_Sep_24_1537,K,facesParametric,5,59.4781503834,
./basicStim/07F_DI_O.jpg,,0,18,18,29,,,,,,,,,,,None,None,None,None,DIS,1.007,None,None,,,,,,,,,,,,,,,2015_Sep_24_1537,K,facesParametric,5,59.4781503834,
./basicStim/21M_DI_O.jpg,,0,19,19,43,,,,,,,,,,,None,None,None,None,DIS,0.725,None,None,,,,,,,,,,,,,,,2015_Sep_24_1537,K,facesParametric,5,59.4781503834,
./basicStim/23M_FE_O.jpg,,0,20,20,51,,,,,,,,,,,None,None,FEA,3.959,None,None,None,None,,,,,,,,,,,,,,,2015_Sep_24_1537,K,facesParametric,5,59.4781503834,
./basicStim/06F_DI_O.jpg,,0,21,21,22,,,,,,,,,,,None,None,None,None,DIS,1.985,None,None,,,,,,,,,,,,,,,2015_Sep_24_1537,K,facesParametric,5,59.4781503834,
./basicStim/07F_AN_O.jpg,,0,22,22,28,,,,,,,,,,,None,None,ANG,1.36,None,None,None,None,,,,,,,,,,,,,,,2015_Sep_24_1537,K,facesParametric,5,59.4781503834,
./basicStim/34M_SA_C.jpg,,0,23,23,74,,,,,,,,,,,SAD,0.96,None,None,None,None,None,None,,,,,,,,,,,,,,,2015_Sep_24_1537,K,facesParametric,5,59.4781503834,
./basicStim/36M_SP_O.jpg,,0,24,24,82,,,,,,,,,,,None,None,None,None,SUP,1.459,None,None,,,,,,,,,,,,,,,2015_Sep_24_1537,K,facesParametric,5,59.4781503834,
./basicStim/36M_HA_O.jpg,,0,25,25,80,,,,,,,,,,,HAP,1.581,None,None,None,None,None,None,,,,,,,,,,,,,,,2015_Sep_24_1537,K,facesParametric,5,59.4781503834,
./basicStim/03F_DI_O.jpg,,0,26,26,15,,,,,,,,,,,None,None,None,None,DIS,1.241,None,None,,,,,,,,,,,,,,,2015_Sep_24_1537,K,facesParametric,5,59.4781503834,
./basicStim/21M_SA_C.jpg,,0,27,27,46,,,,,,,,,,,SAD,3.425,None,None,None,None,None,None,,,,,,,,,,,,,,,2015_Sep_24_1537,K,facesParametric,5,59.4781503834,
./basicStim/24M_FE_O.jpg,,0,28,28,58,,,,,,,,,,,None,None,None,None,None,None,NTR,30.576,,,,,,,,,,,,,,,2015_Sep_24_1537,K,facesParametric,5,59.4781503834,
./basicStim/06F_FE_O.jpg,,0,29,29,23,,,,,,,,,,,None,None,None,None,SUP,5.25,None,None,,,,,,,,,,,,,,,2015_Sep_24_1537,K,facesParametric,5,59.4781503834,
./basicStim/34M_FE_O.jpg,,0,30,30,72,,,,,,,,,,,None,None,FEA,3.118,None,None,None,None,,,,,,,,,,,,,,,2015_Sep_24_1537,K,facesParametric,5,59.4781503834,
./basicStim/23M_HA_O.jpg,,0,31,31,52,,,,,,,,,,,HAP,1.698,None,None,None,None,None,None,,,,,,,,,,,,,,,2015_Sep_24_1537,K,facesParametric,5,59.4781503834,
./basicStim/28M_FE_O.jpg,,0,32,32,65,,,,,,,,,,,None,None,FEA,1.083,None,None,None,None,,,,,,,,,,,,,,,2015_Sep_24_1537,K,facesParametric,5,59.4781503834,
./basicStim/36M_DI_O.jpg,,0,33,33,78,,,,,,,,,,,None,None,None,None,DIS,1.309,None,None,,,,,,,,,,,,,,,2015_Sep_24_1537,K,facesParametric,5,59.4781503834,
./basicStim/24M_SP_O.jpg,,0,34,34,61,,,,,,,,,,,None,None,None,None,SUP,1.513,None,None,,,,,,,,,,,,,,,2015_Sep_24_1537,K,facesParametric,5,59.4781503834,
./basicStim/24M_DI_O.jpg,,0,35,35,57,,,,,,,,,,,None,None,None,None,DIS,3.876,None,None,,,,,,,,,,,,,,,2015_Sep_24_1537,K,facesParametric,5,59.4781503834,
./basicStim/02F_SA_C.jpg,,0,36,36,11,,,,,,,,,,,SAD,0.994,None,None,None,None,None,None,,,,,,,,,,,,,,,2015_Sep_24_1537,K,facesParametric,5,59.4781503834,
./basicStim/01F_DI_O.jpg,,0,37,37,1,,,,,,,,,,,None,None,None,None,DIS,2.603,None,None,,,,,,,,,,,,,,,2015_Sep_24_1537,K,facesParametric,5,59.4781503834,
./basicStim/21M_SP_O.jpg,,0,38,38,47,,,,,,,,,,,None,None,None,None,SUP,1.007,None,None,,,,,,,,,,,,,,,2015_Sep_24_1537,K,facesParametric,5,59.4781503834,
./basicStim/06F_NE_C.jpg,,0,39,39,27,,,,,,,,,,,None,None,None,None,None,None,NTR,1.331,,,,,,,,,,,,,,,2015_Sep_24_1537,K,facesParametric,5,59.4781503834,
./basicStim/01F_SA_C.jpg,,0,40,40,4,,,,,,,,,,,SAD,1.282,None,None,None,None,None,None,,,,,,,,,,,,,,,2015_Sep_24_1537,K,facesParametric,5,59.4781503834,
./basicStim/02F_NE_C.jpg,,0,41,41,13,,,,,,,,,,,None,None,None,None,None,None,NTR,2.601,,,,,,,,,,,,,,,2015_Sep_24_1537,K,facesParametric,5,59.4781503834,
./basicStim/23M_NE_C.jpg,,0,42,42,55,,,,,,,,,,,None,None,None,None,None,None,NTR,0.659,,,,,,,,,,,,,,,2015_Sep_24_1537,K,facesParametric,5,59.4781503834,
./basicStim/28M_SP_O.jpg,,0,43,43,68,,,,,,,,,,,None,None,None,None,SUP,1.16,None,None,,,,,,,,,,,,,,,2015_Sep_24_1537,K,facesParametric,5,59.4781503834,
./basicStim/01F_SP_O.jpg,,0,44,44,5,,,,,,,,,,,None,None,None,None,SUP,1.431,None,None,,,,,,,,,,,,,,,2015_Sep_24_1537,K,facesParametric,5,59.4781503834,
./basicStim/28M_AN_O.jpg,,0,45,45,63,,,,,,,,,,,None,None,ANG,3.504,None,None,None,None,,,,,,,,,,,,,,,2015_Sep_24_1537,K,facesParametric,5,59.4781503834,
./basicStim/34M_HA_O.jpg,,0,46,46,73,,,,,,,,,,,HAP,1.085,None,None,None,None,None,None,,,,,,,,,,,,,,,2015_Sep_24_1537,K,facesParametric,5,59.4781503834,
./basicStim/09F_NE_C.jpg,,0,47,47,41,,,,,,,,,,,HAP,3.824,None,None,None,None,None,None,,,,,,,,,,,,,,,2015_Sep_24_1537,K,facesParametric,5,59.4781503834,
./basicStim/01F_NE_C.jpg,,0,48,48,6,,,,,,,,,,,None,None,None,None,None,None,NTR,2.131,,,,,,,,,,,,,,,2015_Sep_24_1537,K,facesParametric,5,59.4781503834,
./basicStim/23M_SP_O.jpg,,0,49,49,54,,,,,,,,,,,None,None,None,None,SUP,1.063,None,None,,,,,,,,,,,,,,,2015_Sep_24_1537,K,facesParametric,5,59.4781503834,
./basicStim/23M_AN_O.jpg,,0,50,50,49,,,,,,,,,,,None,None,ANG,1.145,None,None,None,None,,,,,,,,,,,,,,,2015_Sep_24_1537,K,facesParametric,5,59.4781503834,
./basicStim/03F_NE_C.jpg,,0,51,51,20,,,,,,,,,,,HAP,2.004,None,None,None,None,None,None,,,,,,,,,,,,,,,2015_Sep_24_1537,K,facesParametric,5,59.4781503834,
./basicStim/24M_AN_O.jpg,,0,52,52,56,,,,,,,,,,,None,None,None,None,DIS,2.401,None,None,,,,,,,,,,,,,,,2015_Sep_24_1537,K,facesParametric,5,59.4781503834,
./basicStim/07F_SP_O.jpg,,0,53,53,33,,,,,,,,,,,None,None,None,None,SUP,1.193,None,None,,,,,,,,,,,,,,,2015_Sep_24_1537,K,facesParametric,5,59.4781503834,
./basicStim/24M_NE_C.jpg,,0,54,54,62,,,,,,,,,,,HAP,2.761,None,None,None,None,None,None,,,,,,,,,,,,,,,2015_Sep_24_1537,K,facesParametric,5,59.4781503834,
./basicStim/07F_HA_O.jpg,,0,55,55,31,,,,,,,,,,,HAP,0.843,None,None,None,None,None,None,,,,,,,,,,,,,,,2015_Sep_24_1537,K,facesParametric,5,59.4781503834,
./basicStim/02F_SP_O.jpg,,0,56,56,12,,,,,,,,,,,None,None,None,None,SUP,4.98,None,None,,,,,,,,,,,,,,,2015_Sep_24_1537,K,facesParametric,5,59.4781503834,
./basicStim/03F_SA_C.jpg,,0,57,57,18,,,,,,,,,,,SAD,0.996,None,None,None,None,None,None,,,,,,,,,,,,,,,2015_Sep_24_1537,K,facesParametric,5,59.4781503834,
./basicStim/24M_HA_O.jpg,,0,58,58,59,,,,,,,,,,,HAP,1.849,None,None,None,None,None,None,,,,,,,,,,,,,,,2015_Sep_24_1537,K,facesParametric,5,59.4781503834,
./basicStim/09F_HA_O.jpg,,0,59,59,38,,,,,,,,,,,HAP,0.508,None,None,None,None,None,None,,,,,,,,,,,,,,,2015_Sep_24_1537,K,facesParametric,5,59.4781503834,
./basicStim/21M_NE_C.jpg,,0,60,60,48,,,,,,,,,,,HAP,1.478,None,None,None,None,None,None,,,,,,,,,,,,,,,2015_Sep_24_1537,K,facesParametric,5,59.4781503834,
./basicStim/09F_AN_O.jpg,,0,61,61,35,,,,,,,,,,,None,None,ANG,1.109,None,None,None,None,,,,,,,,,,,,,,,2015_Sep_24_1537,K,facesParametric,5,59.4781503834,
./basicStim/07F_NE_C.jpg,,0,62,62,34,,,,,,,,,,,None,None,None,None,None,None,NTR,2.723,,,,,,,,,,,,,,,2015_Sep_24_1537,K,facesParametric,5,59.4781503834,
./basicStim/21M_FE_O.jpg,,0,63,63,44,,,,,,,,,,,None,None,FEA,1.445,None,None,None,None,,,,,,,,,,,,,,,2015_Sep_24_1537,K,facesParametric,5,59.4781503834,
./basicStim/01F_AN_O.jpg,,0,64,64,0,,,,,,,,,,,None,None,ANG,1.129,None,None,None,None,,,,,,,,,,,,,,,2015_Sep_24_1537,K,facesParametric,5,59.4781503834,
./basicStim/36M_FE_O.jpg,,0,65,65,79,,,,,,,,,,,None,None,FEA,1.465,None,None,None,None,,,,,,,,,,,,,,,2015_Sep_24_1537,K,facesParametric,5,59.4781503834,
./basicStim/34M_AN_O.jpg,,0,66,66,70,,,,,,,,,,,None,None,ANG,1.765,None,None,None,None,,,,,,,,,,,,,,,2015_Sep_24_1537,K,facesParametric,5,59.4781503834,
./basicStim/34M_DI_O.jpg,,0,67,67,71,,,,,,,,,,,None,None,None,None,DIS,1.199,None,None,,,,,,,,,,,,,,,2015_Sep_24_1537,K,facesParametric,5,59.4781503834,
./basicStim/28M_NE_C.jpg,,0,68,68,69,,,,,,,,,,,None,None,None,None,None,None,NTR,1.273,,,,,,,,,,,,,,,2015_Sep_24_1537,K,facesParametric,5,59.4781503834,
./basicStim/02F_FE_O.jpg,,0,69,69,9,,,,,,,,,,,None,None,None,None,DIS,1.895,None,None,,,,,,,,,,,,,,,2015_Sep_24_1537,K,facesParametric,5,59.4781503834,
./basicStim/03F_SP_O.jpg,,0,70,70,19,,,,,,,,,,,HAP,1.714,None,None,None,None,None,None,,,,,,,,,,,,,,,2015_Sep_24_1537,K,facesParametric,5,59.4781503834,
./basicStim/01F_HA_O.jpg,,0,71,71,3,,,,,,,,,,,HAP,1.313,None,None,None,None,None,None,,,,,,,,,,,,,,,2015_Sep_24_1537,K,facesParametric,5,59.4781503834,
./basicStim/24M_SA_C.jpg,,0,72,72,60,,,,,,,,,,,SAD,3.44,None,None,None,None,None,None,,,,,,,,,,,,,,,2015_Sep_24_1537,K,facesParametric,5,59.4781503834,
./basicStim/09F_FE_O.jpg,,0,73,73,37,,,,,,,,,,,None,None,None,None,DIS,3.204,None,None,,,,,,,,,,,,,,,2015_Sep_24_1537,K,facesParametric,5,59.4781503834,
./basicStim/23M_SA_C.jpg,,0,74,74,53,,,,,,,,,,,SAD,1.629,None,None,None,None,None,None,,,,,,,,,,,,,,,2015_Sep_24_1537,K,facesParametric,5,59.4781503834,
./basicStim/21M_AN_O.jpg,,0,75,75,42,,,,,,,,,,,None,None,ANG,1.195,None,None,None,None,,,,,,,,,,,,,,,2015_Sep_24_1537,K,facesParametric,5,59.4781503834,
./basicStim/01F_FE_O.jpg,,0,76,76,2,,,,,,,,,,,None,None,FEA,2.186,None,None,None,None,,,,,,,,,,,,,,,2015_Sep_24_1537,K,facesParametric,5,59.4781503834,
./basicStim/07F_SA_C.jpg,,0,77,77,32,,,,,,,,,,,SAD,1.515,None,None,None,None,None,None,,,,,,,,,,,,,,,2015_Sep_24_1537,K,facesParametric,5,59.4781503834,
./basicStim/03F_HA_O.jpg,,0,78,78,17,,,,,,,,,,,HAP,1.387,None,None,None,None,None,None,,,,,,,,,,,,,,,2015_Sep_24_1537,K,facesParametric,5,59.4781503834,
./basicStim/07F_FE_O.jpg,,0,79,79,30,,,,,,,,,,,None,None,FEA,0.842,None,None,None,None,,,,,,,,,,,,,,,2015_Sep_24_1537,K,facesParametric,5,59.4781503834,
./basicStim/34M_NE_C.jpg,,0,80,80,76,,,,,,,,,,,None,None,None,None,None,None,NTR,1.595,,,,,,,,,,,,,,,2015_Sep_24_1537,K,facesParametric,5,59.4781503834,
./basicStim/06F_AN_O.jpg,,0,81,81,21,,,,,,,,,,,None,None,None,None,DIS,2.001,None,None,,,,,,,,,,,,,,,2015_Sep_24_1537,K,facesParametric,5,59.4781503834,
./basicStim/28M_HA_O.jpg,,0,82,82,66,,,,,,,,,,,HAP,2.151,None,None,None,None,None,None,,,,,,,,,,,,,,,2015_Sep_24_1537,K,facesParametric,5,59.4781503834,
./basicStim/36M_SA_C.jpg,,0,83,83,81,,,,,,,,,,,SAD,1.464,None,None,None,None,None,None,,,,,,,,,,,,,,,2015_Sep_24_1537,K,facesParametric,5,59.4781503834,
,,,,,,,,,,,,,,,,,,,,,,,,return,6.21751594543,,,,,,,,,,,,,2015_Sep_24_1537,K,facesParametric,5,59.4781503834,
,,,,,,,,,,,,,,return,14.277739048,,,,,,,,,,,,,,,,,,,,,,,2015_Sep_24_1537,K,facesParametric,5,59.4781503834,
,,,,,,,,,,,,,,,,,,,,,,,,return,32.3964869976,,,,,,,,,,,,,2015_Sep_24_1537,K,facesParametric,5,59.4781503834,
,,,,,,,,,,,,,,,,,,,,,,,,,,return,2.0779569149,,,,,,,,,,,2015_Sep_24_1537,K,facesParametric,5,59.4781503834,
./stim/MorphM6_03_orig.jpg,0,,,,,0,0,0,0,,,,,,,,,,,,,,,,,,,-23.349609375,12.1875,0,0,1,5.22287607193,,,,,2015_Sep_24_1537,K,facesParametric,5,59.4781503834,
./stim/MorphF9_09_orig.jpg,1,,,,,0,1,1,1,,,,,,,,,,,,,,,,,,,-23.4375,12.24609375,0,0,1,3.06198692322,,,,,2015_Sep_24_1537,K,facesParametric,5,59.4781503834,
./stim/MorphF5_04_orig.jpg,2,,,,,0,2,2,2,,,,,,,,,,,,,,,,,,,-23.4375,12.3046875,1,0,0,2.1095058918,,,,,2015_Sep_24_1537,K,facesParametric,5,59.4781503834,
./stim/MorphM7_07_orig.jpg,3,,,,,0,3,3,3,,,,,,,,,,,,,,,,,,,-23.408203125,12.24609375,0,0,1,1.07145309448,,,,,2015_Sep_24_1537,K,facesParametric,5,59.4781503834,
./stim/MorphF1_01_orig.jpg,4,,,,,0,4,4,4,,,,,,,,,,,,,,,,,,,-23.26171875,12.1875,1,0,0,2.88044381142,,,,,2015_Sep_24_1537,K,facesParametric,5,59.4781503834,
./stim/MorphM4_06_orig.jpg,5,,,,,0,5,5,5,,,,,,,,,,,,,,,,,,,-23.26171875,12.3046875,0,0,1,1.74195098877,,,,,2015_Sep_24_1537,K,facesParametric,5,59.4781503834,
./stim/MorphM6_09_orig.jpg,6,,,,,0,6,6,6,,,,,,,,,,,,,,,,,,,-23.14453125,12.451171875,0,0,1,2.61303305626,,,,,2015_Sep_24_1537,K,facesParametric,5,59.4781503834,
./stim/MorphM5_02_orig.jpg,7,,,,,0,7,7,7,,,,,,,,,,,,,,,,,,,-22.822265625,12.24609375,1,0,0,1.32198882103,,,,,2015_Sep_24_1537,K,facesParametric,5,59.4781503834,
./stim/MorphF1_08_orig.jpg,8,,,,,0,8,8,8,,,,,,,,,,,,,,,,,,,-22.822265625,12.158203125,0,0,1,2.05907702446,,,,,2015_Sep_24_1537,K,facesParametric,5,59.4781503834,
./stim/MorphF4_04_orig.jpg,9,,,,,0,9,9,9,,,,,,,,,,,,,,,,,,,-22.8515625,12.216796875,1,0,0,1.08800411224,,,,,2015_Sep_24_1537,K,facesParametric,5,59.4781503834,
./stim/MorphM8_01_orig.jpg,10,,,,,0,10,10,10,,,,,,,,,,,,,,,,,,,-22.822265625,12.3046875,1,0,0,3.08255314827,,,,,2015_Sep_24_1537,K,facesParametric,5,59.4781503834,
./stim/MorphF8_04_orig.jpg,11,,,,,0,11,11,11,,,,,,,,,,,,,,,,,,,-22.880859375,12.36328125,1,0,0,1.38967013359,,,,,2015_Sep_24_1537,K,facesParametric,5,59.4781503834,
./stim/MorphF5_10_orig.jpg,12,,,,,0,12,12,12,,,,,,,,,,,,,,,,,,,-22.880859375,12.333984375,0,0,1,0.97091293335,,,,,2015_Sep_24_1537,K,facesParametric,5,59.4781503834,
./stim/MorphM8_04_orig.jpg,13,,,,,0,13,13,13,,,,,,,,,,,,,,,,,,,-22.822265625,12.36328125,1,0,0,1.55699586868,,,,,2015_Sep_24_1537,K,facesParametric,5,59.4781503834,
./stim/MorphF7_00_orig.jpg,14,,,,,0,14,14,14,,,,,,,,,,,,,,,,,,,-22.880859375,12.392578125,1,0,0,1.00225615501,,,,,2015_Sep_24_1537,K,facesParametric,5,59.4781503834,
./stim/MorphM7_00_orig.jpg,15,,,,,0,15,15,15,,,,,,,,,,,,,,,,,,,-22.91015625,12.421875,1,0,0,1.29003596306,,,,,2015_Sep_24_1537,K,facesParametric,5,59.4781503834,
./stim/MorphM10_10_orig.jpg,16,,,,,0,16,16,16,,,,,,,,,,,,,,,,,,,-22.91015625,12.421875,0,0,1,0.968649148941,,,,,2015_Sep_24_1537,K,facesParametric,5,59.4781503834,
./stim/MorphF1_09_orig.jpg,17,,,,,0,17,17,17,,,,,,,,,,,,,,,,,,,-22.91015625,12.48046875,1,0,0,1.48979496956,,,,,2015_Sep_24_1537,K,facesParametric,5,59.4781503834,
./stim/MorphM2_08_orig.jpg,18,,,,,0,18,18,18,,,,,,,,,,,,,,,,,,,-22.91015625,12.568359375,0,0,1,1.32240104675,,,,,2015_Sep_24_1537,K,facesParametric,5,59.4781503834,
./stim/MorphF3_03_orig.jpg,19,,,,,0,19,19,19,,,,,,,,,,,,,,,,,,,-22.8515625,12.65625,1,0,0,0.984529018402,,,,,2015_Sep_24_1537,K,facesParametric,5,59.4781503834,
./stim/MorphF2_05_orig.jpg,20,,,,,0,20,20,20,,,,,,,,,,,,,,,,,,,-22.8515625,12.685546875,0,0,1,1.2725520134,,,,,2015_Sep_24_1537,K,facesParametric,5,59.4781503834,
./stim/MorphF4_02_orig.jpg,21,,,,,0,21,21,21,,,,,,,,,,,,,,,,,,,-22.822265625,12.71484375,1,0,0,1.17177605629,,,,,2015_Sep_24_1537,K,facesParametric,5,59.4781503834,
./stim/MorphM3_09_orig.jpg,22,,,,,0,22,22,22,,,,,,,,,,,,,,,,,,,-22.79296875,12.685546875,0,0,1,1.03661799431,,,,,2015_Sep_24_1537,K,facesParametric,5,59.4781503834,
./stim/MorphF5_06_orig.jpg,23,,,,,0,23,23,23,,,,,,,,,,,,,,,,,,,-22.79296875,12.71484375,0,0,1,1.35666394234,,,,,2015_Sep_24_1537,K,facesParametric,5,59.4781503834,
./stim/MorphF2_09_orig.jpg,24,,,,,0,24,24,24,,,,,,,,,,,,,,,,,,,-22.79296875,12.71484375,0,0,1,1.15290999413,,,,,2015_Sep_24_1537,K,facesParametric,5,59.4781503834,
./stim/MorphM10_09_orig.jpg,25,,,,,0,25,25,25,,,,,,,,,,,,,,,,,,,-22.79296875,12.71484375,0,0,1,1.44027805328,,,,,2015_Sep_24_1537,K,facesParametric,5,59.4781503834,
./stim/MorphM9_04_orig.jpg,26,,,,,0,26,26,26,,,,,,,,,,,,,,,,,,,-22.763671875,12.744140625,1,0,0,2.21114993095,,,,,2015_Sep_24_1537,K,facesParametric,5,59.4781503834,
./stim/MorphF6_09_orig.jpg,27,,,,,0,27,27,27,,,,,,,,,,,,,,,,,,,-22.763671875,12.744140625,0,0,1,1.02123904228,,,,,2015_Sep_24_1537,K,facesParametric,5,59.4781503834,
./stim/MorphF5_03_orig.jpg,28,,,,,0,28,28,28,,,,,,,,,,,,,,,,,,,-22.705078125,12.71484375,1,0,0,2.11025691032,,,,,2015_Sep_24_1537,K,facesParametric,5,59.4781503834,
./stim/MorphF6_02_orig.jpg,29,,,,,0,29,29,29,,,,,,,,,,,,,,,,,,,-22.734375,12.744140625,1,0,0,4.20569419861,,,,,2015_Sep_24_1537,K,facesParametric,5,59.4781503834,
./stim/MorphF2_06_orig.jpg,30,,,,,0,30,30,30,,,,,,,,,,,,,,,,,,,-22.763671875,12.71484375,0,0,1,1.05406904221,,,,,2015_Sep_24_1537,K,facesParametric,5,59.4781503834,
./stim/MorphM4_05_orig.jpg,31,,,,,0,31,31,31,,,,,,,,,,,,,,,,,,,-22.822265625,12.685546875,0,0,1,0.920758962631,,,,,2015_Sep_24_1537,K,facesParametric,5,59.4781503834,
./stim/MorphF8_06_orig.jpg,32,,,,,0,32,32,32,,,,,,,,,,,,,,,,,,,-22.734375,12.744140625,0,0,1,0.970331907272,,,,,2015_Sep_24_1537,K,facesParametric,5,59.4781503834,
./stim/MorphM6_02_orig.jpg,33,,,,,0,33,33,33,,,,,,,,,,,,,,,,,,,-22.705078125,12.7734375,1,0,0,2.99911093712,,,,,2015_Sep_24_1537,K,facesParametric,5,59.4781503834,
./stim/MorphF9_06_orig.jpg,34,,,,,0,34,34,34,,,,,,,,,,,,,,,,,,,-22.67578125,12.802734375,0,0,1,1.59069418907,,,,,2015_Sep_24_1537,K,facesParametric,5,59.4781503834,
./stim/MorphM5_06_orig.jpg,35,,,,,0,35,35,35,,,,,,,,,,,,,,,,,,,-22.646484375,12.802734375,0,0,1,2.36203384399,,,,,2015_Sep_24_1537,K,facesParametric,5,59.4781503834,
./stim/MorphM8_10_orig.jpg,36,,,,,0,36,36,36,,,,,,,,,,,,,,,,,,,-22.6171875,12.83203125,0,0,1,1.01972389221,,,,,2015_Sep_24_1537,K,facesParametric,5,59.4781503834,
./stim/MorphF4_00_orig.jpg,37,,,,,0,37,37,37,,,,,,,,,,,,,,,,,,,-22.6171875,12.890625,1,0,0,0.987189054489,,,,,2015_Sep_24_1537,K,facesParametric,5,59.4781503834,
./stim/MorphF10_06_orig.jpg,38,,,,,0,38,38,38,,,,,,,,,,,,,,,,,,,-22.6171875,12.919921875,1,0,0,1.10465288162,,,,,2015_Sep_24_1537,K,facesParametric,5,59.4781503834,
./stim/MorphM2_04_orig.jpg,39,,,,,0,39,39,39,,,,,,,,,,,,,,,,,,,-22.6171875,12.94921875,1,0,0,1.30616211891,,,,,2015_Sep_24_1537,K,facesParametric,5,59.4781503834,
./stim/MorphF9_01_orig.jpg,40,,,,,0,40,40,40,,,,,,,,,,,,,,,,,,,-22.646484375,13.0078125,1,0,0,1.8407599926,,,,,2015_Sep_24_1537,K,facesParametric,5,59.4781503834,
./stim/MorphF3_00_orig.jpg,41,,,,,0,41,41,41,,,,,,,,,,,,,,,,,,,-22.529296875,13.125,1,0,0,1.35386991501,,,,,2015_Sep_24_1537,K,facesParametric,5,59.4781503834,
./stim/MorphF10_07_orig.jpg,42,,,,,0,42,42,42,,,,,,,,,,,,,,,,,,,-22.5,13.154296875,0,0,1,0.735912084579,,,,,2015_Sep_24_1537,K,facesParametric,5,59.4781503834,
./stim/MorphF9_10_orig.jpg,43,,,,,0,43,43,43,,,,,,,,,,,,,,,,,,,-22.5,13.154296875,0,0,1,2.0269908905,,,,,2015_Sep_24_1537,K,facesParametric,5,59.4781503834,
./stim/MorphF8_00_orig.jpg,44,,,,,0,44,44,44,,,,,,,,,,,,,,,,,,,-22.5,13.154296875,1,0,0,0.819809913635,,,,,2015_Sep_24_1537,K,facesParametric,5,59.4781503834,
./stim/MorphF3_01_orig.jpg,45,,,,,0,45,45,45,,,,,,,,,,,,,,,,,,,-22.55859375,13.18359375,1,0,0,1.50470304489,,,,,2015_Sep_24_1537,K,facesParametric,5,59.4781503834,
./stim/MorphM10_03_orig.jpg,46,,,,,0,46,46,46,,,,,,,,,,,,,,,,,,,-22.55859375,13.18359375,0,0,1,2.17755699158,,,,,2015_Sep_24_1537,K,facesParametric,5,59.4781503834,
./stim/MorphM1_00_orig.jpg,47,,,,,0,47,47,47,,,,,,,,,,,,,,,,,,,-22.6171875,13.18359375,1,0,0,0.768321990967,,,,,2015_Sep_24_1537,K,facesParametric,5,59.4781503834,
./stim/MorphM9_01_orig.jpg,48,,,,,0,48,48,48,,,,,,,,,,,,,,,,,,,-22.6171875,13.18359375,1,0,0,1.1212208271,,,,,2015_Sep_24_1537,K,facesParametric,5,59.4781503834,
./stim/MorphF3_05_orig.jpg,49,,,,,0,49,49,49,,,,,,,,,,,,,,,,,,,-22.6171875,13.18359375,0,0,1,1.82588005066,,,,,2015_Sep_24_1537,K,facesParametric,5,59.4781503834,
./stim/MorphM5_00_orig.jpg,50,,,,,0,50,50,50,,,,,,,,,,,,,,,,,,,-22.55859375,13.18359375,1,0,0,1.00203108788,,,,,2015_Sep_24_1537,K,facesParametric,5,59.4781503834,
./stim/MorphF9_03_orig.jpg,51,,,,,0,51,51,51,,,,,,,,,,,,,,,,,,,-22.55859375,13.154296875,1,0,0,1.47353410721,,,,,2015_Sep_24_1537,K,facesParametric,5,59.4781503834,
./stim/MorphM9_03_orig.jpg,52,,,,,0,52,52,52,,,,,,,,,,,,,,,,,,,-22.587890625,13.125,0,0,1,2.22579598427,,,,,2015_Sep_24_1537,K,facesParametric,5,59.4781503834,
./stim/MorphM7_09_orig.jpg,53,,,,,0,53,53,53,,,,,,,,,,,,,,,,,,,-22.587890625,13.125,0,0,1,0.920530080795,,,,,2015_Sep_24_1537,K,facesParametric,5,59.4781503834,
./stim/MorphM9_00_orig.jpg,54,,,,,0,54,54,54,,,,,,,,,,,,,,,,,,,-22.6171875,13.154296875,1,0,0,1.07127904892,,,,,2015_Sep_24_1537,K,facesParametric,5,59.4781503834,
./stim/MorphF1_04_orig.jpg,55,,,,,0,55,55,55,,,,,,,,,,,,,,,,,,,-22.6171875,13.154296875,1,0,0,1.87391781807,,,,,2015_Sep_24_1537,K,facesParametric,5,59.4781503834,
./stim/MorphF10_02_orig.jpg,56,,,,,0,56,56,56,,,,,,,,,,,,,,,,,,,-22.6171875,13.154296875,1,0,0,1.08816218376,,,,,2015_Sep_24_1537,K,facesParametric,5,59.4781503834,
./stim/MorphM3_08_orig.jpg,57,,,,,0,57,57,57,,,,,,,,,,,,,,,,,,,-22.6171875,13.154296875,0,0,1,1.07144594193,,,,,2015_Sep_24_1537,K,facesParametric,5,59.4781503834,
./stim/MorphF2_01_orig.jpg,58,,,,,0,58,58,58,,,,,,,,,,,,,,,,,,,-22.6171875,13.154296875,0,0,1,1.339220047,,,,,2015_Sep_24_1537,K,facesParametric,5,59.4781503834,
./stim/MorphF10_05_orig.jpg,59,,,,,0,59,59,59,,,,,,,,,,,,,,,,,,,-22.6171875,13.154296875,0,0,1,2.82908511162,,,,,2015_Sep_24_1537,K,facesParametric,5,59.4781503834,
./stim/MorphF1_02_orig.jpg,60,,,,,0,60,60,60,,,,,,,,,,,,,,,,,,,-22.55859375,13.154296875,1,0,0,1.42054104805,,,,,2015_Sep_24_1537,K,facesParametric,5,59.4781503834,
./stim/MorphF4_10_orig.jpg,61,,,,,0,61,61,61,,,,,,,,,,,,,,,,,,,-22.55859375,13.125,0,0,1,0.836889982224,,,,,2015_Sep_24_1537,K,facesParametric,5,59.4781503834,
./stim/MorphM9_05_orig.jpg,62,,,,,0,62,62,62,,,,,,,,,,,,,,,,,,,-22.587890625,13.154296875,0,0,1,1.92619299889,,,,,2015_Sep_24_1537,K,facesParametric,5,59.4781503834,
./stim/MorphF5_01_orig.jpg,63,,,,,0,63,63,63,,,,,,,,,,,,,,,,,,,-22.587890625,13.154296875,1,0,0,1.18863916397,,,,,2015_Sep_24_1537,K,facesParametric,5,59.4781503834,
./stim/MorphM7_04_orig.jpg,64,,,,,0,64,64,64,,,,,,,,,,,,,,,,,,,-22.587890625,13.125,0,0,1,1.18692207336,,,,,2015_Sep_24_1537,K,facesParametric,5,59.4781503834,
./stim/MorphM1_08_orig.jpg,65,,,,,0,65,65,65,,,,,,,,,,,,,,,,,,,-22.55859375,13.154296875,0,0,1,1.02099609375,,,,,2015_Sep_24_1537,K,facesParametric,5,59.4781503834,
./stim/MorphM3_01_orig.jpg,66,,,,,0,66,66,66,,,,,,,,,,,,,,,,,,,-22.587890625,13.18359375,0,0,1,2.56076097488,,,,,2015_Sep_24_1537,K,facesParametric,5,59.4781503834,
./stim/MorphF9_08_orig.jpg,67,,,,,0,67,67,67,,,,,,,,,,,,,,,,,,,-22.55859375,13.154296875,0,0,1,0.736079931259,,,,,2015_Sep_24_1537,K,facesParametric,5,59.4781503834,
./stim/MorphF6_05_orig.jpg,68,,,,,0,68,68,68,,,,,,,,,,,,,,,,,,,-22.55859375,13.18359375,0,0,1,1.389991045,,,,,2015_Sep_24_1537,K,facesParametric,5,59.4781503834,
./stim/MorphF5_02_orig.jpg,69,,,,,0,69,69,69,,,,,,,,,,,,,,,,,,,-22.294921875,13.154296875,1,0,0,1.3060798645,,,,,2015_Sep_24_1537,K,facesParametric,5,59.4781503834,
./stim/MorphM2_06_orig.jpg,70,,,,,0,70,70,70,,,,,,,,,,,,,,,,,,,-22.265625,13.18359375,0,0,1,2.22539496422,,,,,2015_Sep_24_1537,K,facesParametric,5,59.4781503834,
./stim/MorphF2_03_orig.jpg,71,,,,,0,71,71,71,,,,,,,,,,,,,,,,,,,-22.265625,13.18359375,1,0,0,4.12164711952,,,,,2015_Sep_24_1537,K,facesParametric,5,59.4781503834,
./stim/MorphM4_04_orig.jpg,72,,,,,0,72,72,72,,,,,,,,,,,,,,,,,,,-22.265625,13.154296875,0,0,1,0.851078033447,,,,,2015_Sep_24_1537,K,facesParametric,5,59.4781503834,
./stim/MorphM1_06_orig.jpg,73,,,,,0,73,73,73,,,,,,,,,,,,,,,,,,,-22.236328125,13.125,0,0,1,2.36180496216,,,,,2015_Sep_24_1537,K,facesParametric,5,59.4781503834,
./stim/MorphM6_05_orig.jpg,74,,,,,0,74,74,74,,,,,,,,,,,,,,,,,,,-22.236328125,13.18359375,1,0,0,1.18887615204,,,,,2015_Sep_24_1537,K,facesParametric,5,59.4781503834,
./stim/MorphM1_09_orig.jpg,75,,,,,0,75,75,75,,,,,,,,,,,,,,,,,,,-22.20703125,13.154296875,0,0,1,0.750877857208,,,,,2015_Sep_24_1537,K,facesParametric,5,59.4781503834,
./stim/MorphM9_10_orig.jpg,76,,,,,0,76,76,76,,,,,,,,,,,,,,,,,,,-22.20703125,13.095703125,0,0,1,1.97648715973,,,,,2015_Sep_24_1537,K,facesParametric,5,59.4781503834,
./stim/MorphM10_08_orig.jpg,77,,,,,0,77,77,77,,,,,,,,,,,,,,,,,,,-22.236328125,13.06640625,0,0,1,0.700497865677,,,,,2015_Sep_24_1537,K,facesParametric,5,59.4781503834,
./stim/MorphM8_06_orig.jpg,78,,,,,0,78,78,78,,,,,,,,,,,,,,,,,,,-22.265625,13.125,0,0,1,2.51211190224,,,,,2015_Sep_24_1537,K,facesParametric,5,59.4781503834,
./stim/MorphF8_02_orig.jpg,79,,,,,0,79,79,79,,,,,,,,,,,,,,,,,,,-22.1484375,13.125,1,0,0,0.920678138733,,,,,2015_Sep_24_1537,K,facesParametric,5,59.4781503834,
./stim/MorphM5_10_orig.jpg,80,,,,,0,80,80,80,,,,,,,,,,,,,,,,,,,-22.119140625,13.154296875,0,0,1,1.15270900726,,,,,2015_Sep_24_1537,K,facesParametric,5,59.4781503834,
./stim/MorphM10_06_orig.jpg,81,,,,,0,81,81,81,,,,,,,,,,,,,,,,,,,-22.177734375,12.978515625,0,0,1,0.853005170822,,,,,2015_Sep_24_1537,K,facesParametric,5,59.4781503834,
./stim/MorphM1_04_orig.jpg,82,,,,,0,82,82,82,,,,,,,,,,,,,,,,,,,-22.1484375,12.861328125,0,0,1,0.769616127014,,,,,2015_Sep_24_1537,K,facesParametric,5,59.4781503834,
./stim/MorphF6_06_orig.jpg,83,,,,,0,83,83,83,,,,,,,,,,,,,,,,,,,-22.119140625,12.94921875,1,0,0,4.6912779808,,,,,2015_Sep_24_1537,K,facesParametric,5,59.4781503834,
./stim/MorphM8_08_orig.jpg,84,,,,,0,84,84,84,,,,,,,,,,,,,,,,,,,-22.060546875,12.978515625,0,0,1,1.07139205933,,,,,2015_Sep_24_1537,K,facesParametric,5,59.4781503834,
./stim/MorphM1_07_orig.jpg,85,,,,,0,85,85,85,,,,,,,,,,,,,,,,,,,-22.060546875,13.0078125,1,0,0,1.4234688282,,,,,2015_Sep_24_1537,K,facesParametric,5,59.4781503834,
./stim/MorphF3_04_orig.jpg,86,,,,,0,86,86,86,,,,,,,,,,,,,,,,,,,-22.08984375,13.037109375,1,0,0,1.05333900452,,,,,2015_Sep_24_1537,K,facesParametric,5,59.4781503834,
./stim/MorphM1_03_orig.jpg,87,,,,,0,87,87,87,,,,,,,,,,,,,,,,,,,-22.060546875,13.037109375,1,0,0,1.5900850296,,,,,2015_Sep_24_1537,K,facesParametric,5,59.4781503834,
./stim/MorphM3_03_orig.jpg,88,,,,,0,88,88,88,,,,,,,,,,,,,,,,,,,-22.001953125,13.06640625,1,0,0,1.77404403687,,,,,2015_Sep_24_1537,K,facesParametric,5,59.4781503834,
./stim/MorphM10_01_orig.jpg,89,,,,,0,89,89,89,,,,,,,,,,,,,,,,,,,-21.97265625,13.095703125,1,0,0,1.16985297203,,,,,2015_Sep_24_1537,K,facesParametric,5,59.4781503834,
./stim/MorphM6_08_orig.jpg,90,,,,,0,90,90,90,,,,,,,,,,,,,,,,,,,-21.97265625,13.095703125,0,0,1,2.34524011612,,,,,2015_Sep_24_1537,K,facesParametric,5,59.4781503834,
./stim/MorphM3_04_orig.jpg,91,,,,,0,91,91,91,,,,,,,,,,,,,,,,,,,-21.97265625,13.095703125,1,0,0,1.17053604126,,,,,2015_Sep_24_1537,K,facesParametric,5,59.4781503834,
./stim/MorphM10_00_orig.jpg,92,,,,,0,92,92,92,,,,,,,,,,,,,,,,,,,-21.943359375,13.125,1,0,0,0.803268909454,,,,,2015_Sep_24_1537,K,facesParametric,5,59.4781503834,
./stim/MorphM4_10_orig.jpg,93,,,,,0,93,93,93,,,,,,,,,,,,,,,,,,,-21.943359375,13.125,0,0,1,0.853653907776,,,,,2015_Sep_24_1537,K,facesParametric,5,59.4781503834,
./stim/MorphF9_04_orig.jpg,94,,,,,0,94,94,94,,,,,,,,,,,,,,,,,,,-21.9140625,13.18359375,0,0,1,1.90784716606,,,,,2015_Sep_24_1537,K,facesParametric,5,59.4781503834,
./stim/MorphM7_06_orig.jpg,95,,,,,0,95,95,95,,,,,,,,,,,,,,,,,,,-21.9140625,13.18359375,0,0,1,0.719022035599,,,,,2015_Sep_24_1537,K,facesParametric,5,59.4781503834,
./stim/MorphF7_06_orig.jpg,96,,,,,0,96,96,96,,,,,,,,,,,,,,,,,,,-21.9140625,13.18359375,0,0,1,1.05480194092,,,,,2015_Sep_24_1537,K,facesParametric,5,59.4781503834,
./stim/MorphM6_07_orig.jpg,97,,,,,0,97,97,97,,,,,,,,,,,,,,,,,,,-21.9140625,13.18359375,1,0,0,0.902903079987,,,,,2015_Sep_24_1537,K,facesParametric,5,59.4781503834,
./stim/MorphF6_10_orig.jpg,98,,,,,0,98,98,98,,,,,,,,,,,,,,,,,,,-21.9140625,13.18359375,0,0,1,1.72355103493,,,,,2015_Sep_24_1537,K,facesParametric,5,59.4781503834,
./stim/MorphM9_08_orig.jpg,99,,,,,0,99,99,99,,,,,,,,,,,,,,,,,,,-21.85546875,13.125,0,0,1,1.77468085289,,,,,2015_Sep_24_1537,K,facesParametric,5,59.4781503834,
./stim/MorphF1_07_orig.jpg,100,,,,,0,100,100,100,,,,,,,,,,,,,,,,,,,-21.826171875,13.18359375,1,0,0,1.70883798599,,,,,2015_Sep_24_1537,K,facesParametric,5,59.4781503834,
./stim/MorphF2_00_orig.jpg,101,,,,,0,101,101,101,,,,,,,,,,,,,,,,,,,-21.73828125,13.18359375,0,0,1,1.82315206528,,,,,2015_Sep_24_1537,K,facesParametric,5,59.4781503834,
./stim/MorphM6_01_orig.jpg,102,,,,,0,102,102,102,,,,,,,,,,,,,,,,,,,-21.73828125,13.18359375,1,0,0,0.953153848648,,,,,2015_Sep_24_1537,K,facesParametric,5,59.4781503834,
./stim/MorphF3_07_orig.jpg,103,,,,,0,103,103,103,,,,,,,,,,,,,,,,,,,-21.796875,13.095703125,0,0,1,1.28942799568,,,,,2015_Sep_24_1537,K,facesParametric,5,59.4781503834,
./stim/MorphM5_05_orig.jpg,104,,,,,0,104,104,104,,,,,,,,,,,,,,,,,,,-21.767578125,13.06640625,0,0,1,1.33929681778,,,,,2015_Sep_24_1537,K,facesParametric,5,59.4781503834,
./stim/MorphF2_02_orig.jpg,105,,,,,0,105,105,105,,,,,,,,,,,,,,,,,,,-21.73828125,13.095703125,0,0,1,1.3061208725,,,,,2015_Sep_24_1537,K,facesParametric,5,59.4781503834,
./stim/MorphF9_07_orig.jpg,106,,,,,0,106,106,106,,,,,,,,,,,,,,,,,,,-21.73828125,13.095703125,0,0,1,1.67484116554,,,,,2015_Sep_24_1537,K,facesParametric,5,59.4781503834,
./stim/MorphM5_03_orig.jpg,107,,,,,0,107,107,107,,,,,,,,,,,,,,,,,,,-21.708984375,13.125,0,0,1,3.85316181183,,,,,2015_Sep_24_1537,K,facesParametric,5,59.4781503834,
./stim/MorphM9_06_orig.jpg,108,,,,,0,108,108,108,,,,,,,,,,,,,,,,,,,-21.708984375,13.125,1,0,0,0.920903921127,,,,,2015_Sep_24_1537,K,facesParametric,5,59.4781503834,
./stim/MorphF4_08_orig.jpg,109,,,,,0,109,109,109,,,,,,,,,,,,,,,,,,,-21.73828125,13.095703125,0,0,1,0.719212055206,,,,,2015_Sep_24_1537,K,facesParametric,5,59.4781503834,
./stim/MorphM2_02_orig.jpg,110,,,,,0,110,110,110,,,,,,,,,,,,,,,,,,,-21.767578125,13.125,1,0,0,1.17188811302,,,,,2015_Sep_24_1537,K,facesParametric,5,59.4781503834,
./stim/MorphM3_06_orig.jpg,111,,,,,0,111,111,111,,,,,,,,,,,,,,,,,,,-21.767578125,13.125,0,0,1,1.20567202568,,,,,2015_Sep_24_1537,K,facesParametric,5,59.4781503834,
./stim/MorphF9_05_orig.jpg,112,,,,,0,112,112,112,,,,,,,,,,,,,,,,,,,-21.767578125,13.18359375,0,0,1,3.19974780083,,,,,2015_Sep_24_1537,K,facesParametric,5,59.4781503834,
./stim/MorphF8_01_orig.jpg,113,,,,,0,113,113,113,,,,,,,,,,,,,,,,,,,-21.474609375,13.18359375,1,0,0,1.89232993126,,,,,2015_Sep_24_1537,K,facesParametric,5,59.4781503834,
./stim/MorphF2_10_orig.jpg,114,,,,,0,114,114,114,,,,,,,,,,,,,,,,,,,-21.4453125,13.154296875,0,0,1,1.205534935,,,,,2015_Sep_24_1537,K,facesParametric,5,59.4781503834,
./stim/MorphF5_05_orig.jpg,115,,,,,0,115,115,115,,,,,,,,,,,,,,,,,,,-21.4453125,13.154296875,1,0,0,1.82409000397,,,,,2015_Sep_24_1537,K,facesParametric,5,59.4781503834,
./stim/MorphM1_02_orig.jpg,116,,,,,0,116,116,116,,,,,,,,,,,,,,,,,,,-21.50390625,13.125,1,0,0,1.47368693352,,,,,2015_Sep_24_1537,K,facesParametric,5,59.4781503834,
./stim/MorphF8_09_orig.jpg,117,,,,,0,117,117,117,,,,,,,,,,,,,,,,,,,-21.533203125,13.154296875,0,0,1,3.0992410183,,,,,2015_Sep_24_1537,K,facesParametric,5,59.4781503834,
./stim/MorphF1_06_orig.jpg,118,,,,,0,118,118,118,,,,,,,,,,,,,,,,,,,-21.591796875,13.18359375,1,0,0,1.55725502968,,,,,2015_Sep_24_1537,K,facesParametric,5,59.4781503834,
./stim/MorphF10_10_orig.jpg,119,,,,,0,119,119,119,,,,,,,,,,,,,,,,,,,-21.591796875,13.18359375,0,0,1,0.970898866653,,,,,2015_Sep_24_1537,K,facesParametric,5,59.4781503834,
./stim/MorphM6_00_orig.jpg,120,,,,,0,120,120,120,,,,,,,,,,,,,,,,,,,-21.5625,13.154296875,1,0,0,1.55750703812,,,,,2015_Sep_24_1537,K,facesParametric,5,59.4781503834,
./stim/MorphM4_09_orig.jpg,121,,,,,0,121,121,121,,,,,,,,,,,,,,,,,,,-21.5625,13.18359375,0,0,1,0.819097042084,,,,,2015_Sep_24_1537,K,facesParametric,5,59.4781503834,
./stim/MorphF7_05_orig.jpg,122,,,,,0,122,122,122,,,,,,,,,,,,,,,,,,,-21.650390625,13.125,1,0,0,3.14749097824,,,,,2015_Sep_24_1537,K,facesParametric,5,59.4781503834,
./stim/MorphF10_08_orig.jpg,123,,,,,0,123,123,123,,,,,,,,,,,,,,,,,,,-21.62109375,13.06640625,0,0,1,0.818337202072,,,,,2015_Sep_24_1537,K,facesParametric,5,59.4781503834,
./stim/MorphF8_05_orig.jpg,124,,,,,0,124,124,124,,,,,,,,,,,,,,,,,,,-21.650390625,13.125,0,0,1,4.54059004784,,,,,2015_Sep_24_1537,K,facesParametric,5,59.4781503834,
./stim/MorphF1_10_orig.jpg,125,,,,,0,125,125,125,,,,,,,,,,,,,,,,,,,-21.6796875,13.154296875,0,0,1,1.57398796082,,,,,2015_Sep_24_1537,K,facesParametric,5,59.4781503834,
./stim/MorphM2_03_orig.jpg,126,,,,,0,126,126,126,,,,,,,,,,,,,,,,,,,-21.708984375,13.125,1,0,0,3.13264012337,,,,,2015_Sep_24_1537,K,facesParametric,5,59.4781503834,
./stim/MorphF7_07_orig.jpg,127,,,,,0,127,127,127,,,,,,,,,,,,,,,,,,,-21.6796875,13.125,0,0,1,1.38881397247,,,,,2015_Sep_24_1537,K,facesParametric,5,59.4781503834,
./stim/MorphF8_03_orig.jpg,128,,,,,0,128,128,128,,,,,,,,,,,,,,,,,,,-21.62109375,13.154296875,1,0,0,1.20539784431,,,,,2015_Sep_24_1537,K,facesParametric,5,59.4781503834,
./stim/MorphM1_01_orig.jpg,129,,,,,0,129,129,129,,,,,,,,,,,,,,,,,,,-21.62109375,13.154296875,1,0,0,1.20543384552,,,,,2015_Sep_24_1537,K,facesParametric,5,59.4781503834,
./stim/MorphM5_04_orig.jpg,130,,,,,0,130,130,130,,,,,,,,,,,,,,,,,,,-21.533203125,13.06640625,0,0,1,4.49010896683,,,,,2015_Sep_24_1537,K,facesParametric,5,59.4781503834,
./stim/MorphF7_09_orig.jpg,131,,,,,0,131,131,131,,,,,,,,,,,,,,,,,,,-21.50390625,13.125,0,0,1,0.885591030121,,,,,2015_Sep_24_1537,K,facesParametric,5,59.4781503834,
./stim/MorphF3_10_orig.jpg,132,,,,,0,132,132,132,,,,,,,,,,,,,,,,,,,-21.474609375,13.095703125,0,0,1,0.867871999741,,,,,2015_Sep_24_1537,K,facesParametric,5,59.4781503834,
./stim/MorphF8_08_orig.jpg,133,,,,,0,133,133,133,,,,,,,,,,,,,,,,,,,-21.416015625,13.06640625,0,0,1,1.13784313202,,,,,2015_Sep_24_1537,K,facesParametric,5,59.4781503834,
./stim/MorphF3_09_orig.jpg,134,,,,,0,134,134,134,,,,,,,,,,,,,,,,,,,-21.416015625,13.154296875,0,0,1,1.32129621506,,,,,2015_Sep_24_1537,K,facesParametric,5,59.4781503834,
./stim/MorphM7_02_orig.jpg,135,,,,,0,135,135,135,,,,,,,,,,,,,,,,,,,-21.50390625,13.125,1,0,0,1.00302815437,,,,,2015_Sep_24_1537,K,facesParametric,5,59.4781503834,
./stim/MorphF10_04_orig.jpg,136,,,,,0,136,136,136,,,,,,,,,,,,,,,,,,,-21.50390625,13.154296875,1,0,0,1.92600703239,,,,,2015_Sep_24_1537,K,facesParametric,5,59.4781503834,
./stim/MorphM4_08_orig.jpg,137,,,,,0,137,137,137,,,,,,,,,,,,,,,,,,,-21.50390625,13.18359375,0,0,1,0.801158905029,,,,,2015_Sep_24_1537,K,facesParametric,5,59.4781503834,
./stim/MorphM7_05_orig.jpg,138,,,,,0,138,138,138,,,,,,,,,,,,,,,,,,,-21.474609375,13.154296875,0,0,1,1.02095913887,,,,,2015_Sep_24_1537,K,facesParametric,5,59.4781503834,
./stim/MorphF10_01_orig.jpg,139,,,,,0,139,139,139,,,,,,,,,,,,,,,,,,,-21.26953125,13.154296875,1,0,0,3.01515412331,,,,,2015_Sep_24_1537,K,facesParametric,5,59.4781503834,
./stim/MorphF6_07_orig.jpg,140,,,,,0,140,140,140,,,,,,,,,,,,,,,,,,,-21.2109375,13.18359375,0,0,1,2.37708616257,,,,,2015_Sep_24_1537,K,facesParametric,5,59.4781503834,
./stim/MorphF2_08_orig.jpg,141,,,,,0,141,141,141,,,,,,,,,,,,,,,,,,,-21.26953125,13.18359375,0,0,1,0.919165849686,,,,,2015_Sep_24_1537,K,facesParametric,5,59.4781503834,
./stim/MorphM8_09_orig.jpg,142,,,,,0,142,142,142,,,,,,,,,,,,,,,,,,,-21.26953125,13.18359375,0,0,1,1.50723385811,,,,,2015_Sep_24_1537,K,facesParametric,5,59.4781503834,
./stim/MorphF1_00_orig.jpg,143,,,,,0,143,143,143,,,,,,,,,,,,,,,,,,,-21.26953125,13.154296875,1,0,0,4.18856620789,,,,,2015_Sep_24_1537,K,facesParametric,5,59.4781503834,
./stim/MorphM2_07_orig.jpg,144,,,,,0,144,144,144,,,,,,,,,,,,,,,,,,,-21.240234375,13.18359375,0,0,1,1.17009615898,,,,,2015_Sep_24_1537,K,facesParametric,5,59.4781503834,
./stim/MorphF5_09_orig.jpg,145,,,,,0,145,145,145,,,,,,,,,,,,,,,,,,,-21.357421875,13.125,0,0,1,0.953715085983,,,,,2015_Sep_24_1537,K,facesParametric,5,59.4781503834,
./stim/MorphM10_07_orig.jpg,146,,,,,0,146,146,146,,,,,,,,,,,,,,,,,,,-21.298828125,13.125,0,0,1,0.650503873825,,,,,2015_Sep_24_1537,K,facesParametric,5,59.4781503834,
./stim/MorphF1_05_orig.jpg,147,,,,,0,147,147,147,,,,,,,,,,,,,,,,,,,-21.240234375,13.125,1,0,0,1.69108891487,,,,,2015_Sep_24_1537,K,facesParametric,5,59.4781503834,
./stim/MorphM3_02_orig.jpg,148,,,,,0,148,148,148,,,,,,,,,,,,,,,,,,,-21.26953125,13.095703125,1,0,0,0.97096991539,,,,,2015_Sep_24_1537,K,facesParametric,5,59.4781503834,
./stim/MorphM1_05_orig.jpg,149,,,,,0,149,149,149,,,,,,,,,,,,,,,,,,,-21.26953125,13.095703125,0,0,1,0.63574385643,,,,,2015_Sep_24_1537,K,facesParametric,5,59.4781503834,
./stim/MorphF10_09_orig.jpg,150,,,,,0,150,150,150,,,,,,,,,,,,,,,,,,,-21.240234375,13.125,0,0,1,2.14252305031,,,,,2015_Sep_24_1537,K,facesParametric,5,59.4781503834,
./stim/MorphF7_01_orig.jpg,151,,,,,0,151,151,151,,,,,,,,,,,,,,,,,,,-21.240234375,13.125,1,0,0,0.953933000565,,,,,2015_Sep_24_1537,K,facesParametric,5,59.4781503834,
./stim/MorphF9_00_orig.jpg,152,,,,,0,152,152,152,,,,,,,,,,,,,,,,,,,-21.15234375,13.095703125,1,0,0,0.868040800095,,,,,2015_Sep_24_1537,K,facesParametric,5,59.4781503834,
./stim/MorphF8_07_orig.jpg,153,,,,,0,153,153,153,,,,,,,,,,,,,,,,,,,-21.15234375,13.095703125,0,0,1,0.96902513504,,,,,2015_Sep_24_1537,K,facesParametric,5,59.4781503834,
./stim/MorphM3_10_orig.jpg,154,,,,,0,154,154,154,,,,,,,,,,,,,,,,,,,-21.123046875,13.125,0,0,1,1.08675909042,,,,,2015_Sep_24_1537,K,facesParametric,5,59.4781503834,
./stim/MorphM9_02_orig.jpg,155,,,,,0,155,155,155,,,,,,,,,,,,,,,,,,,-21.15234375,13.18359375,1,0,0,1.20540094376,,,,,2015_Sep_24_1537,K,facesParametric,5,59.4781503834,
./stim/MorphM5_07_orig.jpg,156,,,,,0,156,156,156,,,,,,,,,,,,,,,,,,,-21.15234375,13.18359375,0,0,1,1.60611391068,,,,,2015_Sep_24_1537,K,facesParametric,5,59.4781503834,
./stim/MorphM10_04_orig.jpg,157,,,,,0,157,157,157,,,,,,,,,,,,,,,,,,,-21.123046875,13.125,0,0,1,1.05486607552,,,,,2015_Sep_24_1537,K,facesParametric,5,59.4781503834,
./stim/MorphF4_06_orig.jpg,158,,,,,0,158,158,158,,,,,,,,,,,,,,,,,,,-21.15234375,13.154296875,0,0,1,1.1882917881,,,,,2015_Sep_24_1537,K,facesParametric,5,59.4781503834,
./stim/MorphM4_07_orig.jpg,159,,,,,0,159,159,159,,,,,,,,,,,,,,,,,,,-21.2109375,13.154296875,0,0,1,1.54066491127,,,,,2015_Sep_24_1537,K,facesParametric,5,59.4781503834,
./stim/MorphF6_08_orig.jpg,160,,,,,0,160,160,160,,,,,,,,,,,,,,,,,,,-21.2109375,13.154296875,0,0,1,2.73027801514,,,,,2015_Sep_24_1537,K,facesParametric,5,59.4781503834,
./stim/MorphM2_00_orig.jpg,161,,,,,0,161,161,161,,,,,,,,,,,,,,,,,,,-21.181640625,13.154296875,1,0,0,2.1102669239,,,,,2015_Sep_24_1537,K,facesParametric,5,59.4781503834,
./stim/MorphM5_01_orig.jpg,162,,,,,0,162,162,162,,,,,,,,,,,,,,,,,,,-21.15234375,13.18359375,1,0,0,1.42332601547,,,,,2015_Sep_24_1537,K,facesParametric,5,59.4781503834,
./stim/MorphF2_04_orig.jpg,163,,,,,0,163,163,163,,,,,,,,,,,,,,,,,,,-21.15234375,13.18359375,0,0,1,0.853533983231,,,,,2015_Sep_24_1537,K,facesParametric,5,59.4781503834,
./stim/MorphM7_03_orig.jpg,164,,,,,0,164,164,164,,,,,,,,,,,,,,,,,,,-21.15234375,13.125,1,0,0,5.04237103462,,,,,2015_Sep_24_1537,K,facesParametric,5,59.4781503834,
./stim/MorphF5_00_orig.jpg,165,,,,,0,165,165,165,,,,,,,,,,,,,,,,,,,-21.15234375,13.095703125,1,0,0,3.54948282242,,,,,2015_Sep_24_1537,K,facesParametric,5,59.4781503834,
./stim/MorphF4_05_orig.jpg,166,,,,,0,166,166,166,,,,,,,,,,,,,,,,,,,-21.15234375,13.06640625,0,0,1,1.25515985489,,,,,2015_Sep_24_1537,K,facesParametric,5,59.4781503834,
./stim/MorphM5_08_orig.jpg,167,,,,,0,167,167,167,,,,,,,,,,,,,,,,,,,-21.15234375,13.037109375,0,0,1,1.15577292442,,,,,2015_Sep_24_1537,K,facesParametric,5,59.4781503834,
./stim/MorphM9_07_orig.jpg,168,,,,,0,168,168,168,,,,,,,,,,,,,,,,,,,-21.15234375,13.037109375,0,0,1,1.18809103966,,,,,2015_Sep_24_1537,K,facesParametric,5,59.4781503834,
./stim/MorphM5_09_orig.jpg,169,,,,,0,169,169,169,,,,,,,,,,,,,,,,,,,-21.15234375,13.0078125,0,0,1,2.22522497177,,,,,2015_Sep_24_1537,K,facesParametric,5,59.4781503834,
./stim/MorphF3_06_orig.jpg,170,,,,,0,170,170,170,,,,,,,,,,,,,,,,,,,-22.119140625,13.06640625,1,0,0,0.719171047211,,,,,2015_Sep_24_1537,K,facesParametric,5,59.4781503834,
./stim/MorphM3_07_orig.jpg,171,,,,,0,171,171,171,,,,,,,,,,,,,,,,,,,-22.119140625,13.095703125,0,0,1,1.20537495613,,,,,2015_Sep_24_1537,K,facesParametric,5,59.4781503834,
./stim/MorphM2_01_orig.jpg,172,,,,,0,172,172,172,,,,,,,,,,,,,,,,,,,-22.119140625,13.06640625,1,0,0,1.1215569973,,,,,2015_Sep_24_1537,K,facesParametric,5,59.4781503834,
./stim/MorphF7_03_orig.jpg,173,,,,,0,173,173,173,,,,,,,,,,,,,,,,,,,-22.08984375,13.06640625,1,0,0,1.0702149868,,,,,2015_Sep_24_1537,K,facesParametric,5,59.4781503834,
./stim/MorphF2_07_orig.jpg,174,,,,,0,174,174,174,,,,,,,,,,,,,,,,,,,-22.119140625,13.095703125,0,0,1,0.869921922684,,,,,2015_Sep_24_1537,K,facesParametric,5,59.4781503834,
./stim/MorphM6_10_orig.jpg,175,,,,,0,175,175,175,,,,,,,,,,,,,,,,,,,-22.060546875,13.037109375,0,0,1,1.13667201996,,,,,2015_Sep_24_1537,K,facesParametric,5,59.4781503834,
./stim/MorphF7_10_orig.jpg,176,,,,,0,176,176,176,,,,,,,,,,,,,,,,,,,-21.9140625,13.154296875,0,0,1,1.25434207916,,,,,2015_Sep_24_1537,K,facesParametric,5,59.4781503834,
./stim/MorphF5_08_orig.jpg,177,,,,,0,177,177,177,,,,,,,,,,,,,,,,,,,-21.884765625,13.18359375,0,0,1,0.986540079117,,,,,2015_Sep_24_1537,K,facesParametric,5,59.4781503834,
./stim/MorphM10_05_orig.jpg,178,,,,,0,178,178,178,,,,,,,,,,,,,,,,,,,-21.474609375,13.154296875,0,0,1,0.886805057526,,,,,2015_Sep_24_1537,K,facesParametric,5,59.4781503834,
./stim/MorphM4_01_orig.jpg,179,,,,,0,179,179,179,,,,,,,,,,,,,,,,,,,-21.474609375,13.125,1,0,0,1.20531010628,,,,,2015_Sep_24_1537,K,facesParametric,5,59.4781503834,
./stim/MorphM2_09_orig.jpg,180,,,,,0,180,180,180,,,,,,,,,,,,,,,,,,,-21.474609375,13.125,0,0,1,1.6055688858,,,,,2015_Sep_24_1537,K,facesParametric,5,59.4781503834,
./stim/MorphF10_00_orig.jpg,181,,,,,0,181,181,181,,,,,,,,,,,,,,,,,,,-21.533203125,13.125,1,0,0,0.853609800339,,,,,2015_Sep_24_1537,K,facesParametric,5,59.4781503834,
./stim/MorphM8_05_orig.jpg,182,,,,,0,182,182,182,,,,,,,,,,,,,,,,,,,-21.591796875,13.125,1,0,0,2.51100206375,,,,,2015_Sep_24_1537,K,facesParametric,5,59.4781503834,
./stim/MorphM1_10_orig.jpg,183,,,,,0,183,183,183,,,,,,,,,,,,,,,,,,,-21.591796875,13.125,0,0,1,0.836875915527,,,,,2015_Sep_24_1537,K,facesParametric,5,59.4781503834,
./stim/MorphM7_08_orig.jpg,184,,,,,0,184,184,184,,,,,,,,,,,,,,,,,,,-21.591796875,13.125,0,0,1,0.650852918625,,,,,2015_Sep_24_1537,K,facesParametric,5,59.4781503834,
./stim/MorphF5_07_orig.jpg,185,,,,,0,185,185,185,,,,,,,,,,,,,,,,,,,-21.533203125,13.154296875,0,0,1,1.03987193108,,,,,2015_Sep_24_1537,K,facesParametric,5,59.4781503834,
./stim/MorphM8_03_orig.jpg,186,,,,,0,186,186,186,,,,,,,,,,,,,,,,,,,-21.533203125,13.18359375,1,0,0,2.17592096329,,,,,2015_Sep_24_1537,K,facesParametric,5,59.4781503834,
./stim/MorphM7_01_orig.jpg,187,,,,,0,187,187,187,,,,,,,,,,,,,,,,,,,-21.533203125,13.18359375,1,0,0,1.05384898186,,,,,2015_Sep_24_1537,K,facesParametric,5,59.4781503834,
./stim/MorphF6_00_orig.jpg,188,,,,,0,188,188,188,,,,,,,,,,,,,,,,,,,-21.533203125,13.18359375,1,0,0,1.38864517212,,,,,2015_Sep_24_1537,K,facesParametric,5,59.4781503834,
./stim/MorphM8_00_orig.jpg,189,,,,,0,189,189,189,,,,,,,,,,,,,,,,,,,-21.533203125,13.18359375,1,0,0,2.14376688004,,,,,2015_Sep_24_1537,K,facesParametric,5,59.4781503834,
./stim/MorphM2_05_orig.jpg,190,,,,,0,190,190,190,,,,,,,,,,,,,,,,,,,-21.533203125,13.18359375,1,0,0,1.42296290398,,,,,2015_Sep_24_1537,K,facesParametric,5,59.4781503834,
./stim/MorphM6_04_orig.jpg,191,,,,,0,191,191,191,,,,,,,,,,,,,,,,,,,-21.50390625,13.154296875,1,0,0,2.6124048233,,,,,2015_Sep_24_1537,K,facesParametric,5,59.4781503834,
./stim/MorphF10_03_orig.jpg,192,,,,,0,192,192,192,,,,,,,,,,,,,,,,,,,-21.50390625,13.154296875,1,0,0,1.40618896484,,,,,2015_Sep_24_1537,K,facesParametric,5,59.4781503834,
./stim/MorphF4_03_orig.jpg,193,,,,,0,193,193,193,,,,,,,,,,,,,,,,,,,-21.533203125,13.18359375,1,0,0,1.65781807899,,,,,2015_Sep_24_1537,K,facesParametric,5,59.4781503834,
./stim/MorphF6_03_orig.jpg,194,,,,,0,194,194,194,,,,,,,,,,,,,,,,,,,-21.533203125,13.18359375,1,0,0,2.14379787445,,,,,2015_Sep_24_1537,K,facesParametric,5,59.4781503834,
./stim/MorphF3_02_orig.jpg,195,,,,,0,195,195,195,,,,,,,,,,,,,,,,,,,-21.5625,13.154296875,1,0,0,0.887308120728,,,,,2015_Sep_24_1537,K,facesParametric,5,59.4781503834,
./stim/MorphM8_02_orig.jpg,196,,,,,0,196,196,196,,,,,,,,,,,,,,,,,,,-21.591796875,13.154296875,1,0,0,1.62420392036,,,,,2015_Sep_24_1537,K,facesParametric,5,59.4781503834,
./stim/MorphF8_10_orig.jpg,197,,,,,0,197,197,197,,,,,,,,,,,,,,,,,,,-21.5625,13.18359375,0,0,1,0.685975074768,,,,,2015_Sep_24_1537,K,facesParametric,5,59.4781503834,
./stim/MorphF7_02_orig.jpg,198,,,,,0,198,198,198,,,,,,,,,,,,,,,,,,,-21.533203125,13.154296875,1,0,0,1.79053401947,,,,,2015_Sep_24_1537,K,facesParametric,5,59.4781503834,
./stim/MorphF4_09_orig.jpg,199,,,,,0,199,199,199,,,,,,,,,,,,,,,,,,,-21.533203125,13.154296875,0,0,1,0.702395915985,,,,,2015_Sep_24_1537,K,facesParametric,5,59.4781503834,
./stim/MorphM10_02_orig.jpg,200,,,,,0,200,200,200,,,,,,,,,,,,,,,,,,,-21.533203125,13.125,1,0,0,1.5074160099,,,,,2015_Sep_24_1537,K,facesParametric,5,59.4781503834,
./stim/MorphF7_08_orig.jpg,201,,,,,0,201,201,201,,,,,,,,,,,,,,,,,,,-21.591796875,13.125,0,0,1,0.836847066879,,,,,2015_Sep_24_1537,K,facesParametric,5,59.4781503834,
./stim/MorphF1_03_orig.jpg,202,,,,,0,202,202,202,,,,,,,,,,,,,,,,,,,-21.591796875,13.095703125,1,0,0,1.60624408722,,,,,2015_Sep_24_1537,K,facesParametric,5,59.4781503834,
./stim/MorphF3_08_orig.jpg,203,,,,,0,203,203,203,,,,,,,,,,,,,,,,,,,-21.50390625,13.06640625,0,0,1,1.18683886528,,,,,2015_Sep_24_1537,K,facesParametric,5,59.4781503834,
./stim/MorphF4_07_orig.jpg,204,,,,,0,204,204,204,,,,,,,,,,,,,,,,,,,-21.50390625,13.037109375,0,0,1,0.887298107147,,,,,2015_Sep_24_1537,K,facesParametric,5,59.4781503834,
./stim/MorphF6_04_orig.jpg,205,,,,,0,205,205,205,,,,,,,,,,,,,,,,,,,-21.533203125,13.06640625,1,0,0,1.84268784523,,,,,2015_Sep_24_1537,K,facesParametric,5,59.4781503834,
./stim/MorphF9_02_orig.jpg,206,,,,,0,206,206,206,,,,,,,,,,,,,,,,,,,-21.474609375,13.154296875,1,0,0,1.15475082397,,,,,2015_Sep_24_1537,K,facesParametric,5,59.4781503834,
./stim/MorphM4_02_orig.jpg,207,,,,,0,207,207,207,,,,,,,,,,,,,,,,,,,-21.474609375,13.154296875,0,0,1,0.786674022675,,,,,2015_Sep_24_1537,K,facesParametric,5,59.4781503834,
./stim/MorphM3_05_orig.jpg,208,,,,,0,208,208,208,,,,,,,,,,,,,,,,,,,-21.4453125,13.18359375,1,0,0,0.769837141037,,,,,2015_Sep_24_1537,K,facesParametric,5,59.4781503834,
./stim/MorphF4_01_orig.jpg,209,,,,,0,209,209,209,,,,,,,,,,,,,,,,,,,-20.91796875,11.220703125,1,0,0,3.46828699112,,,,,2015_Sep_24_1537,K,facesParametric,5,59.4781503834,
./stim/MorphM4_00_orig.jpg,210,,,,,0,210,210,210,,,,,,,,,,,,,,,,,,,-20.390625,11.42578125,1,0,0,1.57442879677,,,,,2015_Sep_24_1537,K,facesParametric,5,59.4781503834,
./stim/MorphF7_04_orig.jpg,211,,,,,0,211,211,211,,,,,,,,,,,,,,,,,,,-20.361328125,11.3671875,0,0,1,2.17673015594,,,,,2015_Sep_24_1537,K,facesParametric,5,59.4781503834,
./stim/MorphM8_07_orig.jpg,212,,,,,0,212,212,212,,,,,,,,,,,,,,,,,,,-20.33203125,11.3671875,0,0,1,1.30696988106,,,,,2015_Sep_24_1537,K,facesParametric,5,59.4781503834,
./stim/MorphM2_10_orig.jpg,213,,,,,0,213,213,213,,,,,,,,,,,,,,,,,,,-20.361328125,11.3671875,0,0,1,1.21936202049,,,,,2015_Sep_24_1537,K,facesParametric,5,59.4781503834,
./stim/MorphM3_00_orig.jpg,214,,,,,0,214,214,214,,,,,,,,,,,,,,,,,,,-20.33203125,11.30859375,1,0,0,1.55683207512,,,,,2015_Sep_24_1537,K,facesParametric,5,59.4781503834,
./stim/MorphM6_06_orig.jpg,215,,,,,0,215,215,215,,,,,,,,,,,,,,,,,,,-20.2734375,11.279296875,1,0,0,1.94285297394,,,,,2015_Sep_24_1537,K,facesParametric,5,59.4781503834,
./stim/MorphM4_03_orig.jpg,216,,,,,0,216,216,216,,,,,,,,,,,,,,,,,,,-20.2734375,11.279296875,1,0,0,1.20576190948,,,,,2015_Sep_24_1537,K,facesParametric,5,59.4781503834,
./stim/MorphM9_09_orig.jpg,217,,,,,0,217,217,217,,,,,,,,,,,,,,,,,,,-20.302734375,11.103515625,0,0,1,1.18864703178,,,,,2015_Sep_24_1537,K,facesParametric,5,59.4781503834,
./stim/MorphF6_01_orig.jpg,218,,,,,0,218,218,218,,,,,,,,,,,,,,,,,,,-20.21484375,11.279296875,1,0,0,1.15494394302,,,,,2015_Sep_24_1537,K,facesParametric,5,59.4781503834,
./stim/MorphM7_10_orig.jpg,219,,,,,0,219,219,219,,,,,,,,,,,,,,,,,,,-20.126953125,11.279296875,0,0,1,0.735630989075,,,,,2015_Sep_24_1537,K,facesParametric,5,59.4781503834,
,,,,,,,,,,,,,,,,,,,,,,,,,,,,,,,,,,return,141.938117981,,,2015_Sep_24_1537,K,facesParametric,5,59.4781503834,
./stim/MorphM9_00_orig.jpg,0,,,,,,,,,0,0,0,0,,,,,,,,,,,,,,,-23.408203125,-13.095703125,1,0,0,6.05489301682,,,,,2015_Sep_24_1537,K,facesParametric,5,59.4781503834,
./stim/MorphM3_10_orig.jpg,1,,,,,,,,,0,1,1,1,,,,,,,,,,,,,,,-23.4375,-13.06640625,0,0,1,1.07049512863,,,,,2015_Sep_24_1537,K,facesParametric,5,59.4781503834,
./stim/MorphF9_01_orig.jpg,2,,,,,,,,,0,2,2,2,,,,,,,,,,,,,,,-20.830078125,-13.095703125,1,0,0,0.886964082718,,,,,2015_Sep_24_1537,K,facesParametric,5,59.4781503834,
./stim/MorphF8_06_orig.jpg,3,,,,,,,,,0,3,3,3,,,,,,,,,,,,,,,-19.482421875,-12.861328125,1,0,0,2.68051886559,,,,,2015_Sep_24_1537,K,facesParametric,5,59.4781503834,
./stim/MorphM1_04_orig.jpg,4,,,,,,,,,0,4,4,4,,,,,,,,,,,,,,,-19.482421875,-12.94921875,1,0,0,1.40489602089,,,,,2015_Sep_24_1537,K,facesParametric,5,59.4781503834,
./stim/MorphF8_05_orig.jpg,5,,,,,,,,,0,5,5,5,,,,,,,,,,,,,,,-19.3359375,-12.919921875,1,0,0,1.47231912613,,,,,2015_Sep_24_1537,K,facesParametric,5,59.4781503834,
./stim/MorphM9_05_orig.jpg,6,,,,,,,,,0,6,6,6,,,,,,,,,,,,,,,-19.013671875,-13.0078125,1,0,0,1.12171196938,,,,,2015_Sep_24_1537,K,facesParametric,5,59.4781503834,
./stim/MorphF3_08_orig.jpg,7,,,,,,,,,0,7,7,7,,,,,,,,,,,,,,,-18.955078125,-12.94921875,0,0,1,0.78692317009,,,,,2015_Sep_24_1537,K,facesParametric,5,59.4781503834,
./stim/MorphF10_09_orig.jpg,8,,,,,,,,,0,8,8,8,,,,,,,,,,,,,,,-15.234375,-13.095703125,0,0,1,2.7134270668,,,,,2015_Sep_24_1537,K,facesParametric,5,59.4781503834,
./stim/MorphF8_03_orig.jpg,9,,,,,,,,,0,9,9,9,,,,,,,,,,,,,,,-15.380859375,-13.154296875,1,0,0,0.86878490448,,,,,2015_Sep_24_1537,K,facesParametric,5,59.4781503834,
./stim/MorphM8_01_orig.jpg,10,,,,,,,,,0,10,10,10,,,,,,,,,,,,,,,-15.322265625,-13.125,1,0,0,1.0043888092,,,,,2015_Sep_24_1537,K,facesParametric,5,59.4781503834,
./stim/MorphM7_01_orig.jpg,11,,,,,,,,,0,11,11,11,,,,,,,,,,,,,,,-15.29296875,-13.06640625,1,0,0,1.49047398567,,,,,2015_Sep_24_1537,K,facesParametric,5,59.4781503834,
./stim/MorphM5_07_orig.jpg,12,,,,,,,,,0,12,12,12,,,,,,,,,,,,,,,-15.17578125,-13.0078125,0,0,1,1.20526909828,,,,,2015_Sep_24_1537,K,facesParametric,5,59.4781503834,
./stim/MorphF10_01_orig.jpg,13,,,,,,,,,0,13,13,13,,,,,,,,,,,,,,,-15.087890625,-13.095703125,1,0,0,2.19326281548,,,,,2015_Sep_24_1537,K,facesParametric,5,59.4781503834,
./stim/MorphF2_10_orig.jpg,14,,,,,,,,,0,14,14,14,,,,,,,,,,,,,,,-15.029296875,-13.095703125,0,0,1,1.47367715836,,,,,2015_Sep_24_1537,K,facesParametric,5,59.4781503834,
./stim/MorphF9_00_orig.jpg,15,,,,,,,,,0,15,15,15,,,,,,,,,,,,,,,-15.05859375,-13.154296875,1,0,0,1.25571012497,,,,,2015_Sep_24_1537,K,facesParametric,5,59.4781503834,
./stim/MorphM5_03_orig.jpg,16,,,,,,,,,0,16,16,16,,,,,,,,,,,,,,,-15.029296875,-13.154296875,1,0,0,1.40649700165,,,,,2015_Sep_24_1537,K,facesParametric,5,59.4781503834,
./stim/MorphF3_07_orig.jpg,17,,,,,,,,,0,17,17,17,,,,,,,,,,,,,,,-15.0,-13.125,0,0,1,0.769919157028,,,,,2015_Sep_24_1537,K,facesParametric,5,59.4781503834,
./stim/MorphM8_06_orig.jpg,18,,,,,,,,,0,18,18,18,,,,,,,,,,,,,,,-9.55078125,-13.0078125,1,0,0,1.05440878868,,,,,2015_Sep_24_1537,K,facesParametric,5,59.4781503834,
./stim/MorphM7_02_orig.jpg,19,,,,,,,,,0,19,19,19,,,,,,,,,,,,,,,-9.78515625,-12.94921875,1,0,0,1.28990101814,,,,,2015_Sep_24_1537,K,facesParametric,5,59.4781503834,
./stim/MorphF9_03_orig.jpg,20,,,,,,,,,0,20,20,20,,,,,,,,,,,,,,,-9.7265625,-12.890625,1,0,0,1.92540097237,,,,,2015_Sep_24_1537,K,facesParametric,5,59.4781503834,
./stim/MorphM1_05_orig.jpg,21,,,,,,,,,0,21,21,21,,,,,,,,,,,,,,,-9.78515625,-12.861328125,1,0,0,1.28838706017,,,,,2015_Sep_24_1537,K,facesParametric,5,59.4781503834,
./stim/MorphM3_01_orig.jpg,22,,,,,,,,,0,22,22,22,,,,,,,,,,,,,,,-9.78515625,-12.802734375,1,0,0,1.13830900192,,,,,2015_Sep_24_1537,K,facesParametric,5,59.4781503834,
./stim/MorphF5_01_orig.jpg,23,,,,,,,,,0,23,23,23,,,,,,,,,,,,,,,-9.638671875,-12.685546875,1,0,0,1.27218317986,,,,,2015_Sep_24_1537,K,facesParametric,5,59.4781503834,
./stim/MorphM7_04_orig.jpg,24,,,,,,,,,0,24,24,24,,,,,,,,,,,,,,,-9.43359375,-12.626953125,0,0,1,2.12680006027,,,,,2015_Sep_24_1537,K,facesParametric,5,59.4781503834,
./stim/MorphM9_03_orig.jpg,25,,,,,,,,,0,25,25,25,,,,,,,,,,,,,,,-7.998046875,-13.154296875,1,0,0,1.15439009666,,,,,2015_Sep_24_1537,K,facesParametric,5,59.4781503834,
./stim/MorphF2_06_orig.jpg,26,,,,,,,,,0,26,26,26,,,,,,,,,,,,,,,-8.73046875,-13.125,0,0,1,1.08594584465,,,,,2015_Sep_24_1537,K,facesParametric,5,59.4781503834,
./stim/MorphF7_10_orig.jpg,27,,,,,,,,,0,27,27,27,,,,,,,,,,,,,,,-8.759765625,-12.94921875,0,0,1,4.03761196136,,,,,2015_Sep_24_1537,K,facesParametric,5,59.4781503834,
./stim/MorphF6_03_orig.jpg,28,,,,,,,,,0,28,28,28,,,,,,,,,,,,,,,-4.8046875,-12.158203125,1,0,0,14.0252530575,,,,,2015_Sep_24_1537,K,facesParametric,5,59.4781503834,
./stim/MorphM3_05_orig.jpg,29,,,,,,,,,0,29,29,29,,,,,,,,,,,,,,,-2.8125,-11.865234375,1,0,0,2.5459010601,,,,,2015_Sep_24_1537,K,facesParametric,5,59.4781503834,
./stim/MorphF10_08_orig.jpg,30,,,,,,,,,0,30,30,30,,,,,,,,,,,,,,,-2.666015625,-11.77734375,0,0,1,1.0698788166,,,,,2015_Sep_24_1537,K,facesParametric,5,59.4781503834,
./stim/MorphF1_04_orig.jpg,31,,,,,,,,,0,31,31,31,,,,,,,,,,,,,,,-2.8125,-11.865234375,1,0,0,1.03582692146,,,,,2015_Sep_24_1537,K,facesParametric,5,59.4781503834,
./stim/MorphM8_00_orig.jpg,32,,,,,,,,,0,32,32,32,,,,,,,,,,,,,,,-2.900390625,-11.806640625,1,0,0,1.06917285919,,,,,2015_Sep_24_1537,K,facesParametric,5,59.4781503834,
./stim/MorphM2_10_orig.jpg,33,,,,,,,,,0,33,33,33,,,,,,,,,,,,,,,-2.75390625,-11.630859375,0,0,1,1.1706340313,,,,,2015_Sep_24_1537,K,facesParametric,5,59.4781503834,
./stim/MorphM8_04_orig.jpg,34,,,,,,,,,0,34,34,34,,,,,,,,,,,,,,,0.556640625,-13.06640625,0,0,1,1.33967995644,,,,,2015_Sep_24_1537,K,facesParametric,5,59.4781503834,
./stim/MorphF2_07_orig.jpg,35,,,,,,,,,0,35,35,35,,,,,,,,,,,,,,,1.81640625,-13.125,1,0,0,0.836530208588,,,,,2015_Sep_24_1537,K,facesParametric,5,59.4781503834,
./stim/MorphF5_02_orig.jpg,36,,,,,,,,,0,36,36,36,,,,,,,,,,,,,,,-1.81640625,-12.83203125,1,0,0,2.98012113571,,,,,2015_Sep_24_1537,K,facesParametric,5,59.4781503834,
./stim/MorphM6_05_orig.jpg,37,,,,,,,,,0,37,37,37,,,,,,,,,,,,,,,-1.787109375,-12.802734375,1,0,0,2.05890083313,,,,,2015_Sep_24_1537,K,facesParametric,5,59.4781503834,
./stim/MorphF10_05_orig.jpg,38,,,,,,,,,0,38,38,38,,,,,,,,,,,,,,,-1.728515625,-12.685546875,1,0,0,1.222687006,,,,,2015_Sep_24_1537,K,facesParametric,5,59.4781503834,
./stim/MorphF5_06_orig.jpg,39,,,,,,,,,0,39,39,39,,,,,,,,,,,,,,,-1.69921875,-12.65625,0,0,1,1.10412478447,,,,,2015_Sep_24_1537,K,facesParametric,5,59.4781503834,
./stim/MorphM2_00_orig.jpg,40,,,,,,,,,0,40,40,40,,,,,,,,,,,,,,,-1.69921875,-12.65625,1,0,0,1.20541405678,,,,,2015_Sep_24_1537,K,facesParametric,5,59.4781503834,
./stim/MorphM1_06_orig.jpg,41,,,,,,,,,0,41,41,41,,,,,,,,,,,,,,,-1.69921875,-12.59765625,1,0,0,2.22737979889,,,,,2015_Sep_24_1537,K,facesParametric,5,59.4781503834,
./stim/MorphF6_08_orig.jpg,42,,,,,,,,,0,42,42,42,,,,,,,,,,,,,,,-1.669921875,-12.568359375,0,0,1,1.99299478531,,,,,2015_Sep_24_1537,K,facesParametric,5,59.4781503834,
./stim/MorphF9_10_orig.jpg,43,,,,,,,,,0,43,43,43,,,,,,,,,,,,,,,-1.552734375,-12.509765625,0,0,1,2.41246294975,,,,,2015_Sep_24_1537,K,facesParametric,5,59.4781503834,
./stim/MorphF1_06_orig.jpg,44,,,,,,,,,0,44,44,44,,,,,,,,,,,,,,,-0.966796875,-11.89453125,1,0,0,3.2328710556,,,,,2015_Sep_24_1537,K,facesParametric,5,59.4781503834,
./stim/MorphM2_08_orig.jpg,45,,,,,,,,,0,45,45,45,,,,,,,,,,,,,,,-0.966796875,-11.806640625,0,0,1,9.45124983788,,,,,2015_Sep_24_1537,K,facesParametric,5,59.4781503834,
./stim/MorphF7_01_orig.jpg,46,,,,,,,,,0,46,46,46,,,,,,,,,,,,,,,-0.673828125,-11.71875,1,0,0,0.719179868698,,,,,2015_Sep_24_1537,K,facesParametric,5,59.4781503834,
./stim/MorphF3_10_orig.jpg,47,,,,,,,,,0,47,47,47,,,,,,,,,,,,,,,-0.732421875,-11.71875,0,0,1,1.27286100388,,,,,2015_Sep_24_1537,K,facesParametric,5,59.4781503834,
./stim/MorphF4_04_orig.jpg,48,,,,,,,,,0,48,48,48,,,,,,,,,,,,,,,-0.498046875,-11.015625,1,0,0,1.90665698051,,,,,2015_Sep_24_1537,K,facesParametric,5,59.4781503834,
./stim/MorphM2_01_orig.jpg,49,,,,,,,,,0,49,49,49,,,,,,,,,,,,,,,-0.205078125,-11.015625,1,0,0,1.08813881874,,,,,2015_Sep_24_1537,K,facesParametric,5,59.4781503834,
./stim/MorphF8_02_orig.jpg,50,,,,,,,,,0,50,50,50,,,,,,,,,,,,,,,-0.29296875,-10.95703125,1,0,0,1.4387948513,,,,,2015_Sep_24_1537,K,facesParametric,5,59.4781503834,
./stim/MorphF5_10_orig.jpg,51,,,,,,,,,0,51,51,51,,,,,,,,,,,,,,,-0.17578125,-10.810546875,0,0,1,1.05477309227,,,,,2015_Sep_24_1537,K,facesParametric,5,59.4781503834,
./stim/MorphM10_09_orig.jpg,52,,,,,,,,,0,52,52,52,,,,,,,,,,,,,,,-0.234375,-10.986328125,0,0,1,1.17203712463,,,,,2015_Sep_24_1537,K,facesParametric,5,59.4781503834,
./stim/MorphM3_09_orig.jpg,53,,,,,,,,,0,53,53,53,,,,,,,,,,,,,,,-0.263671875,-10.8984375,0,0,1,0.90363407135,,,,,2015_Sep_24_1537,K,facesParametric,5,59.4781503834,
./stim/MorphM2_05_orig.jpg,54,,,,,,,,,0,54,54,54,,,,,,,,,,,,,,,0.146484375,-10.751953125,1,0,0,1.64116096497,,,,,2015_Sep_24_1537,K,facesParametric,5,59.4781503834,
./stim/MorphF3_06_orig.jpg,55,,,,,,,,,0,55,55,55,,,,,,,,,,,,,,,1.875,-10.546875,1,0,0,1.23930001259,,,,,2015_Sep_24_1537,K,facesParametric,5,59.4781503834,
./stim/MorphM6_02_orig.jpg,56,,,,,,,,,0,56,56,56,,,,,,,,,,,,,,,1.40625,-10.869140625,1,0,0,1.54043078423,,,,,2015_Sep_24_1537,K,facesParametric,5,59.4781503834,
./stim/MorphF2_00_orig.jpg,57,,,,,,,,,0,57,57,57,,,,,,,,,,,,,,,1.5234375,-10.869140625,1,0,0,2.14363694191,,,,,2015_Sep_24_1537,K,facesParametric,5,59.4781503834,
./stim/MorphM1_01_orig.jpg,58,,,,,,,,,0,58,58,58,,,,,,,,,,,,,,,1.552734375,-10.83984375,1,0,0,1.23896598816,,,,,2015_Sep_24_1537,K,facesParametric,5,59.4781503834,
./stim/MorphM5_10_orig.jpg,59,,,,,,,,,0,59,59,59,,,,,,,,,,,,,,,1.376953125,-10.95703125,0,0,1,3.92088294029,,,,,2015_Sep_24_1537,K,facesParametric,5,59.4781503834,
./stim/MorphM6_01_orig.jpg,60,,,,,,,,,0,60,60,60,,,,,,,,,,,,,,,1.435546875,-10.927734375,1,0,0,1.50709676743,,,,,2015_Sep_24_1537,K,facesParametric,5,59.4781503834,
./stim/MorphF1_09_orig.jpg,61,,,,,,,,,0,61,61,61,,,,,,,,,,,,,,,1.40625,-10.8984375,1,0,0,1.28888702393,,,,,2015_Sep_24_1537,K,facesParametric,5,59.4781503834,
./stim/MorphM5_09_orig.jpg,62,,,,,,,,,0,62,62,62,,,,,,,,,,,,,,,1.40625,-10.8984375,0,0,1,0.937654972076,,,,,2015_Sep_24_1537,K,facesParametric,5,59.4781503834,
./stim/MorphM8_02_orig.jpg,63,,,,,,,,,0,63,63,63,,,,,,,,,,,,,,,1.2890625,-10.95703125,1,0,0,2.04119491577,,,,,2015_Sep_24_1537,K,facesParametric,5,59.4781503834,
./stim/MorphM6_03_orig.jpg,64,,,,,,,,,0,64,64,64,,,,,,,,,,,,,,,1.2890625,-11.162109375,1,0,0,1.10461997986,,,,,2015_Sep_24_1537,K,facesParametric,5,59.4781503834,
./stim/MorphF3_01_orig.jpg,65,,,,,,,,,0,65,65,65,,,,,,,,,,,,,,,1.2890625,-11.162109375,1,0,0,1.69140601158,,,,,2015_Sep_24_1537,K,facesParametric,5,59.4781503834,
./stim/MorphF7_07_orig.jpg,66,,,,,,,,,0,66,66,66,,,,,,,,,,,,,,,1.2890625,-11.044921875,0,0,1,5.42799401283,,,,,2015_Sep_24_1537,K,facesParametric,5,59.4781503834,
./stim/MorphF2_03_orig.jpg,67,,,,,,,,,0,67,67,67,,,,,,,,,,,,,,,1.259765625,-11.103515625,1,0,0,1.38962006569,,,,,2015_Sep_24_1537,K,facesParametric,5,59.4781503834,
./stim/MorphM5_02_orig.jpg,68,,,,,,,,,0,68,68,68,,,,,,,,,,,,,,,0.87890625,-11.015625,1,0,0,3.26679205894,,,,,2015_Sep_24_1537,K,facesParametric,5,59.4781503834,
./stim/MorphF4_10_orig.jpg,69,,,,,,,,,0,69,69,69,,,,,,,,,,,,,,,0.908203125,-10.986328125,0,0,1,1.69129395485,,,,,2015_Sep_24_1537,K,facesParametric,5,59.4781503834,
./stim/MorphF1_00_orig.jpg,70,,,,,,,,,0,70,70,70,,,,,,,,,,,,,,,0.908203125,-11.015625,1,0,0,1.4068479538,,,,,2015_Sep_24_1537,K,facesParametric,5,59.4781503834,
./stim/MorphM4_06_orig.jpg,71,,,,,,,,,0,71,71,71,,,,,,,,,,,,,,,0.9375,-11.015625,0,0,1,0.987717151642,,,,,2015_Sep_24_1537,K,facesParametric,5,59.4781503834,
./stim/MorphM1_00_orig.jpg,72,,,,,,,,,0,72,72,72,,,,,,,,,,,,,,,0.966796875,-11.103515625,1,0,0,0.903744935989,,,,,2015_Sep_24_1537,K,facesParametric,5,59.4781503834,
./stim/MorphM10_00_orig.jpg,73,,,,,,,,,0,73,73,73,,,,,,,,,,,,,,,0.966796875,-11.103515625,1,0,0,1.08727812767,,,,,2015_Sep_24_1537,K,facesParametric,5,59.4781503834,
./stim/MorphF6_07_orig.jpg,74,,,,,,,,,0,74,74,74,,,,,,,,,,,,,,,1.11328125,-10.83984375,0,0,1,8.54665398598,,,,,2015_Sep_24_1537,K,facesParametric,5,59.4781503834,
./stim/MorphF10_07_orig.jpg,75,,,,,,,,,0,75,75,75,,,,,,,,,,,,,,,1.376953125,-10.751953125,1,0,0,2.19148111343,,,,,2015_Sep_24_1537,K,facesParametric,5,59.4781503834,
./stim/MorphM10_07_orig.jpg,76,,,,,,,,,0,76,76,76,,,,,,,,,,,,,,,1.46484375,-10.72265625,0,0,1,0.836745023727,,,,,2015_Sep_24_1537,K,facesParametric,5,59.4781503834,
./stim/MorphF6_09_orig.jpg,77,,,,,,,,,0,77,77,77,,,,,,,,,,,,,,,1.494140625,-10.634765625,0,0,1,1.77508306503,,,,,2015_Sep_24_1537,K,facesParametric,5,59.4781503834,
./stim/MorphM10_05_orig.jpg,78,,,,,,,,,0,78,78,78,,,,,,,,,,,,,,,1.552734375,-10.634765625,0,0,1,2.16083502769,,,,,2015_Sep_24_1537,K,facesParametric,5,59.4781503834,
./stim/MorphF3_09_orig.jpg,79,,,,,,,,,0,79,79,79,,,,,,,,,,,,,,,1.494140625,-10.166015625,0,0,1,0.935289144516,,,,,2015_Sep_24_1537,K,facesParametric,5,59.4781503834,
./stim/MorphF1_02_orig.jpg,80,,,,,,,,,0,80,80,80,,,,,,,,,,,,,,,1.494140625,-9.84375,1,0,0,0.652301073074,,,,,2015_Sep_24_1537,K,facesParametric,5,59.4781503834,
./stim/MorphM1_08_orig.jpg,81,,,,,,,,,0,81,81,81,,,,,,,,,,,,,,,1.552734375,-9.78515625,0,0,1,1.64083695412,,,,,2015_Sep_24_1537,K,facesParametric,5,59.4781503834,
./stim/MorphM3_04_orig.jpg,82,,,,,,,,,0,82,82,82,,,,,,,,,,,,,,,1.669921875,-9.169921875,1,0,0,1.84230804443,,,,,2015_Sep_24_1537,K,facesParametric,5,59.4781503834,
./stim/MorphM10_10_orig.jpg,83,,,,,,,,,0,83,83,83,,,,,,,,,,,,,,,1.728515625,-9.169921875,0,0,1,0.736349105835,,,,,2015_Sep_24_1537,K,facesParametric,5,59.4781503834,
./stim/MorphF5_04_orig.jpg,84,,,,,,,,,0,84,84,84,,,,,,,,,,,,,,,1.640625,-9.19921875,1,0,0,0.91925907135,,,,,2015_Sep_24_1537,K,facesParametric,5,59.4781503834,
./stim/MorphF3_05_orig.jpg,85,,,,,,,,,0,85,85,85,,,,,,,,,,,,,,,1.640625,-9.19921875,1,0,0,1.54039287567,,,,,2015_Sep_24_1537,K,facesParametric,5,59.4781503834,
./stim/MorphM6_10_orig.jpg,86,,,,,,,,,0,86,86,86,,,,,,,,,,,,,,,1.69921875,-9.169921875,0,0,1,1.02023792267,,,,,2015_Sep_24_1537,K,facesParametric,5,59.4781503834,
./stim/MorphF6_06_orig.jpg,87,,,,,,,,,0,87,87,87,,,,,,,,,,,,,,,1.640625,-9.228515625,0,0,1,1.95970988274,,,,,2015_Sep_24_1537,K,facesParametric,5,59.4781503834,
./stim/MorphF5_03_orig.jpg,88,,,,,,,,,0,88,88,88,,,,,,,,,,,,,,,1.669921875,-8.994140625,1,0,0,1.52414989471,,,,,2015_Sep_24_1537,K,facesParametric,5,59.4781503834,
./stim/MorphM6_09_orig.jpg,89,,,,,,,,,0,89,89,89,,,,,,,,,,,,,,,1.93359375,-8.7890625,0,0,1,2.39386796951,,,,,2015_Sep_24_1537,K,facesParametric,5,59.4781503834,
./stim/MorphF4_06_orig.jpg,90,,,,,,,,,0,90,90,90,,,,,,,,,,,,,,,2.021484375,-8.7890625,0,0,1,0.785907030106,,,,,2015_Sep_24_1537,K,facesParametric,5,59.4781503834,
./stim/MorphF1_08_orig.jpg,91,,,,,,,,,0,91,91,91,,,,,,,,,,,,,,,2.109375,-8.818359375,1,0,0,1.45618200302,,,,,2015_Sep_24_1537,K,facesParametric,5,59.4781503834,
./stim/MorphF5_00_orig.jpg,92,,,,,,,,,0,92,92,92,,,,,,,,,,,,,,,2.197265625,-8.73046875,1,0,0,1.07114315033,,,,,2015_Sep_24_1537,K,facesParametric,5,59.4781503834,
./stim/MorphM1_10_orig.jpg,93,,,,,,,,,0,93,93,93,,,,,,,,,,,,,,,2.16796875,-8.408203125,0,0,1,0.736184835434,,,,,2015_Sep_24_1537,K,facesParametric,5,59.4781503834,
./stim/MorphM10_08_orig.jpg,94,,,,,,,,,0,94,94,94,,,,,,,,,,,,,,,2.080078125,-8.4375,0,0,1,0.666482925415,,,,,2015_Sep_24_1537,K,facesParametric,5,59.4781503834,
./stim/MorphF4_00_orig.jpg,95,,,,,,,,,0,95,95,95,,,,,,,,,,,,,,,2.05078125,-8.466796875,1,0,0,1.2058339119,,,,,2015_Sep_24_1537,K,facesParametric,5,59.4781503834,
./stim/MorphM3_08_orig.jpg,96,,,,,,,,,0,96,96,96,,,,,,,,,,,,,,,2.080078125,-8.466796875,0,0,1,1.15510582924,,,,,2015_Sep_24_1537,K,facesParametric,5,59.4781503834,
./stim/MorphF7_09_orig.jpg,97,,,,,,,,,0,97,97,97,,,,,,,,,,,,,,,2.16796875,-8.291015625,0,0,1,1.40667200089,,,,,2015_Sep_24_1537,K,facesParametric,5,59.4781503834,
./stim/MorphF5_05_orig.jpg,98,,,,,,,,,0,98,98,98,,,,,,,,,,,,,,,2.109375,-8.173828125,0,0,1,2.67944192886,,,,,2015_Sep_24_1537,K,facesParametric,5,59.4781503834,
./stim/MorphM4_03_orig.jpg,99,,,,,,,,,0,99,99,99,,,,,,,,,,,,,,,2.373046875,-7.939453125,0,0,1,2.46353292465,,,,,2015_Sep_24_1537,K,facesParametric,5,59.4781503834,
./stim/MorphF8_10_orig.jpg,100,,,,,,,,,0,100,100,100,,,,,,,,,,,,,,,2.4609375,-7.96875,0,0,1,0.834712028503,,,,,2015_Sep_24_1537,K,facesParametric,5,59.4781503834,
./stim/MorphF1_03_orig.jpg,101,,,,,,,,,0,101,101,101,,,,,,,,,,,,,,,2.51953125,-8.056640625,1,0,0,2.74756097794,,,,,2015_Sep_24_1537,K,facesParametric,5,59.4781503834,
./stim/MorphM9_04_orig.jpg,102,,,,,,,,,0,102,102,102,,,,,,,,,,,,,,,2.40234375,-8.0859375,1,0,0,2.07659888268,,,,,2015_Sep_24_1537,K,facesParametric,5,59.4781503834,
./stim/MorphM7_06_orig.jpg,103,,,,,,,,,0,103,103,103,,,,,,,,,,,,,,,2.4609375,-8.02734375,0,0,1,0.686017990112,,,,,2015_Sep_24_1537,K,facesParametric,5,59.4781503834,
./stim/MorphM3_00_orig.jpg,104,,,,,,,,,0,104,104,104,,,,,,,,,,,,,,,2.431640625,-8.056640625,1,0,0,1.17093610764,,,,,2015_Sep_24_1537,K,facesParametric,5,59.4781503834,
./stim/MorphF9_08_orig.jpg,105,,,,,,,,,0,105,105,105,,,,,,,,,,,,,,,2.40234375,-8.0859375,0,0,1,1.68928313255,,,,,2015_Sep_24_1537,K,facesParametric,5,59.4781503834,
./stim/MorphM1_07_orig.jpg,106,,,,,,,,,0,106,106,106,,,,,,,,,,,,,,,2.4609375,-8.115234375,0,0,1,1.8426258564,,,,,2015_Sep_24_1537,K,facesParametric,5,59.4781503834,
./stim/MorphM9_06_orig.jpg,107,,,,,,,,,0,107,107,107,,,,,,,,,,,,,,,2.373046875,-8.056640625,1,0,0,7.6223988533,,,,,2015_Sep_24_1537,K,facesParametric,5,59.4781503834,
./stim/MorphF7_06_orig.jpg,108,,,,,,,,,0,108,108,108,,,,,,,,,,,,,,,14.296875,-3.779296875,0,0,1,76.8247659206,,,,,2015_Sep_24_1537,K,facesParametric,5,59.4781503834,
./stim/MorphM8_09_orig.jpg,109,,,,,,,,,0,109,109,109,,,,,,,,,,,,,,,22.91015625,-4.3359375,0,0,1,1.15313315392,,,,,2015_Sep_24_1537,K,facesParametric,5,59.4781503834,
./stim/MorphF8_09_orig.jpg,110,,,,,,,,,0,110,110,110,,,,,,,,,,,,,,,19.1015625,-3.57421875,0,0,1,6.31706118584,,,,,2015_Sep_24_1537,K,facesParametric,5,59.4781503834,
./stim/MorphF5_07_orig.jpg,111,,,,,,,,,0,111,111,111,,,,,,,,,,,,,,,20.361328125,-4.04296875,0,0,1,0.852464914322,,,,,2015_Sep_24_1537,K,facesParametric,5,59.4781503834,
./stim/MorphM7_07_orig.jpg,112,,,,,,,,,0,112,112,112,,,,,,,,,,,,,,,20.390625,-4.1015625,0,0,1,0.770216941833,,,,,2015_Sep_24_1537,K,facesParametric,5,59.4781503834,
./stim/MorphM2_06_orig.jpg,113,,,,,,,,,0,113,113,113,,,,,,,,,,,,,,,17.51953125,-5.5078125,0,0,1,3.30085015297,,,,,2015_Sep_24_1537,K,facesParametric,5,59.4781503834,
./stim/MorphF1_05_orig.jpg,114,,,,,,,,,0,114,114,114,,,,,,,,,,,,,,,17.607421875,-5.595703125,1,0,0,0.986618041992,,,,,2015_Sep_24_1537,K,facesParametric,5,59.4781503834,
./stim/MorphF4_03_orig.jpg,115,,,,,,,,,0,115,115,115,,,,,,,,,,,,,,,18.544921875,-3.8671875,1,0,0,10.0043480396,,,,,2015_Sep_24_1537,K,facesParametric,5,59.4781503834,
./stim/MorphM5_04_orig.jpg,116,,,,,,,,,0,116,116,116,,,,,,,,,,,,,,,22.998046875,-1.171875,1,0,0,7.23914980888,,,,,2015_Sep_24_1537,K,facesParametric,5,59.4781503834,
./stim/MorphF7_08_orig.jpg,117,,,,,,,,,0,117,117,117,,,,,,,,,,,,,,,22.646484375,-1.142578125,0,0,1,1.23884916306,,,,,2015_Sep_24_1537,K,facesParametric,5,59.4781503834,
./stim/MorphF2_05_orig.jpg,118,,,,,,,,,0,118,118,118,,,,,,,,,,,,,,,22.79296875,-1.0546875,0,0,1,1.9094619751,,,,,2015_Sep_24_1537,K,facesParametric,5,59.4781503834,
./stim/MorphM9_01_orig.jpg,119,,,,,,,,,0,119,119,119,,,,,,,,,,,,,,,23.02734375,-0.8203125,1,0,0,1.25439214706,,,,,2015_Sep_24_1537,K,facesParametric,5,59.4781503834,
./stim/MorphM4_01_orig.jpg,120,,,,,,,,,0,120,120,120,,,,,,,,,,,,,,,23.3203125,-1.0546875,1,0,0,2.54633998871,,,,,2015_Sep_24_1537,K,facesParametric,5,59.4781503834,
./stim/MorphF9_09_orig.jpg,121,,,,,,,,,0,121,121,121,,,,,,,,,,,,,,,22.470703125,-1.0546875,0,0,1,14.3936448097,,,,,2015_Sep_24_1537,K,facesParametric,5,59.4781503834,
./stim/MorphF2_01_orig.jpg,122,,,,,,,,,0,122,122,122,,,,,,,,,,,,,,,23.0859375,-0.64453125,0,0,1,2.84821796417,,,,,2015_Sep_24_1537,K,facesParametric,5,59.4781503834,
./stim/MorphM1_03_orig.jpg,123,,,,,,,,,0,123,123,123,,,,,,,,,,,,,,,22.96875,-0.673828125,1,0,0,1.05420804024,,,,,2015_Sep_24_1537,K,facesParametric,5,59.4781503834,
./stim/MorphM3_03_orig.jpg,124,,,,,,,,,0,124,124,124,,,,,,,,,,,,,,,20.15625,-0.322265625,1,0,0,3.55169796944,,,,,2015_Sep_24_1537,K,facesParametric,5,59.4781503834,
./stim/MorphF9_04_orig.jpg,125,,,,,,,,,0,125,125,125,,,,,,,,,,,,,,,17.900390625,-0.9375,0,0,1,3.70243692398,,,,,2015_Sep_24_1537,K,facesParametric,5,59.4781503834,
./stim/MorphM10_03_orig.jpg,126,,,,,,,,,0,126,126,126,,,,,,,,,,,,,,,18.28125,-0.732421875,1,0,0,2.12739801407,,,,,2015_Sep_24_1537,K,facesParametric,5,59.4781503834,
./stim/MorphF9_06_orig.jpg,127,,,,,,,,,0,127,127,127,,,,,,,,,,,,,,,17.548828125,-0.64453125,0,0,1,0.819580078125,,,,,2015_Sep_24_1537,K,facesParametric,5,59.4781503834,
./stim/MorphF4_01_orig.jpg,128,,,,,,,,,0,128,128,128,,,,,,,,,,,,,,,18.310546875,-0.99609375,1,0,0,1.00359392166,,,,,2015_Sep_24_1537,K,facesParametric,5,59.4781503834,
./stim/MorphM4_04_orig.jpg,129,,,,,,,,,0,129,129,129,,,,,,,,,,,,,,,19.5703125,-1.0546875,1,0,0,1.97639703751,,,,,2015_Sep_24_1537,K,facesParametric,5,59.4781503834,
./stim/MorphM5_05_orig.jpg,130,,,,,,,,,0,130,130,130,,,,,,,,,,,,,,,19.775390625,-1.23046875,1,0,0,7.82362699509,,,,,2015_Sep_24_1537,K,facesParametric,5,59.4781503834,
./stim/MorphM4_02_orig.jpg,131,,,,,,,,,0,131,131,131,,,,,,,,,,,,,,,19.306640625,-0.849609375,1,0,0,2.66330218315,,,,,2015_Sep_24_1537,K,facesParametric,5,59.4781503834,
./stim/MorphM10_01_orig.jpg,132,,,,,,,,,0,132,132,132,,,,,,,,,,,,,,,19.5703125,-0.791015625,1,0,0,1.00374794006,,,,,2015_Sep_24_1537,K,facesParametric,5,59.4781503834,
./stim/MorphM3_02_orig.jpg,133,,,,,,,,,0,133,133,133,,,,,,,,,,,,,,,19.892578125,-0.791015625,1,0,0,1.08791208267,,,,,2015_Sep_24_1537,K,facesParametric,5,59.4781503834,
./stim/MorphM8_08_orig.jpg,134,,,,,,,,,0,134,134,134,,,,,,,,,,,,,,,20.7421875,-0.673828125,1,0,0,3.33479499817,,,,,2015_Sep_24_1537,K,facesParametric,5,59.4781503834,
./stim/MorphM2_03_orig.jpg,135,,,,,,,,,0,135,135,135,,,,,,,,,,,,,,,20.009765625,-0.64453125,1,0,0,2.52815508842,,,,,2015_Sep_24_1537,K,facesParametric,5,59.4781503834,
./stim/MorphF8_00_orig.jpg,136,,,,,,,,,0,136,136,136,,,,,,,,,,,,,,,19.98046875,-0.5859375,1,0,0,1.27030301094,,,,,2015_Sep_24_1537,K,facesParametric,5,59.4781503834,
./stim/MorphM6_04_orig.jpg,137,,,,,,,,,0,137,137,137,,,,,,,,,,,,,,,21.97265625,0.498046875,1,0,0,15.0493869781,,,,,2015_Sep_24_1537,K,facesParametric,5,59.4781503834,
./stim/MorphF8_07_orig.jpg,138,,,,,,,,,0,138,138,138,,,,,,,,,,,,,,,21.6796875,0.498046875,0,0,1,0.617635011673,,,,,2015_Sep_24_1537,K,facesParametric,5,59.4781503834,
./stim/MorphM1_09_orig.jpg,139,,,,,,,,,0,139,139,139,,,,,,,,,,,,,,,22.705078125,0.17578125,0,0,1,1.03563499451,,,,,2015_Sep_24_1537,K,facesParametric,5,59.4781503834,
./stim/MorphF2_04_orig.jpg,140,,,,,,,,,0,140,140,140,,,,,,,,,,,,,,,20.0390625,0.17578125,0,0,1,1.40506196022,,,,,2015_Sep_24_1537,K,facesParametric,5,59.4781503834,
./stim/MorphF10_10_orig.jpg,141,,,,,,,,,0,141,141,141,,,,,,,,,,,,,,,20.009765625,0.146484375,0,0,1,1.59044194221,,,,,2015_Sep_24_1537,K,facesParametric,5,59.4781503834,
./stim/MorphF6_00_orig.jpg,142,,,,,,,,,0,142,142,142,,,,,,,,,,,,,,,17.607421875,-0.234375,1,0,0,1.95879101753,,,,,2015_Sep_24_1537,K,facesParametric,5,59.4781503834,
./stim/MorphM4_00_orig.jpg,143,,,,,,,,,0,143,143,143,,,,,,,,,,,,,,,19.74609375,-0.05859375,1,0,0,1.50544810295,,,,,2015_Sep_24_1537,K,facesParametric,5,59.4781503834,
./stim/MorphM7_10_orig.jpg,144,,,,,,,,,0,144,144,144,,,,,,,,,,,,,,,19.775390625,-0.029296875,0,0,1,1.5741610527,,,,,2015_Sep_24_1537,K,facesParametric,5,59.4781503834,
./stim/MorphM4_05_orig.jpg,145,,,,,,,,,0,145,145,145,,,,,,,,,,,,,,,20.44921875,0.3515625,1,0,0,15.8355360031,,,,,2015_Sep_24_1537,K,facesParametric,5,59.4781503834,
./stim/MorphF3_02_orig.jpg,146,,,,,,,,,0,146,146,146,,,,,,,,,,,,,,,23.349609375,0.5859375,1,0,0,5.94802713394,,,,,2015_Sep_24_1537,K,facesParametric,5,59.4781503834,
./stim/MorphF1_07_orig.jpg,147,,,,,,,,,0,147,147,147,,,,,,,,,,,,,,,23.37890625,0.615234375,1,0,0,1.08675193787,,,,,2015_Sep_24_1537,K,facesParametric,5,59.4781503834,
./stim/MorphF4_02_orig.jpg,148,,,,,,,,,0,148,148,148,,,,,,,,,,,,,,,23.232421875,0.556640625,1,0,0,5.01015114784,,,,,2015_Sep_24_1537,K,facesParametric,5,59.4781503834,
./stim/MorphM8_07_orig.jpg,149,,,,,,,,,0,149,149,149,,,,,,,,,,,,,,,22.6171875,-0.029296875,1,0,0,2.39535188675,,,,,2015_Sep_24_1537,K,facesParametric,5,59.4781503834,
./stim/MorphM7_09_orig.jpg,150,,,,,,,,,0,150,150,150,,,,,,,,,,,,,,,22.5,-0.05859375,0,0,1,1.1049311161,,,,,2015_Sep_24_1537,K,facesParametric,5,59.4781503834,
./stim/MorphM9_09_orig.jpg,151,,,,,,,,,0,151,151,151,,,,,,,,,,,,,,,23.291015625,0.29296875,0,0,1,7.28747987747,,,,,2015_Sep_24_1537,K,facesParametric,5,59.4781503834,
./stim/MorphM8_10_orig.jpg,152,,,,,,,,,0,152,152,152,,,,,,,,,,,,,,,23.408203125,0.5859375,0,0,1,1.45707607269,,,,,2015_Sep_24_1537,K,facesParametric,5,59.4781503834,
./stim/MorphF4_08_orig.jpg,153,,,,,,,,,0,153,153,153,,,,,,,,,,,,,,,23.408203125,0.380859375,0,0,1,1.08708500862,,,,,2015_Sep_24_1537,K,facesParametric,5,59.4781503834,
./stim/MorphF7_04_orig.jpg,154,,,,,,,,,0,154,154,154,,,,,,,,,,,,,,,23.3203125,0.99609375,1,0,0,9.87019300461,,,,,2015_Sep_24_1537,K,facesParametric,5,59.4781503834,
./stim/MorphM5_01_orig.jpg,155,,,,,,,,,0,155,155,155,,,,,,,,,,,,,,,23.408203125,2.75390625,1,0,0,11.6277449131,,,,,2015_Sep_24_1537,K,facesParametric,5,59.4781503834,
./stim/MorphF10_06_orig.jpg,156,,,,,,,,,0,156,156,156,,,,,,,,,,,,,,,23.408203125,2.958984375,1,0,0,1.33896493912,,,,,2015_Sep_24_1537,K,facesParametric,5,59.4781503834,
./stim/MorphM6_08_orig.jpg,157,,,,,,,,,0,157,157,157,,,,,,,,,,,,,,,21.328125,3.251953125,1,0,0,11.0931868553,,,,,2015_Sep_24_1537,K,facesParametric,5,59.4781503834,
./stim/MorphF10_02_orig.jpg,158,,,,,,,,,0,158,158,158,,,,,,,,,,,,,,,20.9765625,3.017578125,1,0,0,9.81959414482,,,,,2015_Sep_24_1537,K,facesParametric,5,59.4781503834,
./stim/MorphF8_08_orig.jpg,159,,,,,,,,,0,159,159,159,,,,,,,,,,,,,,,19.716796875,2.63671875,0,0,1,1.90911102295,,,,,2015_Sep_24_1537,K,facesParametric,5,59.4781503834,
./stim/MorphF6_10_orig.jpg,160,,,,,,,,,0,160,160,160,,,,,,,,,,,,,,,19.658203125,2.578125,0,0,1,0.987198829651,,,,,2015_Sep_24_1537,K,facesParametric,5,59.4781503834,
./stim/MorphF2_08_orig.jpg,161,,,,,,,,,0,161,161,161,,,,,,,,,,,,,,,19.21875,2.34375,0,0,1,0.819102048874,,,,,2015_Sep_24_1537,K,facesParametric,5,59.4781503834,
./stim/MorphF4_05_orig.jpg,162,,,,,,,,,0,162,162,162,,,,,,,,,,,,,,,17.841796875,2.75390625,1,0,0,5.04337787628,,,,,2015_Sep_24_1537,K,facesParametric,5,59.4781503834,
./stim/MorphM2_07_orig.jpg,163,,,,,,,,,0,163,163,163,,,,,,,,,,,,,,,22.734375,0.263671875,1,0,0,22.8923549652,,,,,2015_Sep_24_1537,K,facesParametric,5,59.4781503834,
./stim/MorphM4_07_orig.jpg,164,,,,,,,,,0,164,164,164,,,,,,,,,,,,,,,23.173828125,0.263671875,0,0,1,0.852711200714,,,,,2015_Sep_24_1537,K,facesParametric,5,59.4781503834,
./stim/MorphF10_00_orig.jpg,165,,,,,,,,,0,165,165,165,,,,,,,,,,,,,,,22.646484375,-0.263671875,1,0,0,8.8476831913,,,,,2015_Sep_24_1537,K,facesParametric,5,59.4781503834,
./stim/MorphM3_06_orig.jpg,166,,,,,,,,,0,166,166,166,,,,,,,,,,,,,,,22.55859375,-0.029296875,0,0,1,2.10916686058,,,,,2015_Sep_24_1537,K,facesParametric,5,59.4781503834,
./stim/MorphF5_09_orig.jpg,167,,,,,,,,,0,167,167,167,,,,,,,,,,,,,,,22.5,-0.1171875,0,0,1,1.08883118629,,,,,2015_Sep_24_1537,K,facesParametric,5,59.4781503834,
./stim/MorphF6_05_orig.jpg,168,,,,,,,,,0,168,168,168,,,,,,,,,,,,,,,22.587890625,-0.087890625,0,0,1,1.52312779427,,,,,2015_Sep_24_1537,K,facesParametric,5,59.4781503834,
./stim/MorphM2_09_orig.jpg,169,,,,,,,,,0,169,169,169,,,,,,,,,,,,,,,23.408203125,1.083984375,0,0,1,1.6409239769,,,,,2015_Sep_24_1537,K,facesParametric,5,59.4781503834,
./stim/MorphF6_01_orig.jpg,170,,,,,,,,,0,170,170,170,,,,,,,,,,,,,,,23.115234375,1.083984375,1,0,0,0.96966791153,,,,,2015_Sep_24_1537,K,facesParametric,5,59.4781503834,
./stim/MorphM8_03_orig.jpg,171,,,,,,,,,0,171,171,171,,,,,,,,,,,,,,,16.611328125,0.791015625,1,0,0,12.7843399048,,,,,2015_Sep_24_1537,K,facesParametric,5,59.4781503834,
./stim/MorphM5_06_orig.jpg,172,,,,,,,,,0,172,172,172,,,,,,,,,,,,,,,9.873046875,0.849609375,0,0,1,27.2473340034,,,,,2015_Sep_24_1537,K,facesParametric,5,59.4781503834,
./stim/MorphF7_05_orig.jpg,173,,,,,,,,,0,173,173,173,,,,,,,,,,,,,,,9.580078125,0.966796875,1,0,0,3.13329219818,,,,,2015_Sep_24_1537,K,facesParametric,5,59.4781503834,
./stim/MorphM10_06_orig.jpg,174,,,,,,,,,0,174,174,174,,,,,,,,,,,,,,,9.84375,0.87890625,0,0,1,0.971086978912,,,,,2015_Sep_24_1537,K,facesParametric,5,59.4781503834,
./stim/MorphF1_01_orig.jpg,175,,,,,,,,,0,175,175,175,,,,,,,,,,,,,,,9.7265625,0.87890625,1,0,0,2.8153989315,,,,,2015_Sep_24_1537,K,facesParametric,5,59.4781503834,
./stim/MorphM2_02_orig.jpg,176,,,,,,,,,0,176,176,176,,,,,,,,,,,,,,,14.0625,1.58203125,1,0,0,1.55745196342,,,,,2015_Sep_24_1537,K,facesParametric,5,59.4781503834,
./stim/MorphF4_07_orig.jpg,177,,,,,,,,,0,177,177,177,,,,,,,,,,,,,,,18.3984375,1.46484375,0,0,1,1.28801894188,,,,,2015_Sep_24_1537,K,facesParametric,5,59.4781503834,
./stim/MorphM3_07_orig.jpg,178,,,,,,,,,0,178,178,178,,,,,,,,,,,,,,,12.685546875,2.197265625,0,0,1,2.54600906372,,,,,2015_Sep_24_1537,K,facesParametric,5,59.4781503834,
./stim/MorphF9_07_orig.jpg,179,,,,,,,,,0,179,179,179,,,,,,,,,,,,,,,13.125,2.197265625,0,0,1,1.77518796921,,,,,2015_Sep_24_1537,K,facesParametric,5,59.4781503834,
./stim/MorphF6_04_orig.jpg,180,,,,,,,,,0,180,180,180,,,,,,,,,,,,,,,11.19140625,2.51953125,0,0,1,1.37398386002,,,,,2015_Sep_24_1537,K,facesParametric,5,59.4781503834,
./stim/MorphF8_04_orig.jpg,181,,,,,,,,,0,181,181,181,,,,,,,,,,,,,,,10.95703125,2.373046875,1,0,0,1.22118592262,,,,,2015_Sep_24_1537,K,facesParametric,5,59.4781503834,
./stim/MorphF10_03_orig.jpg,182,,,,,,,,,0,182,182,182,,,,,,,,,,,,,,,11.1328125,2.2265625,1,0,0,1.30542492867,,,,,2015_Sep_24_1537,K,facesParametric,5,59.4781503834,
./stim/MorphF3_04_orig.jpg,183,,,,,,,,,0,183,183,183,,,,,,,,,,,,,,,11.865234375,2.080078125,1,0,0,1.60570287704,,,,,2015_Sep_24_1537,K,facesParametric,5,59.4781503834,
./stim/MorphM9_07_orig.jpg,184,,,,,,,,,0,184,184,184,,,,,,,,,,,,,,,13.9453125,2.8125,0,0,1,1.40569996834,,,,,2015_Sep_24_1537,K,facesParametric,5,59.4781503834,
./stim/MorphM10_04_orig.jpg,185,,,,,,,,,0,185,185,185,,,,,,,,,,,,,,,13.095703125,2.783203125,0,0,1,2.54577112198,,,,,2015_Sep_24_1537,K,facesParametric,5,59.4781503834,
./stim/MorphM6_07_orig.jpg,186,,,,,,,,,0,186,186,186,,,,,,,,,,,,,,,13.06640625,2.666015625,1,0,0,1.0708990097,,,,,2015_Sep_24_1537,K,facesParametric,5,59.4781503834,
./stim/MorphF1_10_orig.jpg,187,,,,,,,,,0,187,187,187,,,,,,,,,,,,,,,13.125,2.578125,1,0,0,1.28870010376,,,,,2015_Sep_24_1537,K,facesParametric,5,59.4781503834,
./stim/MorphF7_00_orig.jpg,188,,,,,,,,,0,188,188,188,,,,,,,,,,,,,,,13.4765625,2.138671875,1,0,0,17.7140619755,,,,,2015_Sep_24_1537,K,facesParametric,5,59.4781503834,
./stim/MorphM6_06_orig.jpg,189,,,,,,,,,0,189,189,189,,,,,,,,,,,,,,,12.568359375,1.142578125,1,0,0,2.42866301537,,,,,2015_Sep_24_1537,K,facesParametric,5,59.4781503834,
./stim/MorphF3_03_orig.jpg,190,,,,,,,,,0,190,190,190,,,,,,,,,,,,,,,12.099609375,1.11328125,1,0,0,4.15481185913,,,,,2015_Sep_24_1537,K,facesParametric,5,59.4781503834,
./stim/MorphM7_05_orig.jpg,191,,,,,,,,,0,191,191,191,,,,,,,,,,,,,,,11.54296875,0.29296875,0,0,1,0.8349609375,,,,,2015_Sep_24_1537,K,facesParametric,5,59.4781503834,
./stim/MorphM4_08_orig.jpg,192,,,,,,,,,0,192,192,192,,,,,,,,,,,,,,,11.455078125,0.263671875,0,0,1,1.05480217934,,,,,2015_Sep_24_1537,K,facesParametric,5,59.4781503834,
./stim/MorphF4_09_orig.jpg,193,,,,,,,,,0,193,193,193,,,,,,,,,,,,,,,11.484375,0.205078125,0,0,1,1.32304596901,,,,,2015_Sep_24_1537,K,facesParametric,5,59.4781503834,
./stim/MorphF9_02_orig.jpg,194,,,,,,,,,0,194,194,194,,,,,,,,,,,,,,,11.630859375,0.234375,1,0,0,2.44527006149,,,,,2015_Sep_24_1537,K,facesParametric,5,59.4781503834,
./stim/MorphM9_02_orig.jpg,195,,,,,,,,,0,195,195,195,,,,,,,,,,,,,,,11.572265625,0.29296875,1,0,0,1.44019603729,,,,,2015_Sep_24_1537,K,facesParametric,5,59.4781503834,
./stim/MorphM2_04_orig.jpg,196,,,,,,,,,0,196,196,196,,,,,,,,,,,,,,,11.484375,0.263671875,1,0,0,0.820092916489,,,,,2015_Sep_24_1537,K,facesParametric,5,59.4781503834,
./stim/MorphF7_03_orig.jpg,197,,,,,,,,,0,197,197,197,,,,,,,,,,,,,,,11.455078125,0.234375,1,0,0,1.38921713829,,,,,2015_Sep_24_1537,K,facesParametric,5,59.4781503834,
./stim/MorphM7_08_orig.jpg,198,,,,,,,,,0,198,198,198,,,,,,,,,,,,,,,11.748046875,0.41015625,0,0,1,2.89813899994,,,,,2015_Sep_24_1537,K,facesParametric,5,59.4781503834,
./stim/MorphF6_02_orig.jpg,199,,,,,,,,,0,199,199,199,,,,,,,,,,,,,,,23.37890625,1.259765625,1,0,0,24.5850930214,,,,,2015_Sep_24_1537,K,facesParametric,5,59.4781503834,
./stim/MorphM10_02_orig.jpg,200,,,,,,,,,0,200,200,200,,,,,,,,,,,,,,,23.408203125,1.7578125,1,0,0,1.13711690903,,,,,2015_Sep_24_1537,K,facesParametric,5,59.4781503834,
./stim/MorphF8_01_orig.jpg,201,,,,,,,,,0,201,201,201,,,,,,,,,,,,,,,20.5078125,1.142578125,1,0,0,1.99262499809,,,,,2015_Sep_24_1537,K,facesParametric,5,59.4781503834,
./stim/MorphM4_10_orig.jpg,202,,,,,,,,,0,202,202,202,,,,,,,,,,,,,,,20.595703125,0.849609375,0,0,1,2.1439511776,,,,,2015_Sep_24_1537,K,facesParametric,5,59.4781503834,
./stim/MorphM7_03_orig.jpg,203,,,,,,,,,0,203,203,203,,,,,,,,,,,,,,,20.5078125,0.732421875,1,0,0,1.10334181786,,,,,2015_Sep_24_1537,K,facesParametric,5,59.4781503834,
./stim/MorphM8_05_orig.jpg,204,,,,,,,,,0,204,204,204,,,,,,,,,,,,,,,20.771484375,0.791015625,1,0,0,1.1386179924,,,,,2015_Sep_24_1537,K,facesParametric,5,59.4781503834,
./stim/MorphM5_08_orig.jpg,205,,,,,,,,,0,205,205,205,,,,,,,,,,,,,,,20.859375,0.76171875,0,0,1,8.02686095238,,,,,2015_Sep_24_1537,K,facesParametric,5,59.4781503834,
./stim/MorphF2_09_orig.jpg,206,,,,,,,,,0,206,206,206,,,,,,,,,,,,,,,20.859375,0.556640625,0,0,1,0.686280965805,,,,,2015_Sep_24_1537,K,facesParametric,5,59.4781503834,
./stim/MorphF5_08_orig.jpg,207,,,,,,,,,0,207,207,207,,,,,,,,,,,,,,,21.474609375,-0.322265625,0,0,1,10.6221330166,,,,,2015_Sep_24_1537,K,facesParametric,5,59.4781503834,
./stim/MorphF9_05_orig.jpg,208,,,,,,,,,0,208,208,208,,,,,,,,,,,,,,,21.826171875,-4.5703125,1,0,0,16.6579730511,,,,,2015_Sep_24_1537,K,facesParametric,5,59.4781503834,
./stim/MorphM1_02_orig.jpg,209,,,,,,,,,0,209,209,209,,,,,,,,,,,,,,,22.67578125,-3.92578125,1,0,0,1.05461597443,,,,,2015_Sep_24_1537,K,facesParametric,5,59.4781503834,
./stim/MorphF10_04_orig.jpg,210,,,,,,,,,0,210,210,210,,,,,,,,,,,,,,,22.646484375,-4.04296875,1,0,0,1.22222185135,,,,,2015_Sep_24_1537,K,facesParametric,5,59.4781503834,
./stim/MorphF7_02_orig.jpg,211,,,,,,,,,0,211,211,211,,,,,,,,,,,,,,,22.646484375,-4.013671875,1,0,0,0.987323045731,,,,,2015_Sep_24_1537,K,facesParametric,5,59.4781503834,
./stim/MorphM7_00_orig.jpg,212,,,,,,,,,0,212,212,212,,,,,,,,,,,,,,,22.587890625,-4.04296875,1,0,0,0.90380191803,,,,,2015_Sep_24_1537,K,facesParametric,5,59.4781503834,
./stim/MorphF3_00_orig.jpg,213,,,,,,,,,0,213,213,213,,,,,,,,,,,,,,,22.880859375,-3.896484375,1,0,0,2.64673614502,,,,,2015_Sep_24_1537,K,facesParametric,5,59.4781503834,
./stim/MorphM9_10_orig.jpg,214,,,,,,,,,0,214,214,214,,,,,,,,,,,,,,,22.6171875,-3.80859375,0,0,1,1.05416297913,,,,,2015_Sep_24_1537,K,facesParametric,5,59.4781503834,
./stim/MorphM4_09_orig.jpg,215,,,,,,,,,0,215,215,215,,,,,,,,,,,,,,,22.67578125,-3.720703125,0,0,1,0.836876869202,,,,,2015_Sep_24_1537,K,facesParametric,5,59.4781503834,
./stim/MorphM9_08_orig.jpg,216,,,,,,,,,0,216,216,216,,,,,,,,,,,,,,,22.67578125,-3.69140625,0,0,1,1.6899471283,,,,,2015_Sep_24_1537,K,facesParametric,5,59.4781503834,
./stim/MorphF2_02_orig.jpg,217,,,,,,,,,0,217,217,217,,,,,,,,,,,,,,,22.32421875,-3.515625,0,0,1,1.72613501549,,,,,2015_Sep_24_1537,K,facesParametric,5,59.4781503834,
./stim/MorphM6_00_orig.jpg,218,,,,,,,,,0,218,218,218,,,,,,,,,,,,,,,23.408203125,-2.900390625,1,0,0,5.76096081734,,,,,2015_Sep_24_1537,K,facesParametric,5,59.4781503834,
./stim/MorphM5_00_orig.jpg,219,,,,,,,,,0,219,219,219,,,,,,,,,,,,,,,23.232421875,-2.578125,1,0,0,4.82419800758,,,,,2015_Sep_24_1537,K,facesParametric,5,59.4781503834,
,,,,,,,,,,,,,,,,,,,,,,,,,,,,,,,,,,,,return,1.96852087975,2015_Sep_24_1537,K,facesParametric,5,59.4781503834,
