img,num,basicLoop.thisRepN,basicLoop.thisTrialN,basicLoop.thisN,basicLoop.thisIndex,trials.thisRepN,trials.thisTrialN,trials.thisN,trials.thisIndex,trials2.thisRepN,trials2.thisTrialN,trials2.thisN,trials2.thisIndex,key_resp_2.keys,key_resp_2.rt,basicRating1.response,basicRating1.rt,basicRating2.response,basicRating2.rt,basicRating3.response,basicRating3.rt,basicRating4.response,basicRating4.rt,key_resp_3.keys,key_resp_3.rt,key_resp_4.keys,key_resp_4.rt,mouseResp.x,mouseResp.y,mouseResp.leftButton,mouseResp.midButton,mouseResp.rightButton,mouseResp.time,key_resp_5.keys,key_resp_5.rt,date,group,expName,participant,frameRate,
,,,,,,,,,,,,,,return,12.3573279381,,,,,,,,,,,,,,,,,,,,,2015_Sep_26_1342,K,facesParametric,77,59.6541900689,
./basicStim/21M_AN_O.jpg,,0,0,0,42,,,,,,,,,,,None,None,ANG,7.981,None,None,None,None,,,,,,,,,,,,,2015_Sep_26_1342,K,facesParametric,77,59.6541900689,
./basicStim/07F_HA_O.jpg,,0,1,1,31,,,,,,,,,,,HAP,2.988,None,None,None,None,None,None,,,,,,,,,,,,,2015_Sep_26_1342,K,facesParametric,77,59.6541900689,
./basicStim/01F_SA_C.jpg,,0,2,2,4,,,,,,,,,,,SAD,4.066,None,None,None,None,None,None,,,,,,,,,,,,,2015_Sep_26_1342,K,facesParametric,77,59.6541900689,
./basicStim/07F_SA_C.jpg,,0,3,3,32,,,,,,,,,,,SAD,0.63,None,None,None,None,None,None,,,,,,,,,,,,,2015_Sep_26_1342,K,facesParametric,77,59.6541900689,
./basicStim/28M_FE_O.jpg,,0,4,4,65,,,,,,,,,,,None,None,FEA,4.477,None,None,None,None,,,,,,,,,,,,,2015_Sep_26_1342,K,facesParametric,77,59.6541900689,
./basicStim/01F_AN_O.jpg,,0,5,5,0,,,,,,,,,,,None,None,ANG,2.785,None,None,None,None,,,,,,,,,,,,,2015_Sep_26_1342,K,facesParametric,77,59.6541900689,
./basicStim/23M_HA_O.jpg,,0,6,6,52,,,,,,,,,,,HAP,1.833,None,None,None,None,None,None,,,,,,,,,,,,,2015_Sep_26_1342,K,facesParametric,77,59.6541900689,
./basicStim/06F_DI_O.jpg,,0,7,7,22,,,,,,,,,,,None,None,None,None,DIS,1.634,None,None,,,,,,,,,,,,,2015_Sep_26_1342,K,facesParametric,77,59.6541900689,
./basicStim/07F_SP_O.jpg,,0,8,8,33,,,,,,,,,,,None,None,None,None,SUP,1.825,None,None,,,,,,,,,,,,,2015_Sep_26_1342,K,facesParametric,77,59.6541900689,
./basicStim/07F_DI_O.jpg,,0,9,9,29,,,,,,,,,,,None,None,None,None,DIS,1.844,None,None,,,,,,,,,,,,,2015_Sep_26_1342,K,facesParametric,77,59.6541900689,
./basicStim/28M_AN_O.jpg,,0,10,10,63,,,,,,,,,,,None,None,ANG,1.62,None,None,None,None,,,,,,,,,,,,,2015_Sep_26_1342,K,facesParametric,77,59.6541900689,
./basicStim/34M_SA_C.jpg,,0,11,11,74,,,,,,,,,,,SAD,1.346,None,None,None,None,None,None,,,,,,,,,,,,,2015_Sep_26_1342,K,facesParametric,77,59.6541900689,
./basicStim/02F_HA_O.jpg,,0,12,12,10,,,,,,,,,,,HAP,1.968,None,None,None,None,None,None,,,,,,,,,,,,,2015_Sep_26_1342,K,facesParametric,77,59.6541900689,
./basicStim/24M_HA_O.jpg,,0,13,13,59,,,,,,,,,,,HAP,0.509,None,None,None,None,None,None,,,,,,,,,,,,,2015_Sep_26_1342,K,facesParametric,77,59.6541900689,
./basicStim/24M_AN_O.jpg,,0,14,14,56,,,,,,,,,,,None,None,ANG,1.584,None,None,None,None,,,,,,,,,,,,,2015_Sep_26_1342,K,facesParametric,77,59.6541900689,
./basicStim/23M_FE_O.jpg,,0,15,15,51,,,,,,,,,,,None,None,None,None,SUP,1.089,None,None,,,,,,,,,,,,,2015_Sep_26_1342,K,facesParametric,77,59.6541900689,
./basicStim/03F_NE_C.jpg,,0,16,16,20,,,,,,,,,,,None,None,None,None,None,None,NTR,1.382,,,,,,,,,,,,,2015_Sep_26_1342,K,facesParametric,77,59.6541900689,
./basicStim/03F_DI_O.jpg,,0,17,17,15,,,,,,,,,,,None,None,None,None,DIS,1.491,None,None,,,,,,,,,,,,,2015_Sep_26_1342,K,facesParametric,77,59.6541900689,
./basicStim/03F_HA_O.jpg,,0,18,18,17,,,,,,,,,,,HAP,0.929,None,None,None,None,None,None,,,,,,,,,,,,,2015_Sep_26_1342,K,facesParametric,77,59.6541900689,
./basicStim/34M_AN_O.jpg,,0,19,19,70,,,,,,,,,,,None,None,ANG,1.43,None,None,None,None,,,,,,,,,,,,,2015_Sep_26_1342,K,facesParametric,77,59.6541900689,
./basicStim/21M_SA_C.jpg,,0,20,20,46,,,,,,,,,,,None,None,FEA,4.644,None,None,None,None,,,,,,,,,,,,,2015_Sep_26_1342,K,facesParametric,77,59.6541900689,
./basicStim/23M_AN_O.jpg,,0,21,21,49,,,,,,,,,,,None,None,ANG,1.312,None,None,None,None,,,,,,,,,,,,,2015_Sep_26_1342,K,facesParametric,77,59.6541900689,
./basicStim/06F_HA_O.jpg,,0,22,22,24,,,,,,,,,,,HAP,1.396,None,None,None,None,None,None,,,,,,,,,,,,,2015_Sep_26_1342,K,facesParametric,77,59.6541900689,
./basicStim/01F_NE_C.jpg,,0,23,23,6,,,,,,,,,,,None,None,None,None,None,None,NTR,6.0,,,,,,,,,,,,,2015_Sep_26_1342,K,facesParametric,77,59.6541900689,
./basicStim/34M_FE_O.jpg,,0,24,24,72,,,,,,,,,,,None,None,FEA,1.63,None,None,None,None,,,,,,,,,,,,,2015_Sep_26_1342,K,facesParametric,77,59.6541900689,
./basicStim/01F_DI_O.jpg,,0,25,25,1,,,,,,,,,,,None,None,None,None,DIS,1.055,None,None,,,,,,,,,,,,,2015_Sep_26_1342,K,facesParametric,77,59.6541900689,
./basicStim/23M_NE_C.jpg,,0,26,26,55,,,,,,,,,,,None,None,None,None,None,None,NTR,2.501,,,,,,,,,,,,,2015_Sep_26_1342,K,facesParametric,77,59.6541900689,
./basicStim/21M_SP_O.jpg,,0,27,27,47,,,,,,,,,,,None,None,None,None,SUP,1.643,None,None,,,,,,,,,,,,,2015_Sep_26_1342,K,facesParametric,77,59.6541900689,
./basicStim/34M_DI_O.jpg,,0,28,28,71,,,,,,,,,,,None,None,None,None,DIS,1.748,None,None,,,,,,,,,,,,,2015_Sep_26_1342,K,facesParametric,77,59.6541900689,
./basicStim/24M_DI_O.jpg,,0,29,29,57,,,,,,,,,,,None,None,None,None,DIS,6.761,None,None,,,,,,,,,,,,,2015_Sep_26_1342,K,facesParametric,77,59.6541900689,
./basicStim/02F_SA_C.jpg,,0,30,30,11,,,,,,,,,,,SAD,5.454,None,None,None,None,None,None,,,,,,,,,,,,,2015_Sep_26_1342,K,facesParametric,77,59.6541900689,
./basicStim/03F_SA_C.jpg,,0,31,31,18,,,,,,,,,,,SAD,3.589,None,None,None,None,None,None,,,,,,,,,,,,,2015_Sep_26_1342,K,facesParametric,77,59.6541900689,
./basicStim/07F_FE_O.jpg,,0,32,32,30,,,,,,,,,,,None,None,FEA,3.149,None,None,None,None,,,,,,,,,,,,,2015_Sep_26_1342,K,facesParametric,77,59.6541900689,
./basicStim/02F_DI_O.jpg,,0,33,33,8,,,,,,,,,,,None,None,None,None,DIS,1.191,None,None,,,,,,,,,,,,,2015_Sep_26_1342,K,facesParametric,77,59.6541900689,
./basicStim/23M_SA_C.jpg,,0,34,34,53,,,,,,,,,,,SAD,3.666,None,None,None,None,None,None,,,,,,,,,,,,,2015_Sep_26_1342,K,facesParametric,77,59.6541900689,
./basicStim/28M_SA_C.jpg,,0,35,35,67,,,,,,,,,,,None,None,FEA,3.736,None,None,None,None,,,,,,,,,,,,,2015_Sep_26_1342,K,facesParametric,77,59.6541900689,
./basicStim/02F_NE_C.jpg,,0,36,36,13,,,,,,,,,,,None,None,None,None,None,None,NTR,1.574,,,,,,,,,,,,,2015_Sep_26_1342,K,facesParametric,77,59.6541900689,
./basicStim/06F_NE_C.jpg,,0,37,37,27,,,,,,,,,,,None,None,None,None,None,None,NTR,1.947,,,,,,,,,,,,,2015_Sep_26_1342,K,facesParametric,77,59.6541900689,
./basicStim/09F_NE_C.jpg,,0,38,38,41,,,,,,,,,,,None,None,None,None,None,None,NTR,1.104,,,,,,,,,,,,,2015_Sep_26_1342,K,facesParametric,77,59.6541900689,
./basicStim/06F_SP_O.jpg,,0,39,39,26,,,,,,,,,,,None,None,None,None,SUP,1.448,None,None,,,,,,,,,,,,,2015_Sep_26_1342,K,facesParametric,77,59.6541900689,
./basicStim/36M_FE_O.jpg,,0,40,40,79,,,,,,,,,,,None,None,FEA,2.367,None,None,None,None,,,,,,,,,,,,,2015_Sep_26_1342,K,facesParametric,77,59.6541900689,
./basicStim/28M_DI_O.jpg,,0,41,41,64,,,,,,,,,,,None,None,None,None,DIS,3.088,None,None,,,,,,,,,,,,,2015_Sep_26_1342,K,facesParametric,77,59.6541900689,
./basicStim/01F_SP_O.jpg,,0,42,42,5,,,,,,,,,,,None,None,None,None,SUP,1.148,None,None,,,,,,,,,,,,,2015_Sep_26_1342,K,facesParametric,77,59.6541900689,
./basicStim/03F_FE_O.jpg,,0,43,43,16,,,,,,,,,,,None,None,FEA,1.826,None,None,None,None,,,,,,,,,,,,,2015_Sep_26_1342,K,facesParametric,77,59.6541900689,
./basicStim/21M_NE_C.jpg,,0,44,44,48,,,,,,,,,,,None,None,None,None,None,None,NTR,1.559,,,,,,,,,,,,,2015_Sep_26_1342,K,facesParametric,77,59.6541900689,
./basicStim/06F_FE_O.jpg,,0,45,45,23,,,,,,,,,,,None,None,FEA,1.562,None,None,None,None,,,,,,,,,,,,,2015_Sep_26_1342,K,facesParametric,77,59.6541900689,
./basicStim/01F_FE_O.jpg,,0,46,46,2,,,,,,,,,,,None,None,FEA,1.445,None,None,None,None,,,,,,,,,,,,,2015_Sep_26_1342,K,facesParametric,77,59.6541900689,
./basicStim/21M_HA_O.jpg,,0,47,47,45,,,,,,,,,,,HAP,1.784,None,None,None,None,None,None,,,,,,,,,,,,,2015_Sep_26_1342,K,facesParametric,77,59.6541900689,
./basicStim/09F_DI_O.jpg,,0,48,48,36,,,,,,,,,,,None,None,None,None,DIS,1.695,None,None,,,,,,,,,,,,,2015_Sep_26_1342,K,facesParametric,77,59.6541900689,
./basicStim/03F_AN_O.jpg,,0,49,49,14,,,,,,,,,,,None,None,ANG,1.663,None,None,None,None,,,,,,,,,,,,,2015_Sep_26_1342,K,facesParametric,77,59.6541900689,
./basicStim/02F_AN_O.jpg,,0,50,50,7,,,,,,,,,,,None,None,ANG,0.792,None,None,None,None,,,,,,,,,,,,,2015_Sep_26_1342,K,facesParametric,77,59.6541900689,
./basicStim/28M_NE_C.jpg,,0,51,51,69,,,,,,,,,,,None,None,None,None,None,None,NTR,1.359,,,,,,,,,,,,,2015_Sep_26_1342,K,facesParametric,77,59.6541900689,
./basicStim/36M_SP_O.jpg,,0,52,52,82,,,,,,,,,,,None,None,None,None,SUP,0.859,None,None,,,,,,,,,,,,,2015_Sep_26_1342,K,facesParametric,77,59.6541900689,
./basicStim/28M_SP_O.jpg,,0,53,53,68,,,,,,,,,,,None,None,None,None,SUP,1.262,None,None,,,,,,,,,,,,,2015_Sep_26_1342,K,facesParametric,77,59.6541900689,
./basicStim/34M_SP_O.jpg,,0,54,54,75,,,,,,,,,,,None,None,None,None,SUP,0.422,None,None,,,,,,,,,,,,,2015_Sep_26_1342,K,facesParametric,77,59.6541900689,
./basicStim/09F_HA_O.jpg,,0,55,55,38,,,,,,,,,,,HAP,1.032,None,None,None,None,None,None,,,,,,,,,,,,,2015_Sep_26_1342,K,facesParametric,77,59.6541900689,
./basicStim/09F_FE_O.jpg,,0,56,56,37,,,,,,,,,,,None,None,FEA,1.546,None,None,None,None,,,,,,,,,,,,,2015_Sep_26_1342,K,facesParametric,77,59.6541900689,
./basicStim/21M_DI_O.jpg,,0,57,57,43,,,,,,,,,,,None,None,None,None,DIS,0.912,None,None,,,,,,,,,,,,,2015_Sep_26_1342,K,facesParametric,77,59.6541900689,
./basicStim/06F_AN_O.jpg,,0,58,58,21,,,,,,,,,,,None,None,ANG,1.398,None,None,None,None,,,,,,,,,,,,,2015_Sep_26_1342,K,facesParametric,77,59.6541900689,
./basicStim/36M_DI_O.jpg,,0,59,59,78,,,,,,,,,,,None,None,None,None,DIS,1.917,None,None,,,,,,,,,,,,,2015_Sep_26_1342,K,facesParametric,77,59.6541900689,
./basicStim/24M_FE_O.jpg,,0,60,60,58,,,,,,,,,,,None,None,FEA,2.379,None,None,None,None,,,,,,,,,,,,,2015_Sep_26_1342,K,facesParametric,77,59.6541900689,
./basicStim/01F_HA_O.jpg,,0,61,61,3,,,,,,,,,,,HAP,3.609,None,None,None,None,None,None,,,,,,,,,,,,,2015_Sep_26_1342,K,facesParametric,77,59.6541900689,
./basicStim/03F_SP_O.jpg,,0,62,62,19,,,,,,,,,,,HAP,0.407,None,None,None,None,None,None,,,,,,,,,,,,,2015_Sep_26_1342,K,facesParametric,77,59.6541900689,
./basicStim/02F_FE_O.jpg,,0,63,63,9,,,,,,,,,,,None,None,FEA,1.416,None,None,None,None,,,,,,,,,,,,,2015_Sep_26_1342,K,facesParametric,77,59.6541900689,
./basicStim/34M_HA_O.jpg,,0,64,64,73,,,,,,,,,,,HAP,0.928,None,None,None,None,None,None,,,,,,,,,,,,,2015_Sep_26_1342,K,facesParametric,77,59.6541900689,
./basicStim/34M_NE_C.jpg,,0,65,65,76,,,,,,,,,,,None,None,None,None,None,None,NTR,1.262,,,,,,,,,,,,,2015_Sep_26_1342,K,facesParametric,77,59.6541900689,
./basicStim/36M_HA_O.jpg,,0,66,66,80,,,,,,,,,,,HAP,0.675,None,None,None,None,None,None,,,,,,,,,,,,,2015_Sep_26_1342,K,facesParametric,77,59.6541900689,
./basicStim/24M_SP_O.jpg,,0,67,67,61,,,,,,,,,,,None,None,None,None,SUP,2.92,None,None,,,,,,,,,,,,,2015_Sep_26_1342,K,facesParametric,77,59.6541900689,
./basicStim/36M_SA_C.jpg,,0,68,68,81,,,,,,,,,,,SAD,1.447,None,None,None,None,None,None,,,,,,,,,,,,,2015_Sep_26_1342,K,facesParametric,77,59.6541900689,
./basicStim/07F_AN_O.jpg,,0,69,69,28,,,,,,,,,,,None,None,ANG,0.78,None,None,None,None,,,,,,,,,,,,,2015_Sep_26_1342,K,facesParametric,77,59.6541900689,
./basicStim/23M_SP_O.jpg,,0,70,70,54,,,,,,,,,,,None,None,None,None,SUP,1.378,None,None,,,,,,,,,,,,,2015_Sep_26_1342,K,facesParametric,77,59.6541900689,
./basicStim/09F_SP_O.jpg,,0,71,71,40,,,,,,,,,,,None,None,None,None,SUP,0.419,None,None,,,,,,,,,,,,,2015_Sep_26_1342,K,facesParametric,77,59.6541900689,
./basicStim/09F_SA_C.jpg,,0,72,72,39,,,,,,,,,,,SAD,1.479,None,None,None,None,None,None,,,,,,,,,,,,,2015_Sep_26_1342,K,facesParametric,77,59.6541900689,
./basicStim/02F_SP_O.jpg,,0,73,73,12,,,,,,,,,,,None,None,None,None,SUP,1.461,None,None,,,,,,,,,,,,,2015_Sep_26_1342,K,facesParametric,77,59.6541900689,
./basicStim/21M_FE_O.jpg,,0,74,74,44,,,,,,,,,,,None,None,ANG,1.249,None,None,None,None,,,,,,,,,,,,,2015_Sep_26_1342,K,facesParametric,77,59.6541900689,
./basicStim/36M_AN_O.jpg,,0,75,75,77,,,,,,,,,,,None,None,ANG,1.046,None,None,None,None,,,,,,,,,,,,,2015_Sep_26_1342,K,facesParametric,77,59.6541900689,
./basicStim/24M_SA_C.jpg,,0,76,76,60,,,,,,,,,,,SAD,1.246,None,None,None,None,None,None,,,,,,,,,,,,,2015_Sep_26_1342,K,facesParametric,77,59.6541900689,
./basicStim/09F_AN_O.jpg,,0,77,77,35,,,,,,,,,,,None,None,ANG,1.145,None,None,None,None,,,,,,,,,,,,,2015_Sep_26_1342,K,facesParametric,77,59.6541900689,
./basicStim/07F_NE_C.jpg,,0,78,78,34,,,,,,,,,,,None,None,None,None,None,None,NTR,3.722,,,,,,,,,,,,,2015_Sep_26_1342,K,facesParametric,77,59.6541900689,
./basicStim/36M_NE_C.jpg,,0,79,79,83,,,,,,,,,,,None,None,None,None,None,None,NTR,0.469,,,,,,,,,,,,,2015_Sep_26_1342,K,facesParametric,77,59.6541900689,
./basicStim/24M_NE_C.jpg,,0,80,80,62,,,,,,,,,,,None,None,None,None,None,None,NTR,0.578,,,,,,,,,,,,,2015_Sep_26_1342,K,facesParametric,77,59.6541900689,
./basicStim/06F_SA_C.jpg,,0,81,81,25,,,,,,,,,,,SAD,1.531,None,None,None,None,None,None,,,,,,,,,,,,,2015_Sep_26_1342,K,facesParametric,77,59.6541900689,
./basicStim/28M_HA_O.jpg,,0,82,82,66,,,,,,,,,,,HAP,1.414,None,None,None,None,None,None,,,,,,,,,,,,,2015_Sep_26_1342,K,facesParametric,77,59.6541900689,
./basicStim/23M_DI_O.jpg,,0,83,83,50,,,,,,,,,,,None,None,None,None,DIS,5.015,None,None,,,,,,,,,,,,,2015_Sep_26_1342,K,facesParametric,77,59.6541900689,
,,,,,,,,,,,,,,,,,,,,,,,,return,5.6987850666,,,,,,,,,,,2015_Sep_26_1342,K,facesParametric,77,59.6541900689,
,,,,,,,,,,,,,,return,10.0554509163,,,,,,,,,,,,,,,,,,,,,2015_Sep_26_1342,K,facesParametric,77,59.6541900689,
,,,,,,,,,,,,,,,,,,,,,,,,return,15.184855938,,,,,,,,,,,2015_Sep_26_1342,K,facesParametric,77,59.6541900689,
,,,,,,,,,,,,,,,,,,,,,,,,,,return,0.620432853699,,,,,,,,,2015_Sep_26_1342,K,facesParametric,77,59.6541900689,
./stim/MorphF9_06_orig.jpg,0,,,,,0,0,0,0,,,,,,,,,,,,,,,,,,,-3.1640625,-3.1640625,0,0,1,6.06054401398,,,2015_Sep_26_1342,K,facesParametric,77,59.6541900689,
./stim/MorphF5_06_orig.jpg,1,,,,,0,1,1,1,,,,,,,,,,,,,,,,,,,-3.427734375,-2.958984375,0,0,1,2.14154791832,,,2015_Sep_26_1342,K,facesParametric,77,59.6541900689,
./stim/MorphM6_08_orig.jpg,2,,,,,0,2,2,2,,,,,,,,,,,,,,,,,,,-3.486328125,-2.8125,1,0,0,3.08258795738,,,2015_Sep_26_1342,K,facesParametric,77,59.6541900689,
./stim/MorphM1_04_orig.jpg,3,,,,,0,3,3,3,,,,,,,,,,,,,,,,,,,-3.486328125,-2.8125,1,0,0,3.18329501152,,,2015_Sep_26_1342,K,facesParametric,77,59.6541900689,
./stim/MorphM3_06_orig.jpg,4,,,,,0,4,4,4,,,,,,,,,,,,,,,,,,,-3.515625,-2.783203125,0,0,1,1.6075630188,,,2015_Sep_26_1342,K,facesParametric,77,59.6541900689,
./stim/MorphM4_00_orig.jpg,5,,,,,0,5,5,5,,,,,,,,,,,,,,,,,,,-3.603515625,-2.578125,0,0,1,2.88118100166,,,2015_Sep_26_1342,K,facesParametric,77,59.6541900689,
./stim/MorphF6_08_orig.jpg,6,,,,,0,6,6,6,,,,,,,,,,,,,,,,,,,-3.6328125,-2.548828125,0,0,1,2.56320309639,,,2015_Sep_26_1342,K,facesParametric,77,59.6541900689,
./stim/MorphF8_04_orig.jpg,7,,,,,0,7,7,7,,,,,,,,,,,,,,,,,,,-3.662109375,-2.51953125,1,0,0,1.97621917725,,,2015_Sep_26_1342,K,facesParametric,77,59.6541900689,
./stim/MorphF6_04_orig.jpg,8,,,,,0,8,8,8,,,,,,,,,,,,,,,,,,,-3.662109375,-2.51953125,1,0,0,2.36164188385,,,2015_Sep_26_1342,K,facesParametric,77,59.6541900689,
./stim/MorphM5_03_orig.jpg,9,,,,,0,9,9,9,,,,,,,,,,,,,,,,,,,-3.69140625,-2.490234375,0,0,1,1.70830607414,,,2015_Sep_26_1342,K,facesParametric,77,59.6541900689,
./stim/MorphM4_08_orig.jpg,10,,,,,0,10,10,10,,,,,,,,,,,,,,,,,,,-3.69140625,-2.490234375,0,0,1,1.07061004639,,,2015_Sep_26_1342,K,facesParametric,77,59.6541900689,
./stim/MorphF4_01_orig.jpg,11,,,,,0,11,11,11,,,,,,,,,,,,,,,,,,,-3.69140625,-2.490234375,1,0,0,2.71284103394,,,2015_Sep_26_1342,K,facesParametric,77,59.6541900689,
./stim/MorphF7_07_orig.jpg,12,,,,,0,12,12,12,,,,,,,,,,,,,,,,,,,-3.662109375,-2.4609375,0,0,1,1.28875994682,,,2015_Sep_26_1342,K,facesParametric,77,59.6541900689,
./stim/MorphF3_09_orig.jpg,13,,,,,0,13,13,13,,,,,,,,,,,,,,,,,,,-3.662109375,-2.4609375,0,0,1,1.42325997353,,,2015_Sep_26_1342,K,facesParametric,77,59.6541900689,
./stim/MorphF2_04_orig.jpg,14,,,,,0,14,14,14,,,,,,,,,,,,,,,,,,,-3.662109375,-2.4609375,0,0,1,1.89236903191,,,2015_Sep_26_1342,K,facesParametric,77,59.6541900689,
./stim/MorphM3_04_orig.jpg,15,,,,,0,15,15,15,,,,,,,,,,,,,,,,,,,-3.662109375,-2.4609375,0,0,1,1.90810394287,,,2015_Sep_26_1342,K,facesParametric,77,59.6541900689,
./stim/MorphF10_00_orig.jpg,16,,,,,0,16,16,16,,,,,,,,,,,,,,,,,,,-3.662109375,-2.4609375,1,0,0,1.15497994423,,,2015_Sep_26_1342,K,facesParametric,77,59.6541900689,
./stim/MorphM3_03_orig.jpg,17,,,,,0,17,17,17,,,,,,,,,,,,,,,,,,,-3.69140625,-2.431640625,1,0,0,4.45654678345,,,2015_Sep_26_1342,K,facesParametric,77,59.6541900689,
./stim/MorphF5_04_orig.jpg,18,,,,,0,18,18,18,,,,,,,,,,,,,,,,,,,-3.69140625,-2.431640625,1,0,0,1.79214191437,,,2015_Sep_26_1342,K,facesParametric,77,59.6541900689,
./stim/MorphF1_06_orig.jpg,19,,,,,0,19,19,19,,,,,,,,,,,,,,,,,,,-3.69140625,-2.431640625,1,0,0,2.17709207535,,,2015_Sep_26_1342,K,facesParametric,77,59.6541900689,
./stim/MorphM2_01_orig.jpg,20,,,,,0,20,20,20,,,,,,,,,,,,,,,,,,,-3.69140625,-2.431640625,1,0,0,1.65881609917,,,2015_Sep_26_1342,K,facesParametric,77,59.6541900689,
./stim/MorphM5_05_orig.jpg,21,,,,,0,21,21,21,,,,,,,,,,,,,,,,,,,-3.69140625,-2.431640625,0,0,1,1.32113289833,,,2015_Sep_26_1342,K,facesParametric,77,59.6541900689,
./stim/MorphM1_06_orig.jpg,22,,,,,0,22,22,22,,,,,,,,,,,,,,,,,,,-3.69140625,-2.431640625,0,0,1,3.33146715164,,,2015_Sep_26_1342,K,facesParametric,77,59.6541900689,
./stim/MorphM9_04_orig.jpg,23,,,,,0,23,23,23,,,,,,,,,,,,,,,,,,,-3.69140625,-2.431640625,1,0,0,2.5118560791,,,2015_Sep_26_1342,K,facesParametric,77,59.6541900689,
./stim/MorphM10_06_orig.jpg,24,,,,,0,24,24,24,,,,,,,,,,,,,,,,,,,-3.69140625,-2.431640625,0,0,1,0.920750141144,,,2015_Sep_26_1342,K,facesParametric,77,59.6541900689,
./stim/MorphF4_02_orig.jpg,25,,,,,0,25,25,25,,,,,,,,,,,,,,,,,,,-3.69140625,-2.431640625,1,0,0,1.43869113922,,,2015_Sep_26_1342,K,facesParametric,77,59.6541900689,
./stim/MorphM9_05_orig.jpg,26,,,,,0,26,26,26,,,,,,,,,,,,,,,,,,,-3.69140625,-2.431640625,1,0,0,2.46249699593,,,2015_Sep_26_1342,K,facesParametric,77,59.6541900689,
./stim/MorphF7_02_orig.jpg,27,,,,,0,27,27,27,,,,,,,,,,,,,,,,,,,-3.69140625,-2.431640625,1,0,0,1.22073507309,,,2015_Sep_26_1342,K,facesParametric,77,59.6541900689,
./stim/MorphM1_03_orig.jpg,28,,,,,0,28,28,28,,,,,,,,,,,,,,,,,,,-3.69140625,-2.431640625,1,0,0,1.84079504013,,,2015_Sep_26_1342,K,facesParametric,77,59.6541900689,
./stim/MorphF2_09_orig.jpg,29,,,,,0,29,29,29,,,,,,,,,,,,,,,,,,,-3.69140625,-2.431640625,0,0,1,0.970335960388,,,2015_Sep_26_1342,K,facesParametric,77,59.6541900689,
./stim/MorphF9_00_orig.jpg,30,,,,,0,30,30,30,,,,,,,,,,,,,,,,,,,-3.69140625,-2.431640625,1,0,0,1.62430119514,,,2015_Sep_26_1342,K,facesParametric,77,59.6541900689,
./stim/MorphF2_07_orig.jpg,31,,,,,0,31,31,31,,,,,,,,,,,,,,,,,,,-3.69140625,-2.431640625,0,0,1,1.07088708878,,,2015_Sep_26_1342,K,facesParametric,77,59.6541900689,
./stim/MorphF9_02_orig.jpg,32,,,,,0,32,32,32,,,,,,,,,,,,,,,,,,,-3.69140625,-2.431640625,1,0,0,1.82578110695,,,2015_Sep_26_1342,K,facesParametric,77,59.6541900689,
./stim/MorphM6_09_orig.jpg,33,,,,,0,33,33,33,,,,,,,,,,,,,,,,,,,-3.720703125,-2.4609375,0,0,1,2.98174285889,,,2015_Sep_26_1342,K,facesParametric,77,59.6541900689,
./stim/MorphF2_10_orig.jpg,34,,,,,0,34,34,34,,,,,,,,,,,,,,,,,,,-3.720703125,-2.4609375,0,0,1,1.18833494186,,,2015_Sep_26_1342,K,facesParametric,77,59.6541900689,
./stim/MorphM9_03_orig.jpg,35,,,,,0,35,35,35,,,,,,,,,,,,,,,,,,,-3.720703125,-2.4609375,1,0,0,5.02646613121,,,2015_Sep_26_1342,K,facesParametric,77,59.6541900689,
./stim/MorphM5_08_orig.jpg,36,,,,,0,36,36,36,,,,,,,,,,,,,,,,,,,-3.720703125,-2.4609375,0,0,1,2.36213207245,,,2015_Sep_26_1342,K,facesParametric,77,59.6541900689,
./stim/MorphM8_02_orig.jpg,37,,,,,0,37,37,37,,,,,,,,,,,,,,,,,,,-3.720703125,-2.4609375,1,0,0,2.19438409805,,,2015_Sep_26_1342,K,facesParametric,77,59.6541900689,
./stim/MorphF4_08_orig.jpg,38,,,,,0,38,38,38,,,,,,,,,,,,,,,,,,,-3.720703125,-2.4609375,0,0,1,0.88498711586,,,2015_Sep_26_1342,K,facesParametric,77,59.6541900689,
./stim/MorphF9_07_orig.jpg,39,,,,,0,39,39,39,,,,,,,,,,,,,,,,,,,-3.720703125,-2.4609375,0,0,1,1.5407140255,,,2015_Sep_26_1342,K,facesParametric,77,59.6541900689,
./stim/MorphM8_10_orig.jpg,40,,,,,0,40,40,40,,,,,,,,,,,,,,,,,,,-3.720703125,-2.4609375,0,0,1,1.2554731369,,,2015_Sep_26_1342,K,facesParametric,77,59.6541900689,
./stim/MorphF3_08_orig.jpg,41,,,,,0,41,41,41,,,,,,,,,,,,,,,,,,,-3.720703125,-2.4609375,0,0,1,1.17259693146,,,2015_Sep_26_1342,K,facesParametric,77,59.6541900689,
./stim/MorphF7_08_orig.jpg,42,,,,,0,42,42,42,,,,,,,,,,,,,,,,,,,-3.720703125,-2.4609375,0,0,1,0.902781963348,,,2015_Sep_26_1342,K,facesParametric,77,59.6541900689,
./stim/MorphM2_05_orig.jpg,43,,,,,0,43,43,43,,,,,,,,,,,,,,,,,,,-3.720703125,-2.4609375,1,0,0,1.23897790909,,,2015_Sep_26_1342,K,facesParametric,77,59.6541900689,
./stim/MorphF8_06_orig.jpg,44,,,,,0,44,44,44,,,,,,,,,,,,,,,,,,,-3.720703125,-2.4609375,0,0,1,0.920917034149,,,2015_Sep_26_1342,K,facesParametric,77,59.6541900689,
./stim/MorphF5_07_orig.jpg,45,,,,,0,45,45,45,,,,,,,,,,,,,,,,,,,-3.720703125,-2.4609375,0,0,1,0.969792842865,,,2015_Sep_26_1342,K,facesParametric,77,59.6541900689,
./stim/MorphM4_01_orig.jpg,46,,,,,0,46,46,46,,,,,,,,,,,,,,,,,,,-3.720703125,-2.4609375,1,0,0,1.87444710732,,,2015_Sep_26_1342,K,facesParametric,77,59.6541900689,
./stim/MorphM2_02_orig.jpg,47,,,,,0,47,47,47,,,,,,,,,,,,,,,,,,,-3.75,-2.490234375,1,0,0,1.4231171608,,,2015_Sep_26_1342,K,facesParametric,77,59.6541900689,
./stim/MorphF5_10_orig.jpg,48,,,,,0,48,48,48,,,,,,,,,,,,,,,,,,,-3.75,-2.490234375,0,0,1,0.853598117828,,,2015_Sep_26_1342,K,facesParametric,77,59.6541900689,
./stim/MorphM9_09_orig.jpg,49,,,,,0,49,49,49,,,,,,,,,,,,,,,,,,,-3.75,-2.490234375,0,0,1,1.27080607414,,,2015_Sep_26_1342,K,facesParametric,77,59.6541900689,
./stim/MorphF10_09_orig.jpg,50,,,,,0,50,50,50,,,,,,,,,,,,,,,,,,,-3.75,-2.490234375,0,0,1,0.836188077927,,,2015_Sep_26_1342,K,facesParametric,77,59.6541900689,
./stim/MorphM7_08_orig.jpg,51,,,,,0,51,51,51,,,,,,,,,,,,,,,,,,,-3.75,-2.490234375,0,0,1,1.00383996964,,,2015_Sep_26_1342,K,facesParametric,77,59.6541900689,
./stim/MorphF4_10_orig.jpg,52,,,,,0,52,52,52,,,,,,,,,,,,,,,,,,,-3.75,-2.490234375,0,0,1,1.17211294174,,,2015_Sep_26_1342,K,facesParametric,77,59.6541900689,
./stim/MorphM1_08_orig.jpg,53,,,,,0,53,53,53,,,,,,,,,,,,,,,,,,,-3.75,-2.490234375,0,0,1,1.37268996239,,,2015_Sep_26_1342,K,facesParametric,77,59.6541900689,
./stim/MorphM8_08_orig.jpg,54,,,,,0,54,54,54,,,,,,,,,,,,,,,,,,,-3.75,-2.490234375,0,0,1,1.13824295998,,,2015_Sep_26_1342,K,facesParametric,77,59.6541900689,
./stim/MorphM5_09_orig.jpg,55,,,,,0,55,55,55,,,,,,,,,,,,,,,,,,,-3.75,-2.490234375,0,0,1,1.32122707367,,,2015_Sep_26_1342,K,facesParametric,77,59.6541900689,
./stim/MorphM6_03_orig.jpg,56,,,,,0,56,56,56,,,,,,,,,,,,,,,,,,,-3.75,-2.490234375,1,0,0,1.2366437912,,,2015_Sep_26_1342,K,facesParametric,77,59.6541900689,
./stim/MorphF8_01_orig.jpg,57,,,,,0,57,57,57,,,,,,,,,,,,,,,,,,,-3.75,-2.490234375,1,0,0,0.903706073761,,,2015_Sep_26_1342,K,facesParametric,77,59.6541900689,
./stim/MorphM7_02_orig.jpg,58,,,,,0,58,58,58,,,,,,,,,,,,,,,,,,,-3.75,-2.490234375,1,0,0,1.94267487526,,,2015_Sep_26_1342,K,facesParametric,77,59.6541900689,
./stim/MorphF8_07_orig.jpg,59,,,,,0,59,59,59,,,,,,,,,,,,,,,,,,,-3.75,-2.490234375,0,0,1,0.887001991272,,,2015_Sep_26_1342,K,facesParametric,77,59.6541900689,
./stim/MorphM6_02_orig.jpg,60,,,,,0,60,60,60,,,,,,,,,,,,,,,,,,,-3.75,-2.490234375,1,0,0,1.07173991203,,,2015_Sep_26_1342,K,facesParametric,77,59.6541900689,
./stim/MorphF6_07_orig.jpg,61,,,,,0,61,61,61,,,,,,,,,,,,,,,,,,,-3.75,-2.490234375,1,0,0,1.67491388321,,,2015_Sep_26_1342,K,facesParametric,77,59.6541900689,
./stim/MorphF10_07_orig.jpg,62,,,,,0,62,62,62,,,,,,,,,,,,,,,,,,,-3.75,-2.490234375,0,0,1,0.735805988312,,,2015_Sep_26_1342,K,facesParametric,77,59.6541900689,
./stim/MorphF1_07_orig.jpg,63,,,,,0,63,63,63,,,,,,,,,,,,,,,,,,,-3.75,-2.490234375,1,0,0,2.49454021454,,,2015_Sep_26_1342,K,facesParametric,77,59.6541900689,
./stim/MorphF10_05_orig.jpg,64,,,,,0,64,64,64,,,,,,,,,,,,,,,,,,,-3.75,-2.490234375,0,0,1,1.20521998405,,,2015_Sep_26_1342,K,facesParametric,77,59.6541900689,
./stim/MorphM7_05_orig.jpg,65,,,,,0,65,65,65,,,,,,,,,,,,,,,,,,,-3.75,-2.490234375,0,0,1,0.83490395546,,,2015_Sep_26_1342,K,facesParametric,77,59.6541900689,
./stim/MorphF7_04_orig.jpg,66,,,,,0,66,66,66,,,,,,,,,,,,,,,,,,,-3.75,-2.490234375,1,0,0,1.05447602272,,,2015_Sep_26_1342,K,facesParametric,77,59.6541900689,
./stim/MorphM2_09_orig.jpg,67,,,,,0,67,67,67,,,,,,,,,,,,,,,,,,,-3.75,-2.490234375,0,0,1,1.28925991058,,,2015_Sep_26_1342,K,facesParametric,77,59.6541900689,
./stim/MorphM10_03_orig.jpg,68,,,,,0,68,68,68,,,,,,,,,,,,,,,,,,,-3.75,-2.490234375,1,0,0,1.58913493156,,,2015_Sep_26_1342,K,facesParametric,77,59.6541900689,
./stim/MorphM6_04_orig.jpg,69,,,,,0,69,69,69,,,,,,,,,,,,,,,,,,,-3.75,-2.490234375,1,0,0,1.22224187851,,,2015_Sep_26_1342,K,facesParametric,77,59.6541900689,
./stim/MorphM3_07_orig.jpg,70,,,,,0,70,70,70,,,,,,,,,,,,,,,,,,,-3.75,-2.490234375,0,0,1,1.08649301529,,,2015_Sep_26_1342,K,facesParametric,77,59.6541900689,
./stim/MorphM9_08_orig.jpg,71,,,,,0,71,71,71,,,,,,,,,,,,,,,,,,,-3.75,-2.490234375,0,0,1,1.64074707031,,,2015_Sep_26_1342,K,facesParametric,77,59.6541900689,
./stim/MorphF6_05_orig.jpg,72,,,,,0,72,72,72,,,,,,,,,,,,,,,,,,,-3.75,-2.490234375,1,0,0,1.48946118355,,,2015_Sep_26_1342,K,facesParametric,77,59.6541900689,
./stim/MorphF7_01_orig.jpg,73,,,,,0,73,73,73,,,,,,,,,,,,,,,,,,,-3.75,-2.490234375,1,0,0,0.953853845596,,,2015_Sep_26_1342,K,facesParametric,77,59.6541900689,
./stim/MorphM9_02_orig.jpg,74,,,,,0,74,74,74,,,,,,,,,,,,,,,,,,,-3.75,-2.490234375,1,0,0,0.819900989532,,,2015_Sep_26_1342,K,facesParametric,77,59.6541900689,
./stim/MorphF4_05_orig.jpg,75,,,,,0,75,75,75,,,,,,,,,,,,,,,,,,,-3.75,-2.490234375,1,0,0,1.40485978127,,,2015_Sep_26_1342,K,facesParametric,77,59.6541900689,
./stim/MorphF10_01_orig.jpg,76,,,,,0,76,76,76,,,,,,,,,,,,,,,,,,,-3.75,-2.490234375,1,0,0,1.85861802101,,,2015_Sep_26_1342,K,facesParametric,77,59.6541900689,
./stim/MorphF2_01_orig.jpg,77,,,,,0,77,77,77,,,,,,,,,,,,,,,,,,,-3.75,-2.490234375,1,0,0,1.69067001343,,,2015_Sep_26_1342,K,facesParametric,77,59.6541900689,
./stim/MorphF10_06_orig.jpg,78,,,,,0,78,78,78,,,,,,,,,,,,,,,,,,,-3.75,-2.490234375,0,0,1,0.853588104248,,,2015_Sep_26_1342,K,facesParametric,77,59.6541900689,
./stim/MorphF6_00_orig.jpg,79,,,,,0,79,79,79,,,,,,,,,,,,,,,,,,,-3.75,-2.490234375,1,0,0,1.52274990082,,,2015_Sep_26_1342,K,facesParametric,77,59.6541900689,
./stim/MorphM8_05_orig.jpg,80,,,,,0,80,80,80,,,,,,,,,,,,,,,,,,,-3.75,-2.490234375,1,0,0,3.53448605537,,,2015_Sep_26_1342,K,facesParametric,77,59.6541900689,
./stim/MorphF9_10_orig.jpg,81,,,,,0,81,81,81,,,,,,,,,,,,,,,,,,,-3.75,-2.490234375,0,0,1,0.719447851181,,,2015_Sep_26_1342,K,facesParametric,77,59.6541900689,
./stim/MorphF6_02_orig.jpg,82,,,,,0,82,82,82,,,,,,,,,,,,,,,,,,,-3.75,-2.490234375,1,0,0,1.05458211899,,,2015_Sep_26_1342,K,facesParametric,77,59.6541900689,
./stim/MorphM1_05_orig.jpg,83,,,,,0,83,83,83,,,,,,,,,,,,,,,,,,,-3.75,-2.490234375,1,0,0,1.37314891815,,,2015_Sep_26_1342,K,facesParametric,77,59.6541900689,
./stim/MorphM10_10_orig.jpg,84,,,,,0,84,84,84,,,,,,,,,,,,,,,,,,,-3.75,-2.490234375,0,0,1,0.702128887177,,,2015_Sep_26_1342,K,facesParametric,77,59.6541900689,
./stim/MorphM8_07_orig.jpg,85,,,,,0,85,85,85,,,,,,,,,,,,,,,,,,,-3.75,-2.490234375,0,0,1,0.969315052032,,,2015_Sep_26_1342,K,facesParametric,77,59.6541900689,
./stim/MorphF8_09_orig.jpg,86,,,,,0,86,86,86,,,,,,,,,,,,,,,,,,,-3.75,-2.490234375,0,0,1,0.936779975891,,,2015_Sep_26_1342,K,facesParametric,77,59.6541900689,
./stim/MorphF9_09_orig.jpg,87,,,,,0,87,87,87,,,,,,,,,,,,,,,,,,,-3.75,-2.490234375,0,0,1,0.869905948639,,,2015_Sep_26_1342,K,facesParametric,77,59.6541900689,
./stim/MorphF1_02_orig.jpg,88,,,,,0,88,88,88,,,,,,,,,,,,,,,,,,,-3.75,-2.490234375,1,0,0,0.887250900269,,,2015_Sep_26_1342,K,facesParametric,77,59.6541900689,
./stim/MorphM7_04_orig.jpg,89,,,,,0,89,89,89,,,,,,,,,,,,,,,,,,,-3.75,-2.490234375,0,0,1,0.920289039612,,,2015_Sep_26_1342,K,facesParametric,77,59.6541900689,
./stim/MorphF3_00_orig.jpg,90,,,,,0,90,90,90,,,,,,,,,,,,,,,,,,,-3.75,-2.490234375,1,0,0,2.61238002777,,,2015_Sep_26_1342,K,facesParametric,77,59.6541900689,
./stim/MorphM2_06_orig.jpg,91,,,,,0,91,91,91,,,,,,,,,,,,,,,,,,,-3.75,-2.490234375,1,0,0,3.09914016724,,,2015_Sep_26_1342,K,facesParametric,77,59.6541900689,
./stim/MorphM5_07_orig.jpg,92,,,,,0,92,92,92,,,,,,,,,,,,,,,,,,,-3.75,-2.490234375,1,0,0,3.26718401909,,,2015_Sep_26_1342,K,facesParametric,77,59.6541900689,
./stim/MorphF4_09_orig.jpg,93,,,,,0,93,93,93,,,,,,,,,,,,,,,,,,,-3.75,-2.490234375,0,0,1,0.752361059189,,,2015_Sep_26_1342,K,facesParametric,77,59.6541900689,
./stim/MorphM7_06_orig.jpg,94,,,,,0,94,94,94,,,,,,,,,,,,,,,,,,,-3.75,-2.490234375,0,0,1,0.803749799728,,,2015_Sep_26_1342,K,facesParametric,77,59.6541900689,
./stim/MorphM2_03_orig.jpg,95,,,,,0,95,95,95,,,,,,,,,,,,,,,,,,,-3.75,-2.490234375,1,0,0,1.15527796745,,,2015_Sep_26_1342,K,facesParametric,77,59.6541900689,
./stim/MorphM10_00_orig.jpg,96,,,,,0,96,96,96,,,,,,,,,,,,,,,,,,,-3.75,-2.490234375,1,0,0,1.03746891022,,,2015_Sep_26_1342,K,facesParametric,77,59.6541900689,
./stim/MorphM1_07_orig.jpg,97,,,,,0,97,97,97,,,,,,,,,,,,,,,,,,,-3.75,-2.490234375,1,0,0,1.77560997009,,,2015_Sep_26_1342,K,facesParametric,77,59.6541900689,
./stim/MorphM4_03_orig.jpg,98,,,,,0,98,98,98,,,,,,,,,,,,,,,,,,,-3.75,-2.490234375,1,0,0,1.1896469593,,,2015_Sep_26_1342,K,facesParametric,77,59.6541900689,
./stim/MorphF10_03_orig.jpg,99,,,,,0,99,99,99,,,,,,,,,,,,,,,,,,,-3.75,-2.490234375,1,0,0,1.74073696136,,,2015_Sep_26_1342,K,facesParametric,77,59.6541900689,
./stim/MorphF5_01_orig.jpg,100,,,,,0,100,100,100,,,,,,,,,,,,,,,,,,,-3.75,-2.490234375,1,0,0,1.13829684258,,,2015_Sep_26_1342,K,facesParametric,77,59.6541900689,
./stim/MorphF6_01_orig.jpg,101,,,,,0,101,101,101,,,,,,,,,,,,,,,,,,,-3.75,-2.490234375,1,0,0,1.33955788612,,,2015_Sep_26_1342,K,facesParametric,77,59.6541900689,
./stim/MorphF8_10_orig.jpg,102,,,,,0,102,102,102,,,,,,,,,,,,,,,,,,,-3.75,-2.490234375,0,0,1,0.736040115356,,,2015_Sep_26_1342,K,facesParametric,77,59.6541900689,
./stim/MorphF7_00_orig.jpg,103,,,,,0,103,103,103,,,,,,,,,,,,,,,,,,,-3.75,-2.490234375,1,0,0,1.01916098595,,,2015_Sep_26_1342,K,facesParametric,77,59.6541900689,
./stim/MorphF5_08_orig.jpg,104,,,,,0,104,104,104,,,,,,,,,,,,,,,,,,,-3.75,-2.490234375,0,0,1,0.735907077789,,,2015_Sep_26_1342,K,facesParametric,77,59.6541900689,
./stim/MorphM4_09_orig.jpg,105,,,,,0,105,105,105,,,,,,,,,,,,,,,,,,,-3.75,-2.490234375,0,0,1,0.768064022064,,,2015_Sep_26_1342,K,facesParametric,77,59.6541900689,
./stim/MorphM8_01_orig.jpg,106,,,,,0,106,106,106,,,,,,,,,,,,,,,,,,,-3.75,-2.490234375,1,0,0,0.953435897827,,,2015_Sep_26_1342,K,facesParametric,77,59.6541900689,
./stim/MorphM2_00_orig.jpg,107,,,,,0,107,107,107,,,,,,,,,,,,,,,,,,,-3.75,-2.490234375,1,0,0,1.02130699158,,,2015_Sep_26_1342,K,facesParametric,77,59.6541900689,
./stim/MorphM10_02_orig.jpg,108,,,,,0,108,108,108,,,,,,,,,,,,,,,,,,,-4.072265625,-2.255859375,1,0,0,2.21076893806,,,2015_Sep_26_1342,K,facesParametric,77,59.6541900689,
./stim/MorphM1_10_orig.jpg,109,,,,,0,109,109,109,,,,,,,,,,,,,,,,,,,-4.072265625,-2.255859375,0,0,1,0.870282888412,,,2015_Sep_26_1342,K,facesParametric,77,59.6541900689,
./stim/MorphM6_00_orig.jpg,110,,,,,0,110,110,110,,,,,,,,,,,,,,,,,,,-4.072265625,-2.255859375,1,0,0,1.12181901932,,,2015_Sep_26_1342,K,facesParametric,77,59.6541900689,
./stim/MorphM4_02_orig.jpg,111,,,,,0,111,111,111,,,,,,,,,,,,,,,,,,,-4.072265625,-2.255859375,1,0,0,1.10407018661,,,2015_Sep_26_1342,K,facesParametric,77,59.6541900689,
./stim/MorphM3_08_orig.jpg,112,,,,,0,112,112,112,,,,,,,,,,,,,,,,,,,-4.072265625,-2.255859375,0,0,1,0.886999130249,,,2015_Sep_26_1342,K,facesParametric,77,59.6541900689,
./stim/MorphM10_04_orig.jpg,113,,,,,0,113,113,113,,,,,,,,,,,,,,,,,,,-4.072265625,-2.255859375,0,0,1,2.61305904388,,,2015_Sep_26_1342,K,facesParametric,77,59.6541900689,
./stim/MorphF6_09_orig.jpg,114,,,,,0,114,114,114,,,,,,,,,,,,,,,,,,,-4.072265625,-2.255859375,0,0,1,1.44020605087,,,2015_Sep_26_1342,K,facesParametric,77,59.6541900689,
./stim/MorphM6_05_orig.jpg,115,,,,,0,115,115,115,,,,,,,,,,,,,,,,,,,-4.072265625,-2.255859375,1,0,0,2.11038804054,,,2015_Sep_26_1342,K,facesParametric,77,59.6541900689,
./stim/MorphF1_10_orig.jpg,116,,,,,0,116,116,116,,,,,,,,,,,,,,,,,,,-4.072265625,-2.255859375,0,0,1,1.8419148922,,,2015_Sep_26_1342,K,facesParametric,77,59.6541900689,
./stim/MorphF10_08_orig.jpg,117,,,,,0,117,117,117,,,,,,,,,,,,,,,,,,,-4.072265625,-2.255859375,0,0,1,0.78678894043,,,2015_Sep_26_1342,K,facesParametric,77,59.6541900689,
./stim/MorphM4_06_orig.jpg,118,,,,,0,118,118,118,,,,,,,,,,,,,,,,,,,-4.072265625,-2.255859375,0,0,1,1.10451602936,,,2015_Sep_26_1342,K,facesParametric,77,59.6541900689,
./stim/MorphF2_00_orig.jpg,119,,,,,0,119,119,119,,,,,,,,,,,,,,,,,,,-4.072265625,-2.255859375,0,0,1,3.08220791817,,,2015_Sep_26_1342,K,facesParametric,77,59.6541900689,
./stim/MorphM7_10_orig.jpg,120,,,,,0,120,120,120,,,,,,,,,,,,,,,,,,,-4.072265625,-2.255859375,0,0,1,0.736168861389,,,2015_Sep_26_1342,K,facesParametric,77,59.6541900689,
./stim/MorphF7_09_orig.jpg,121,,,,,0,121,121,121,,,,,,,,,,,,,,,,,,,-4.072265625,-2.255859375,0,0,1,0.751518964767,,,2015_Sep_26_1342,K,facesParametric,77,59.6541900689,
./stim/MorphF4_00_orig.jpg,122,,,,,0,122,122,122,,,,,,,,,,,,,,,,,,,-4.072265625,-2.255859375,1,0,0,1.13833498955,,,2015_Sep_26_1342,K,facesParametric,77,59.6541900689,
./stim/MorphF9_03_orig.jpg,123,,,,,0,123,123,123,,,,,,,,,,,,,,,,,,,-4.072265625,-2.255859375,1,0,0,1.15487980843,,,2015_Sep_26_1342,K,facesParametric,77,59.6541900689,
./stim/MorphM3_02_orig.jpg,124,,,,,0,124,124,124,,,,,,,,,,,,,,,,,,,-4.072265625,-2.255859375,1,0,0,0.870402097702,,,2015_Sep_26_1342,K,facesParametric,77,59.6541900689,
./stim/MorphM5_00_orig.jpg,125,,,,,0,125,125,125,,,,,,,,,,,,,,,,,,,-4.04296875,-2.2265625,1,0,0,1.10518884659,,,2015_Sep_26_1342,K,facesParametric,77,59.6541900689,
./stim/MorphM10_01_orig.jpg,126,,,,,0,126,126,126,,,,,,,,,,,,,,,,,,,-4.04296875,-2.2265625,1,0,0,1.32047104836,,,2015_Sep_26_1342,K,facesParametric,77,59.6541900689,
./stim/MorphF5_05_orig.jpg,127,,,,,0,127,127,127,,,,,,,,,,,,,,,,,,,-4.04296875,-2.2265625,1,0,0,2.76226115227,,,2015_Sep_26_1342,K,facesParametric,77,59.6541900689,
./stim/MorphM8_03_orig.jpg,128,,,,,0,128,128,128,,,,,,,,,,,,,,,,,,,-4.04296875,-2.2265625,1,0,0,1.50727796555,,,2015_Sep_26_1342,K,facesParametric,77,59.6541900689,
./stim/MorphF6_10_orig.jpg,129,,,,,0,129,129,129,,,,,,,,,,,,,,,,,,,-4.04296875,-2.2265625,0,0,1,1.02131199837,,,2015_Sep_26_1342,K,facesParametric,77,59.6541900689,
./stim/MorphF3_06_orig.jpg,130,,,,,0,130,130,130,,,,,,,,,,,,,,,,,,,-4.04296875,-2.2265625,1,0,0,1.92412805557,,,2015_Sep_26_1342,K,facesParametric,77,59.6541900689,
./stim/MorphF8_05_orig.jpg,131,,,,,0,131,131,131,,,,,,,,,,,,,,,,,,,-4.04296875,-2.2265625,0,0,1,1.90816497803,,,2015_Sep_26_1342,K,facesParametric,77,59.6541900689,
./stim/MorphM8_04_orig.jpg,132,,,,,0,132,132,132,,,,,,,,,,,,,,,,,,,-4.04296875,-2.2265625,1,0,0,1.49009013176,,,2015_Sep_26_1342,K,facesParametric,77,59.6541900689,
./stim/MorphM9_10_orig.jpg,133,,,,,0,133,133,133,,,,,,,,,,,,,,,,,,,-4.04296875,-2.2265625,0,0,1,0.937196969986,,,2015_Sep_26_1342,K,facesParametric,77,59.6541900689,
./stim/MorphM3_00_orig.jpg,134,,,,,0,134,134,134,,,,,,,,,,,,,,,,,,,-4.04296875,-2.2265625,1,0,0,1.43807697296,,,2015_Sep_26_1342,K,facesParametric,77,59.6541900689,
./stim/MorphF2_03_orig.jpg,135,,,,,0,135,135,135,,,,,,,,,,,,,,,,,,,-4.04296875,-2.2265625,1,0,0,2.11057591438,,,2015_Sep_26_1342,K,facesParametric,77,59.6541900689,
./stim/MorphM5_04_orig.jpg,136,,,,,0,136,136,136,,,,,,,,,,,,,,,,,,,-4.04296875,-2.2265625,0,0,1,2.09411597252,,,2015_Sep_26_1342,K,facesParametric,77,59.6541900689,
./stim/MorphF6_03_orig.jpg,137,,,,,0,137,137,137,,,,,,,,,,,,,,,,,,,-4.04296875,-2.2265625,1,0,0,2.72896981239,,,2015_Sep_26_1342,K,facesParametric,77,59.6541900689,
./stim/MorphM4_04_orig.jpg,138,,,,,0,138,138,138,,,,,,,,,,,,,,,,,,,-4.04296875,-2.2265625,0,0,1,1.52220511436,,,2015_Sep_26_1342,K,facesParametric,77,59.6541900689,
./stim/MorphF5_00_orig.jpg,139,,,,,0,139,139,139,,,,,,,,,,,,,,,,,,,-4.04296875,-2.2265625,1,0,0,0.887067079544,,,2015_Sep_26_1342,K,facesParametric,77,59.6541900689,
./stim/MorphM6_07_orig.jpg,140,,,,,0,140,140,140,,,,,,,,,,,,,,,,,,,-4.04296875,-2.2265625,0,0,1,2.46280789375,,,2015_Sep_26_1342,K,facesParametric,77,59.6541900689,
./stim/MorphM1_00_orig.jpg,141,,,,,0,141,141,141,,,,,,,,,,,,,,,,,,,-4.04296875,-2.2265625,1,0,0,1.02182602882,,,2015_Sep_26_1342,K,facesParametric,77,59.6541900689,
./stim/MorphF1_03_orig.jpg,142,,,,,0,142,142,142,,,,,,,,,,,,,,,,,,,-4.04296875,-2.2265625,1,0,0,1.40685606003,,,2015_Sep_26_1342,K,facesParametric,77,59.6541900689,
./stim/MorphM2_04_orig.jpg,143,,,,,0,143,143,143,,,,,,,,,,,,,,,,,,,-4.04296875,-2.2265625,1,0,0,1.55390000343,,,2015_Sep_26_1342,K,facesParametric,77,59.6541900689,
./stim/MorphF9_08_orig.jpg,144,,,,,0,144,144,144,,,,,,,,,,,,,,,,,,,-4.04296875,-2.2265625,0,0,1,5.2787091732,,,2015_Sep_26_1342,K,facesParametric,77,59.6541900689,
./stim/MorphF1_09_orig.jpg,145,,,,,0,145,145,145,,,,,,,,,,,,,,,,,,,-4.04296875,-2.2265625,0,0,1,2.2607588768,,,2015_Sep_26_1342,K,facesParametric,77,59.6541900689,
./stim/MorphM3_10_orig.jpg,146,,,,,0,146,146,146,,,,,,,,,,,,,,,,,,,-4.04296875,-2.2265625,0,0,1,0.835349082947,,,2015_Sep_26_1342,K,facesParametric,77,59.6541900689,
./stim/MorphF2_02_orig.jpg,147,,,,,0,147,147,147,,,,,,,,,,,,,,,,,,,-4.04296875,-2.2265625,1,0,0,1.07121801376,,,2015_Sep_26_1342,K,facesParametric,77,59.6541900689,
./stim/MorphM7_03_orig.jpg,148,,,,,0,148,148,148,,,,,,,,,,,,,,,,,,,-4.04296875,-2.2265625,1,0,0,1.17265892029,,,2015_Sep_26_1342,K,facesParametric,77,59.6541900689,
./stim/MorphM8_06_orig.jpg,149,,,,,0,149,149,149,,,,,,,,,,,,,,,,,,,-4.04296875,-2.2265625,0,0,1,0.951531887054,,,2015_Sep_26_1342,K,facesParametric,77,59.6541900689,
./stim/MorphM7_00_orig.jpg,150,,,,,0,150,150,150,,,,,,,,,,,,,,,,,,,-4.04296875,-2.2265625,1,0,0,1.47304010391,,,2015_Sep_26_1342,K,facesParametric,77,59.6541900689,
./stim/MorphF1_08_orig.jpg,151,,,,,0,151,151,151,,,,,,,,,,,,,,,,,,,-4.04296875,-2.2265625,1,0,0,1.38961482048,,,2015_Sep_26_1342,K,facesParametric,77,59.6541900689,
./stim/MorphM9_00_orig.jpg,152,,,,,0,152,152,152,,,,,,,,,,,,,,,,,,,-4.04296875,-2.2265625,1,0,0,0.953891038895,,,2015_Sep_26_1342,K,facesParametric,77,59.6541900689,
./stim/MorphF8_03_orig.jpg,153,,,,,0,153,153,153,,,,,,,,,,,,,,,,,,,-4.04296875,-2.2265625,1,0,0,0.835251092911,,,2015_Sep_26_1342,K,facesParametric,77,59.6541900689,
./stim/MorphM2_08_orig.jpg,154,,,,,0,154,154,154,,,,,,,,,,,,,,,,,,,-4.04296875,-2.2265625,0,0,1,1.6087269783,,,2015_Sep_26_1342,K,facesParametric,77,59.6541900689,
./stim/MorphF1_00_orig.jpg,155,,,,,0,155,155,155,,,,,,,,,,,,,,,,,,,-4.04296875,-2.2265625,1,0,0,1.05256891251,,,2015_Sep_26_1342,K,facesParametric,77,59.6541900689,
./stim/MorphF5_09_orig.jpg,156,,,,,0,156,156,156,,,,,,,,,,,,,,,,,,,-4.04296875,-2.2265625,0,0,1,0.834177970886,,,2015_Sep_26_1342,K,facesParametric,77,59.6541900689,
./stim/MorphM7_01_orig.jpg,157,,,,,0,157,157,157,,,,,,,,,,,,,,,,,,,-4.04296875,-2.2265625,1,0,0,1.32294607162,,,2015_Sep_26_1342,K,facesParametric,77,59.6541900689,
./stim/MorphF9_05_orig.jpg,158,,,,,0,158,158,158,,,,,,,,,,,,,,,,,,,-4.04296875,-2.2265625,1,0,0,1.35593509674,,,2015_Sep_26_1342,K,facesParametric,77,59.6541900689,
./stim/MorphM1_09_orig.jpg,159,,,,,0,159,159,159,,,,,,,,,,,,,,,,,,,-4.04296875,-2.2265625,0,0,1,2.00994586945,,,2015_Sep_26_1342,K,facesParametric,77,59.6541900689,
./stim/MorphF3_10_orig.jpg,160,,,,,0,160,160,160,,,,,,,,,,,,,,,,,,,-4.04296875,-2.2265625,0,0,1,1.1550450325,,,2015_Sep_26_1342,K,facesParametric,77,59.6541900689,
./stim/MorphM8_09_orig.jpg,161,,,,,0,161,161,161,,,,,,,,,,,,,,,,,,,-4.072265625,-2.197265625,0,0,1,0.837007045746,,,2015_Sep_26_1342,K,facesParametric,77,59.6541900689,
./stim/MorphF7_06_orig.jpg,162,,,,,0,162,162,162,,,,,,,,,,,,,,,,,,,-4.072265625,-2.197265625,0,0,1,0.98555803299,,,2015_Sep_26_1342,K,facesParametric,77,59.6541900689,
./stim/MorphM2_10_orig.jpg,163,,,,,0,163,163,163,,,,,,,,,,,,,,,,,,,-4.072265625,-2.197265625,0,0,1,1.6745839119,,,2015_Sep_26_1342,K,facesParametric,77,59.6541900689,
./stim/MorphF4_06_orig.jpg,164,,,,,0,164,164,164,,,,,,,,,,,,,,,,,,,-4.072265625,-2.197265625,1,0,0,0.953888893127,,,2015_Sep_26_1342,K,facesParametric,77,59.6541900689,
./stim/MorphM4_10_orig.jpg,165,,,,,0,165,165,165,,,,,,,,,,,,,,,,,,,-4.072265625,-2.197265625,0,0,1,0.76785492897,,,2015_Sep_26_1342,K,facesParametric,77,59.6541900689,
./stim/MorphM3_05_orig.jpg,166,,,,,0,166,166,166,,,,,,,,,,,,,,,,,,,-4.072265625,-2.197265625,0,0,1,0.819240093231,,,2015_Sep_26_1342,K,facesParametric,77,59.6541900689,
./stim/MorphM8_00_orig.jpg,167,,,,,0,167,167,167,,,,,,,,,,,,,,,,,,,-4.072265625,-2.197265625,1,0,0,0.934727907181,,,2015_Sep_26_1342,K,facesParametric,77,59.6541900689,
./stim/MorphM9_01_orig.jpg,168,,,,,0,168,168,168,,,,,,,,,,,,,,,,,,,-4.013671875,-2.255859375,1,0,0,0.752801179886,,,2015_Sep_26_1342,K,facesParametric,77,59.6541900689,
./stim/MorphF3_04_orig.jpg,169,,,,,0,169,169,169,,,,,,,,,,,,,,,,,,,-4.013671875,-2.255859375,1,0,0,1.12169289589,,,2015_Sep_26_1342,K,facesParametric,77,59.6541900689,
./stim/MorphM5_01_orig.jpg,170,,,,,0,170,170,170,,,,,,,,,,,,,,,,,,,-4.013671875,-2.255859375,1,0,0,1.20454502106,,,2015_Sep_26_1342,K,facesParametric,77,59.6541900689,
./stim/MorphF7_10_orig.jpg,171,,,,,0,171,171,171,,,,,,,,,,,,,,,,,,,-4.04296875,-2.28515625,0,0,1,0.853248119354,,,2015_Sep_26_1342,K,facesParametric,77,59.6541900689,
./stim/MorphF3_01_orig.jpg,172,,,,,0,172,172,172,,,,,,,,,,,,,,,,,,,-4.072265625,-2.28515625,1,0,0,1.1223051548,,,2015_Sep_26_1342,K,facesParametric,77,59.6541900689,
./stim/MorphF8_02_orig.jpg,173,,,,,0,173,173,173,,,,,,,,,,,,,,,,,,,-4.1015625,-2.255859375,1,0,0,1.01885294914,,,2015_Sep_26_1342,K,facesParametric,77,59.6541900689,
./stim/MorphF9_01_orig.jpg,174,,,,,0,174,174,174,,,,,,,,,,,,,,,,,,,-4.1015625,-2.255859375,1,0,0,1.07115793228,,,2015_Sep_26_1342,K,facesParametric,77,59.6541900689,
./stim/MorphF1_04_orig.jpg,175,,,,,0,175,175,175,,,,,,,,,,,,,,,,,,,-4.1015625,-2.255859375,1,0,0,1.45718884468,,,2015_Sep_26_1342,K,facesParametric,77,59.6541900689,
./stim/MorphF7_03_orig.jpg,176,,,,,0,176,176,176,,,,,,,,,,,,,,,,,,,-4.1015625,-2.255859375,1,0,0,1.52353906631,,,2015_Sep_26_1342,K,facesParametric,77,59.6541900689,
./stim/MorphF4_03_orig.jpg,177,,,,,0,177,177,177,,,,,,,,,,,,,,,,,,,-4.1015625,-2.255859375,1,0,0,1.40614199638,,,2015_Sep_26_1342,K,facesParametric,77,59.6541900689,
./stim/MorphF3_05_orig.jpg,178,,,,,0,178,178,178,,,,,,,,,,,,,,,,,,,-4.1015625,-2.255859375,0,0,1,2.12697196007,,,2015_Sep_26_1342,K,facesParametric,77,59.6541900689,
./stim/MorphF8_00_orig.jpg,179,,,,,0,179,179,179,,,,,,,,,,,,,,,,,,,-4.1015625,-2.255859375,1,0,0,1.82596087456,,,2015_Sep_26_1342,K,facesParametric,77,59.6541900689,
./stim/MorphF2_05_orig.jpg,180,,,,,0,180,180,180,,,,,,,,,,,,,,,,,,,-4.1015625,-2.255859375,0,0,1,1.20516109467,,,2015_Sep_26_1342,K,facesParametric,77,59.6541900689,
./stim/MorphF7_05_orig.jpg,181,,,,,0,181,181,181,,,,,,,,,,,,,,,,,,,-4.1015625,-2.255859375,1,0,0,1.18677806854,,,2015_Sep_26_1342,K,facesParametric,77,59.6541900689,
./stim/MorphF2_06_orig.jpg,182,,,,,0,182,182,182,,,,,,,,,,,,,,,,,,,-4.1015625,-2.255859375,0,0,1,1.40689516068,,,2015_Sep_26_1342,K,facesParametric,77,59.6541900689,
./stim/MorphM10_09_orig.jpg,183,,,,,0,183,183,183,,,,,,,,,,,,,,,,,,,-4.1015625,-2.255859375,0,0,1,1.03775501251,,,2015_Sep_26_1342,K,facesParametric,77,59.6541900689,
./stim/MorphM6_01_orig.jpg,184,,,,,0,184,184,184,,,,,,,,,,,,,,,,,,,-4.1015625,-2.255859375,1,0,0,0.937736988068,,,2015_Sep_26_1342,K,facesParametric,77,59.6541900689,
./stim/MorphF2_08_orig.jpg,185,,,,,0,185,185,185,,,,,,,,,,,,,,,,,,,-4.1015625,-2.255859375,0,0,1,1.25395607948,,,2015_Sep_26_1342,K,facesParametric,77,59.6541900689,
./stim/MorphF10_04_orig.jpg,186,,,,,0,186,186,186,,,,,,,,,,,,,,,,,,,-4.1015625,-2.255859375,1,0,0,1.77542209625,,,2015_Sep_26_1342,K,facesParametric,77,59.6541900689,
./stim/MorphF5_03_orig.jpg,187,,,,,0,187,187,187,,,,,,,,,,,,,,,,,,,-4.1015625,-2.255859375,1,0,0,1.4903459549,,,2015_Sep_26_1342,K,facesParametric,77,59.6541900689,
./stim/MorphF8_08_orig.jpg,188,,,,,0,188,188,188,,,,,,,,,,,,,,,,,,,-4.072265625,-2.255859375,0,0,1,0.953950881958,,,2015_Sep_26_1342,K,facesParametric,77,59.6541900689,
./stim/MorphF3_07_orig.jpg,189,,,,,0,189,189,189,,,,,,,,,,,,,,,,,,,-4.04296875,-2.28515625,0,0,1,0.901594877243,,,2015_Sep_26_1342,K,facesParametric,77,59.6541900689,
./stim/MorphF4_07_orig.jpg,190,,,,,0,190,190,190,,,,,,,,,,,,,,,,,,,-4.04296875,-2.28515625,0,0,1,0.803436040878,,,2015_Sep_26_1342,K,facesParametric,77,59.6541900689,
./stim/MorphF5_02_orig.jpg,191,,,,,0,191,191,191,,,,,,,,,,,,,,,,,,,-4.04296875,-2.28515625,1,0,0,0.836865901947,,,2015_Sep_26_1342,K,facesParametric,77,59.6541900689,
./stim/MorphM1_01_orig.jpg,192,,,,,0,192,192,192,,,,,,,,,,,,,,,,,,,-4.04296875,-2.28515625,1,0,0,1.05394911766,,,2015_Sep_26_1342,K,facesParametric,77,59.6541900689,
./stim/MorphF1_01_orig.jpg,193,,,,,0,193,193,193,,,,,,,,,,,,,,,,,,,-4.013671875,-2.314453125,1,0,0,1.17030000687,,,2015_Sep_26_1342,K,facesParametric,77,59.6541900689,
./stim/MorphM4_07_orig.jpg,194,,,,,0,194,194,194,,,,,,,,,,,,,,,,,,,-4.013671875,-2.314453125,0,0,1,0.887091159821,,,2015_Sep_26_1342,K,facesParametric,77,59.6541900689,
./stim/MorphM3_09_orig.jpg,195,,,,,0,195,195,195,,,,,,,,,,,,,,,,,,,-4.013671875,-2.314453125,0,0,1,0.68571805954,,,2015_Sep_26_1342,K,facesParametric,77,59.6541900689,
./stim/MorphM5_02_orig.jpg,196,,,,,0,196,196,196,,,,,,,,,,,,,,,,,,,-4.013671875,-2.314453125,1,0,0,2.46154689789,,,2015_Sep_26_1342,K,facesParametric,77,59.6541900689,
./stim/MorphM10_05_orig.jpg,197,,,,,0,197,197,197,,,,,,,,,,,,,,,,,,,-4.013671875,-2.314453125,0,0,1,0.769145965576,,,2015_Sep_26_1342,K,facesParametric,77,59.6541900689,
./stim/MorphF10_02_orig.jpg,198,,,,,0,198,198,198,,,,,,,,,,,,,,,,,,,-4.013671875,-2.314453125,1,0,0,1.99340510368,,,2015_Sep_26_1342,K,facesParametric,77,59.6541900689,
./stim/MorphF1_05_orig.jpg,199,,,,,0,199,199,199,,,,,,,,,,,,,,,,,,,-4.013671875,-2.314453125,1,0,0,1.20505690575,,,2015_Sep_26_1342,K,facesParametric,77,59.6541900689,
./stim/MorphM4_05_orig.jpg,200,,,,,0,200,200,200,,,,,,,,,,,,,,,,,,,-4.013671875,-2.314453125,1,0,0,1.43922686577,,,2015_Sep_26_1342,K,facesParametric,77,59.6541900689,
./stim/MorphM10_07_orig.jpg,201,,,,,0,201,201,201,,,,,,,,,,,,,,,,,,,-4.013671875,-2.314453125,0,0,1,0.971185922623,,,2015_Sep_26_1342,K,facesParametric,77,59.6541900689,
./stim/MorphF6_06_orig.jpg,202,,,,,0,202,202,202,,,,,,,,,,,,,,,,,,,-4.013671875,-2.314453125,0,0,1,1.3728351593,,,2015_Sep_26_1342,K,facesParametric,77,59.6541900689,
./stim/MorphF10_10_orig.jpg,203,,,,,0,203,203,203,,,,,,,,,,,,,,,,,,,-4.013671875,-2.314453125,0,0,1,1.27179479599,,,2015_Sep_26_1342,K,facesParametric,77,59.6541900689,
./stim/MorphM10_08_orig.jpg,204,,,,,0,204,204,204,,,,,,,,,,,,,,,,,,,-4.013671875,-2.314453125,0,0,1,0.685567140579,,,2015_Sep_26_1342,K,facesParametric,77,59.6541900689,
./stim/MorphM7_09_orig.jpg,205,,,,,0,205,205,205,,,,,,,,,,,,,,,,,,,-4.013671875,-2.314453125,0,0,1,0.818310022354,,,2015_Sep_26_1342,K,facesParametric,77,59.6541900689,
./stim/MorphM6_06_orig.jpg,206,,,,,0,206,206,206,,,,,,,,,,,,,,,,,,,-4.013671875,-2.314453125,1,0,0,1.32287216187,,,2015_Sep_26_1342,K,facesParametric,77,59.6541900689,
./stim/MorphF3_03_orig.jpg,207,,,,,0,207,207,207,,,,,,,,,,,,,,,,,,,-4.072265625,-2.34375,1,0,0,1.13809800148,,,2015_Sep_26_1342,K,facesParametric,77,59.6541900689,
./stim/MorphM5_10_orig.jpg,208,,,,,0,208,208,208,,,,,,,,,,,,,,,,,,,-4.072265625,-2.34375,0,0,1,0.953615188599,,,2015_Sep_26_1342,K,facesParametric,77,59.6541900689,
./stim/MorphF3_02_orig.jpg,209,,,,,0,209,209,209,,,,,,,,,,,,,,,,,,,-4.072265625,-2.34375,1,0,0,0.986972093582,,,2015_Sep_26_1342,K,facesParametric,77,59.6541900689,
./stim/MorphF9_04_orig.jpg,210,,,,,0,210,210,210,,,,,,,,,,,,,,,,,,,-4.072265625,-2.34375,1,0,0,1.6247959137,,,2015_Sep_26_1342,K,facesParametric,77,59.6541900689,
./stim/MorphM5_06_orig.jpg,211,,,,,0,211,211,211,,,,,,,,,,,,,,,,,,,-4.072265625,-2.34375,1,0,0,2.49464797974,,,2015_Sep_26_1342,K,facesParametric,77,59.6541900689,
./stim/MorphF4_04_orig.jpg,212,,,,,0,212,212,212,,,,,,,,,,,,,,,,,,,-4.072265625,-2.34375,1,0,0,1.33753204346,,,2015_Sep_26_1342,K,facesParametric,77,59.6541900689,
./stim/MorphM3_01_orig.jpg,213,,,,,0,213,213,213,,,,,,,,,,,,,,,,,,,-4.072265625,-2.34375,1,0,0,0.920480012894,,,2015_Sep_26_1342,K,facesParametric,77,59.6541900689,
./stim/MorphM9_07_orig.jpg,214,,,,,0,214,214,214,,,,,,,,,,,,,,,,,,,-4.072265625,-2.34375,0,0,1,1.33973121643,,,2015_Sep_26_1342,K,facesParametric,77,59.6541900689,
./stim/MorphM2_07_orig.jpg,215,,,,,0,215,215,215,,,,,,,,,,,,,,,,,,,-4.072265625,-2.34375,1,0,0,2.09339380264,,,2015_Sep_26_1342,K,facesParametric,77,59.6541900689,
./stim/MorphM1_02_orig.jpg,216,,,,,0,216,216,216,,,,,,,,,,,,,,,,,,,-4.072265625,-2.34375,1,0,0,2.32840013504,,,2015_Sep_26_1342,K,facesParametric,77,59.6541900689,
./stim/MorphM7_07_orig.jpg,217,,,,,0,217,217,217,,,,,,,,,,,,,,,,,,,-4.072265625,-2.34375,0,0,1,0.650609970093,,,2015_Sep_26_1342,K,facesParametric,77,59.6541900689,
./stim/MorphM9_06_orig.jpg,218,,,,,0,218,218,218,,,,,,,,,,,,,,,,,,,-4.072265625,-2.34375,1,0,0,0.886686086655,,,2015_Sep_26_1342,K,facesParametric,77,59.6541900689,
./stim/MorphM6_10_orig.jpg,219,,,,,0,219,219,219,,,,,,,,,,,,,,,,,,,-4.072265625,-2.34375,1,0,0,1.44028687477,,,2015_Sep_26_1342,K,facesParametric,77,59.6541900689,
,,,,,,,,,,,,,,,,,,,,,,,,,,,,,,,,,,return,12.1341779232,2015_Sep_26_1342,K,facesParametric,77,59.6541900689,
./stim/MorphM3_10_orig.jpg,0,,,,,,,,,0,0,0,0,,,,,,,,,,,,,,,-6.15234375,-3.6328125,0,0,1,8.1864669323,,,2015_Sep_26_1342,K,facesParametric,77,59.6541900689,
./stim/MorphM8_03_orig.jpg,1,,,,,,,,,0,1,1,1,,,,,,,,,,,,,,,-6.181640625,-3.662109375,1,0,0,1.52305388451,,,2015_Sep_26_1342,K,facesParametric,77,59.6541900689,
./stim/MorphF1_01_orig.jpg,2,,,,,,,,,0,2,2,2,,,,,,,,,,,,,,,-13.505859375,-3.10546875,1,0,0,16.540982008,,,2015_Sep_26_1342,K,facesParametric,77,59.6541900689,
./stim/MorphF10_08_orig.jpg,3,,,,,,,,,0,3,3,3,,,,,,,,,,,,,,,-12.626953125,-2.490234375,0,0,1,0.868868112564,,,2015_Sep_26_1342,K,facesParametric,77,59.6541900689,
./stim/MorphF8_05_orig.jpg,4,,,,,,,,,0,4,4,4,,,,,,,,,,,,,,,-12.1875,-2.314453125,0,0,1,2.24437999725,,,2015_Sep_26_1342,K,facesParametric,77,59.6541900689,
./stim/MorphM7_03_orig.jpg,5,,,,,,,,,0,5,5,5,,,,,,,,,,,,,,,-11.77734375,-2.548828125,1,0,0,1.33917188644,,,2015_Sep_26_1342,K,facesParametric,77,59.6541900689,
./stim/MorphF8_03_orig.jpg,6,,,,,,,,,0,6,6,6,,,,,,,,,,,,,,,-11.77734375,-2.578125,1,0,0,1.12189888954,,,2015_Sep_26_1342,K,facesParametric,77,59.6541900689,
./stim/MorphF7_00_orig.jpg,7,,,,,,,,,0,7,7,7,,,,,,,,,,,,,,,-11.953125,-2.431640625,1,0,0,1.03795409203,,,2015_Sep_26_1342,K,facesParametric,77,59.6541900689,
./stim/MorphF2_05_orig.jpg,8,,,,,,,,,0,8,8,8,,,,,,,,,,,,,,,-11.953125,-2.373046875,0,0,1,0.95228600502,,,2015_Sep_26_1342,K,facesParametric,77,59.6541900689,
./stim/MorphF6_01_orig.jpg,9,,,,,,,,,0,9,9,9,,,,,,,,,,,,,,,-11.89453125,-2.548828125,1,0,0,1.96014618874,,,2015_Sep_26_1342,K,facesParametric,77,59.6541900689,
./stim/MorphF5_03_orig.jpg,10,,,,,,,,,0,10,10,10,,,,,,,,,,,,,,,-11.982421875,-2.51953125,1,0,0,1.92504501343,,,2015_Sep_26_1342,K,facesParametric,77,59.6541900689,
./stim/MorphM6_08_orig.jpg,11,,,,,,,,,0,11,11,11,,,,,,,,,,,,,,,-11.953125,-2.578125,0,0,1,4.3384308815,,,2015_Sep_26_1342,K,facesParametric,77,59.6541900689,
./stim/MorphF7_01_orig.jpg,12,,,,,,,,,0,12,12,12,,,,,,,,,,,,,,,-12.0703125,-2.666015625,1,0,0,0.986520051956,,,2015_Sep_26_1342,K,facesParametric,77,59.6541900689,
./stim/MorphM6_02_orig.jpg,13,,,,,,,,,0,13,13,13,,,,,,,,,,,,,,,-12.1875,-2.6953125,1,0,0,2.24441099167,,,2015_Sep_26_1342,K,facesParametric,77,59.6541900689,
./stim/MorphM10_01_orig.jpg,14,,,,,,,,,0,14,14,14,,,,,,,,,,,,,,,-12.7734375,-2.51953125,1,0,0,16.4567270279,,,2015_Sep_26_1342,K,facesParametric,77,59.6541900689,
./stim/MorphF3_00_orig.jpg,15,,,,,,,,,0,15,15,15,,,,,,,,,,,,,,,-12.7734375,-2.490234375,1,0,0,1.15513110161,,,2015_Sep_26_1342,K,facesParametric,77,59.6541900689,
./stim/MorphM2_05_orig.jpg,16,,,,,,,,,0,16,16,16,,,,,,,,,,,,,,,-12.392578125,-2.578125,1,0,0,4.03801894188,,,2015_Sep_26_1342,K,facesParametric,77,59.6541900689,
./stim/MorphF5_04_orig.jpg,17,,,,,,,,,0,17,17,17,,,,,,,,,,,,,,,-12.333984375,-2.578125,1,0,0,1.32090687752,,,2015_Sep_26_1342,K,facesParametric,77,59.6541900689,
./stim/MorphM8_04_orig.jpg,18,,,,,,,,,0,18,18,18,,,,,,,,,,,,,,,-12.36328125,-2.578125,1,0,0,4.97426605225,,,2015_Sep_26_1342,K,facesParametric,77,59.6541900689,
./stim/MorphM9_07_orig.jpg,19,,,,,,,,,0,19,19,19,,,,,,,,,,,,,,,-12.421875,-2.548828125,0,0,1,0.987453937531,,,2015_Sep_26_1342,K,facesParametric,77,59.6541900689,
./stim/MorphF3_04_orig.jpg,20,,,,,,,,,0,20,20,20,,,,,,,,,,,,,,,-12.48046875,-2.578125,1,0,0,6.98723196983,,,2015_Sep_26_1342,K,facesParametric,77,59.6541900689,
./stim/MorphM5_07_orig.jpg,21,,,,,,,,,0,21,21,21,,,,,,,,,,,,,,,-12.451171875,-2.607421875,0,0,1,1.40624213219,,,2015_Sep_26_1342,K,facesParametric,77,59.6541900689,
./stim/MorphF4_02_orig.jpg,22,,,,,,,,,0,22,22,22,,,,,,,,,,,,,,,-12.333984375,-2.75390625,1,0,0,1.20537495613,,,2015_Sep_26_1342,K,facesParametric,77,59.6541900689,
./stim/MorphF8_02_orig.jpg,23,,,,,,,,,0,23,23,23,,,,,,,,,,,,,,,-12.333984375,-2.75390625,1,0,0,1.84357595444,,,2015_Sep_26_1342,K,facesParametric,77,59.6541900689,
./stim/MorphM8_05_orig.jpg,24,,,,,,,,,0,24,24,24,,,,,,,,,,,,,,,-13.095703125,-2.6953125,1,0,0,23.896914959,,,2015_Sep_26_1342,K,facesParametric,77,59.6541900689,
./stim/MorphM4_09_orig.jpg,25,,,,,,,,,0,25,25,25,,,,,,,,,,,,,,,-13.037109375,-2.6953125,0,0,1,0.786885976791,,,2015_Sep_26_1342,K,facesParametric,77,59.6541900689,
./stim/MorphF3_08_orig.jpg,26,,,,,,,,,0,26,26,26,,,,,,,,,,,,,,,-13.095703125,-2.666015625,0,0,1,1.37285590172,,,2015_Sep_26_1342,K,facesParametric,77,59.6541900689,
./stim/MorphM2_01_orig.jpg,27,,,,,,,,,0,27,27,27,,,,,,,,,,,,,,,-13.53515625,-2.607421875,1,0,0,0.92055106163,,,2015_Sep_26_1342,K,facesParametric,77,59.6541900689,
./stim/MorphM7_09_orig.jpg,28,,,,,,,,,0,28,28,28,,,,,,,,,,,,,,,-13.505859375,-2.578125,0,0,1,0.904592990875,,,2015_Sep_26_1342,K,facesParametric,77,59.6541900689,
./stim/MorphM1_03_orig.jpg,29,,,,,,,,,0,29,29,29,,,,,,,,,,,,,,,-13.4765625,-2.548828125,1,0,0,1.30443882942,,,2015_Sep_26_1342,K,facesParametric,77,59.6541900689,
./stim/MorphM10_07_orig.jpg,30,,,,,,,,,0,30,30,30,,,,,,,,,,,,,,,-13.447265625,-2.51953125,0,0,1,1.17228603363,,,2015_Sep_26_1342,K,facesParametric,77,59.6541900689,
./stim/MorphM1_10_orig.jpg,31,,,,,,,,,0,31,31,31,,,,,,,,,,,,,,,-13.4765625,-2.490234375,0,0,1,1.13833498955,,,2015_Sep_26_1342,K,facesParametric,77,59.6541900689,
./stim/MorphF10_07_orig.jpg,32,,,,,,,,,0,32,32,32,,,,,,,,,,,,,,,-13.505859375,-2.4609375,0,0,1,0.970370054245,,,2015_Sep_26_1342,K,facesParametric,77,59.6541900689,
./stim/MorphM6_04_orig.jpg,33,,,,,,,,,0,33,33,33,,,,,,,,,,,,,,,-13.505859375,-2.4609375,1,0,0,0.9041659832,,,2015_Sep_26_1342,K,facesParametric,77,59.6541900689,
./stim/MorphM3_03_orig.jpg,34,,,,,,,,,0,34,34,34,,,,,,,,,,,,,,,-13.388671875,-2.373046875,1,0,0,1.94288110733,,,2015_Sep_26_1342,K,facesParametric,77,59.6541900689,
./stim/MorphM6_09_orig.jpg,35,,,,,,,,,0,35,35,35,,,,,,,,,,,,,,,-13.359375,-2.28515625,0,0,1,1.08783006668,,,2015_Sep_26_1342,K,facesParametric,77,59.6541900689,
./stim/MorphM5_00_orig.jpg,36,,,,,,,,,0,36,36,36,,,,,,,,,,,,,,,-13.359375,-2.28515625,1,0,0,1.03587007523,,,2015_Sep_26_1342,K,facesParametric,77,59.6541900689,
./stim/MorphF5_09_orig.jpg,37,,,,,,,,,0,37,37,37,,,,,,,,,,,,,,,-13.330078125,-2.28515625,0,0,1,0.80135512352,,,2015_Sep_26_1342,K,facesParametric,77,59.6541900689,
./stim/MorphM9_09_orig.jpg,38,,,,,,,,,0,38,38,38,,,,,,,,,,,,,,,-13.30078125,-2.255859375,0,0,1,0.718786001205,,,2015_Sep_26_1342,K,facesParametric,77,59.6541900689,
./stim/MorphF4_03_orig.jpg,39,,,,,,,,,0,39,39,39,,,,,,,,,,,,,,,-13.30078125,-2.255859375,1,0,0,0.886541843414,,,2015_Sep_26_1342,K,facesParametric,77,59.6541900689,
./stim/MorphF6_02_orig.jpg,40,,,,,,,,,0,40,40,40,,,,,,,,,,,,,,,-13.271484375,-2.255859375,1,0,0,1.08837199211,,,2015_Sep_26_1342,K,facesParametric,77,59.6541900689,
./stim/MorphM5_06_orig.jpg,41,,,,,,,,,0,41,41,41,,,,,,,,,,,,,,,-13.359375,-2.2265625,1,0,0,2.39530801773,,,2015_Sep_26_1342,K,facesParametric,77,59.6541900689,
./stim/MorphM1_02_orig.jpg,42,,,,,,,,,0,42,42,42,,,,,,,,,,,,,,,-13.41796875,-2.16796875,1,0,0,0.937191009521,,,2015_Sep_26_1342,K,facesParametric,77,59.6541900689,
./stim/MorphF8_09_orig.jpg,43,,,,,,,,,0,43,43,43,,,,,,,,,,,,,,,-13.41796875,-2.16796875,0,0,1,0.786466836929,,,2015_Sep_26_1342,K,facesParametric,77,59.6541900689,
./stim/MorphM7_01_orig.jpg,44,,,,,,,,,0,44,44,44,,,,,,,,,,,,,,,-13.447265625,-2.197265625,1,0,0,1.65856194496,,,2015_Sep_26_1342,K,facesParametric,77,59.6541900689,
./stim/MorphM10_06_orig.jpg,45,,,,,,,,,0,45,45,45,,,,,,,,,,,,,,,-13.41796875,-2.197265625,0,0,1,0.666142940521,,,2015_Sep_26_1342,K,facesParametric,77,59.6541900689,
./stim/MorphF8_04_orig.jpg,46,,,,,,,,,0,46,46,46,,,,,,,,,,,,,,,-13.447265625,-2.16796875,1,0,0,0.937494039536,,,2015_Sep_26_1342,K,facesParametric,77,59.6541900689,
./stim/MorphM7_00_orig.jpg,47,,,,,,,,,0,47,47,47,,,,,,,,,,,,,,,-13.447265625,-2.16796875,1,0,0,1.28866100311,,,2015_Sep_26_1342,K,facesParametric,77,59.6541900689,
./stim/MorphF9_10_orig.jpg,48,,,,,,,,,0,48,48,48,,,,,,,,,,,,,,,-13.388671875,-2.080078125,0,0,1,0.836534976959,,,2015_Sep_26_1342,K,facesParametric,77,59.6541900689,
./stim/MorphM3_08_orig.jpg,49,,,,,,,,,0,49,49,49,,,,,,,,,,,,,,,-13.388671875,-2.080078125,0,0,1,0.937541007996,,,2015_Sep_26_1342,K,facesParametric,77,59.6541900689,
./stim/MorphF9_09_orig.jpg,50,,,,,,,,,0,50,50,50,,,,,,,,,,,,,,,-13.330078125,-2.080078125,0,0,1,1.1193420887,,,2015_Sep_26_1342,K,facesParametric,77,59.6541900689,
./stim/MorphF8_06_orig.jpg,51,,,,,,,,,0,51,51,51,,,,,,,,,,,,,,,-13.359375,-2.109375,1,0,0,2.46253395081,,,2015_Sep_26_1342,K,facesParametric,77,59.6541900689,
./stim/MorphM1_04_orig.jpg,52,,,,,,,,,0,52,52,52,,,,,,,,,,,,,,,-13.388671875,-2.080078125,1,0,0,1.07071399689,,,2015_Sep_26_1342,K,facesParametric,77,59.6541900689,
./stim/MorphF6_03_orig.jpg,53,,,,,,,,,0,53,53,53,,,,,,,,,,,,,,,-13.359375,-2.080078125,1,0,0,1.18833589554,,,2015_Sep_26_1342,K,facesParametric,77,59.6541900689,
./stim/MorphF2_02_orig.jpg,54,,,,,,,,,0,54,54,54,,,,,,,,,,,,,,,-13.4765625,-2.021484375,1,0,0,2.68060207367,,,2015_Sep_26_1342,K,facesParametric,77,59.6541900689,
./stim/MorphM3_07_orig.jpg,55,,,,,,,,,0,55,55,55,,,,,,,,,,,,,,,-13.447265625,-1.9921875,0,0,1,1.00380301476,,,2015_Sep_26_1342,K,facesParametric,77,59.6541900689,
./stim/MorphM4_03_orig.jpg,56,,,,,,,,,0,56,56,56,,,,,,,,,,,,,,,-13.4765625,-2.021484375,1,0,0,1.45701980591,,,2015_Sep_26_1342,K,facesParametric,77,59.6541900689,
./stim/MorphF9_04_orig.jpg,57,,,,,,,,,0,57,57,57,,,,,,,,,,,,,,,-13.4765625,-2.021484375,1,0,0,1.05456089973,,,2015_Sep_26_1342,K,facesParametric,77,59.6541900689,
./stim/MorphF5_08_orig.jpg,58,,,,,,,,,0,58,58,58,,,,,,,,,,,,,,,-13.4765625,-2.021484375,0,0,1,0.719591140747,,,2015_Sep_26_1342,K,facesParametric,77,59.6541900689,
./stim/MorphM5_01_orig.jpg,59,,,,,,,,,0,59,59,59,,,,,,,,,,,,,,,-13.4765625,-2.021484375,1,0,0,0.937529802322,,,2015_Sep_26_1342,K,facesParametric,77,59.6541900689,
./stim/MorphM4_10_orig.jpg,60,,,,,,,,,0,60,60,60,,,,,,,,,,,,,,,-13.4765625,-2.021484375,0,0,1,0.937042951584,,,2015_Sep_26_1342,K,facesParametric,77,59.6541900689,
./stim/MorphM9_10_orig.jpg,61,,,,,,,,,0,61,61,61,,,,,,,,,,,,,,,-13.4765625,-2.021484375,0,0,1,0.750616073608,,,2015_Sep_26_1342,K,facesParametric,77,59.6541900689,
./stim/MorphM5_04_orig.jpg,62,,,,,,,,,0,62,62,62,,,,,,,,,,,,,,,-13.4765625,-2.021484375,1,0,0,0.820171117783,,,2015_Sep_26_1342,K,facesParametric,77,59.6541900689,
./stim/MorphF7_10_orig.jpg,63,,,,,,,,,0,63,63,63,,,,,,,,,,,,,,,-13.447265625,-1.9921875,0,0,1,0.785493135452,,,2015_Sep_26_1342,K,facesParametric,77,59.6541900689,
./stim/MorphM9_03_orig.jpg,64,,,,,,,,,0,64,64,64,,,,,,,,,,,,,,,-13.447265625,-1.9921875,1,0,0,1.004103899,,,2015_Sep_26_1342,K,facesParametric,77,59.6541900689,
./stim/MorphF9_07_orig.jpg,65,,,,,,,,,0,65,65,65,,,,,,,,,,,,,,,-13.4765625,-1.9921875,1,0,0,1.62476396561,,,2015_Sep_26_1342,K,facesParametric,77,59.6541900689,
./stim/MorphM1_09_orig.jpg,66,,,,,,,,,0,66,66,66,,,,,,,,,,,,,,,-13.505859375,-1.962890625,0,0,1,2.02685594559,,,2015_Sep_26_1342,K,facesParametric,77,59.6541900689,
./stim/MorphM7_07_orig.jpg,67,,,,,,,,,0,67,67,67,,,,,,,,,,,,,,,-13.505859375,-1.962890625,0,0,1,0.786490917206,,,2015_Sep_26_1342,K,facesParametric,77,59.6541900689,
./stim/MorphF3_10_orig.jpg,68,,,,,,,,,0,68,68,68,,,,,,,,,,,,,,,-13.505859375,-1.962890625,0,0,1,0.970700979233,,,2015_Sep_26_1342,K,facesParametric,77,59.6541900689,
./stim/MorphM1_05_orig.jpg,69,,,,,,,,,0,69,69,69,,,,,,,,,,,,,,,-13.505859375,-1.962890625,1,0,0,0.93741106987,,,2015_Sep_26_1342,K,facesParametric,77,59.6541900689,
./stim/MorphF9_06_orig.jpg,70,,,,,,,,,0,70,70,70,,,,,,,,,,,,,,,-13.53515625,-1.9921875,1,0,0,1.20560002327,,,2015_Sep_26_1342,K,facesParametric,77,59.6541900689,
./stim/MorphF10_05_orig.jpg,71,,,,,,,,,0,71,71,71,,,,,,,,,,,,,,,-13.7109375,-1.962890625,1,0,0,6.75267314911,,,2015_Sep_26_1342,K,facesParametric,77,59.6541900689,
./stim/MorphF9_02_orig.jpg,72,,,,,,,,,0,72,72,72,,,,,,,,,,,,,,,-13.59375,-1.962890625,1,0,0,0.836645841599,,,2015_Sep_26_1342,K,facesParametric,77,59.6541900689,
./stim/MorphM10_02_orig.jpg,73,,,,,,,,,0,73,73,73,,,,,,,,,,,,,,,-13.4765625,-1.845703125,1,0,0,1.01931595802,,,2015_Sep_26_1342,K,facesParametric,77,59.6541900689,
./stim/MorphF6_00_orig.jpg,74,,,,,,,,,0,74,74,74,,,,,,,,,,,,,,,-13.59375,-1.845703125,1,0,0,0.920606851578,,,2015_Sep_26_1342,K,facesParametric,77,59.6541900689,
./stim/MorphM4_01_orig.jpg,75,,,,,,,,,0,75,75,75,,,,,,,,,,,,,,,-13.59375,-1.7578125,1,0,0,1.42171001434,,,2015_Sep_26_1342,K,facesParametric,77,59.6541900689,
./stim/MorphM6_05_orig.jpg,76,,,,,,,,,0,76,76,76,,,,,,,,,,,,,,,-13.53515625,-1.69921875,1,0,0,1.82351112366,,,2015_Sep_26_1342,K,facesParametric,77,59.6541900689,
./stim/MorphF3_01_orig.jpg,77,,,,,,,,,0,77,77,77,,,,,,,,,,,,,,,-13.4765625,-1.69921875,1,0,0,1.12019395828,,,2015_Sep_26_1342,K,facesParametric,77,59.6541900689,
./stim/MorphM8_00_orig.jpg,78,,,,,,,,,0,78,78,78,,,,,,,,,,,,,,,-13.4765625,-1.669921875,1,0,0,1.13855099678,,,2015_Sep_26_1342,K,facesParametric,77,59.6541900689,
./stim/MorphF1_05_orig.jpg,79,,,,,,,,,0,79,79,79,,,,,,,,,,,,,,,-13.505859375,-1.640625,1,0,0,1.28983020782,,,2015_Sep_26_1342,K,facesParametric,77,59.6541900689,
./stim/MorphM2_06_orig.jpg,80,,,,,,,,,0,80,80,80,,,,,,,,,,,,,,,-13.505859375,-1.669921875,1,0,0,2.9794049263,,,2015_Sep_26_1342,K,facesParametric,77,59.6541900689,
./stim/MorphF7_05_orig.jpg,81,,,,,,,,,0,81,81,81,,,,,,,,,,,,,,,-13.4765625,-1.669921875,1,0,0,1.94157290459,,,2015_Sep_26_1342,K,facesParametric,77,59.6541900689,
./stim/MorphM8_10_orig.jpg,82,,,,,,,,,0,82,82,82,,,,,,,,,,,,,,,-13.41796875,-1.640625,0,0,1,1.69015598297,,,2015_Sep_26_1342,K,facesParametric,77,59.6541900689,
./stim/MorphM10_09_orig.jpg,83,,,,,,,,,0,83,83,83,,,,,,,,,,,,,,,-13.41796875,-1.640625,0,0,1,0.667125940323,,,2015_Sep_26_1342,K,facesParametric,77,59.6541900689,
./stim/MorphF1_09_orig.jpg,84,,,,,,,,,0,84,84,84,,,,,,,,,,,,,,,-13.41796875,-1.640625,1,0,0,0.753025054932,,,2015_Sep_26_1342,K,facesParametric,77,59.6541900689,
./stim/MorphM1_07_orig.jpg,85,,,,,,,,,0,85,85,85,,,,,,,,,,,,,,,-13.41796875,-1.640625,1,0,0,0.98768901825,,,2015_Sep_26_1342,K,facesParametric,77,59.6541900689,
./stim/MorphF3_05_orig.jpg,86,,,,,,,,,0,86,86,86,,,,,,,,,,,,,,,-13.359375,-1.611328125,1,0,0,2.37844014168,,,2015_Sep_26_1342,K,facesParametric,77,59.6541900689,
./stim/MorphM8_08_orig.jpg,87,,,,,,,,,0,87,87,87,,,,,,,,,,,,,,,-13.359375,-1.611328125,0,0,1,0.903640985489,,,2015_Sep_26_1342,K,facesParametric,77,59.6541900689,
./stim/MorphM4_06_orig.jpg,88,,,,,,,,,0,88,88,88,,,,,,,,,,,,,,,-13.359375,-1.611328125,0,0,1,1.08832597733,,,2015_Sep_26_1342,K,facesParametric,77,59.6541900689,
./stim/MorphM8_09_orig.jpg,89,,,,,,,,,0,89,89,89,,,,,,,,,,,,,,,-13.388671875,-1.58203125,0,0,1,1.62250185013,,,2015_Sep_26_1342,K,facesParametric,77,59.6541900689,
./stim/MorphF5_00_orig.jpg,90,,,,,,,,,0,90,90,90,,,,,,,,,,,,,,,-13.330078125,-1.640625,1,0,0,1.00425601006,,,2015_Sep_26_1342,K,facesParametric,77,59.6541900689,
./stim/MorphF6_10_orig.jpg,91,,,,,,,,,0,91,91,91,,,,,,,,,,,,,,,-13.30078125,-1.669921875,0,0,1,1.18841385841,,,2015_Sep_26_1342,K,facesParametric,77,59.6541900689,
./stim/MorphM10_04_orig.jpg,92,,,,,,,,,0,92,92,92,,,,,,,,,,,,,,,-13.271484375,-1.69921875,1,0,0,2.21079802513,,,2015_Sep_26_1342,K,facesParametric,77,59.6541900689,
./stim/MorphM4_02_orig.jpg,93,,,,,,,,,0,93,93,93,,,,,,,,,,,,,,,-13.271484375,-1.69921875,1,0,0,1.44070577621,,,2015_Sep_26_1342,K,facesParametric,77,59.6541900689,
./stim/MorphM9_01_orig.jpg,94,,,,,,,,,0,94,94,94,,,,,,,,,,,,,,,-13.271484375,-1.69921875,1,0,0,1.10431098938,,,2015_Sep_26_1342,K,facesParametric,77,59.6541900689,
./stim/MorphF4_00_orig.jpg,95,,,,,,,,,0,95,95,95,,,,,,,,,,,,,,,-13.212890625,-1.669921875,1,0,0,0.75287103653,,,2015_Sep_26_1342,K,facesParametric,77,59.6541900689,
./stim/MorphM4_08_orig.jpg,96,,,,,,,,,0,96,96,96,,,,,,,,,,,,,,,-13.212890625,-1.669921875,0,0,1,0.66884303093,,,2015_Sep_26_1342,K,facesParametric,77,59.6541900689,
./stim/MorphF2_09_orig.jpg,97,,,,,,,,,0,97,97,97,,,,,,,,,,,,,,,-13.212890625,-1.669921875,0,0,1,1.17204403877,,,2015_Sep_26_1342,K,facesParametric,77,59.6541900689,
./stim/MorphF10_09_orig.jpg,98,,,,,,,,,0,98,98,98,,,,,,,,,,,,,,,-13.154296875,-1.728515625,0,0,1,0.719347000122,,,2015_Sep_26_1342,K,facesParametric,77,59.6541900689,
./stim/MorphF7_09_orig.jpg,99,,,,,,,,,0,99,99,99,,,,,,,,,,,,,,,-13.154296875,-1.728515625,0,0,1,0.65286898613,,,2015_Sep_26_1342,K,facesParametric,77,59.6541900689,
./stim/MorphF2_00_orig.jpg,100,,,,,,,,,0,100,100,100,,,,,,,,,,,,,,,-12.890625,-1.640625,1,0,0,0.852488040924,,,2015_Sep_26_1342,K,facesParametric,77,59.6541900689,
./stim/MorphF7_04_orig.jpg,101,,,,,,,,,0,101,101,101,,,,,,,,,,,,,,,-12.83203125,-1.640625,1,0,0,1.03697919846,,,2015_Sep_26_1342,K,facesParametric,77,59.6541900689,
./stim/MorphM2_07_orig.jpg,102,,,,,,,,,0,102,102,102,,,,,,,,,,,,,,,-12.802734375,-1.640625,1,0,0,1.72511696815,,,2015_Sep_26_1342,K,facesParametric,77,59.6541900689,
./stim/MorphF10_10_orig.jpg,103,,,,,,,,,0,103,103,103,,,,,,,,,,,,,,,-12.83203125,-1.611328125,0,0,1,0.735815048218,,,2015_Sep_26_1342,K,facesParametric,77,59.6541900689,
./stim/MorphF8_08_orig.jpg,104,,,,,,,,,0,104,104,104,,,,,,,,,,,,,,,-12.83203125,-1.611328125,0,0,1,0.702956914902,,,2015_Sep_26_1342,K,facesParametric,77,59.6541900689,
./stim/MorphM9_00_orig.jpg,105,,,,,,,,,0,105,105,105,,,,,,,,,,,,,,,-12.83203125,-1.611328125,1,0,0,0.753849029541,,,2015_Sep_26_1342,K,facesParametric,77,59.6541900689,
./stim/MorphM6_01_orig.jpg,106,,,,,,,,,0,106,106,106,,,,,,,,,,,,,,,-12.861328125,-1.58203125,1,0,0,0.936445951462,,,2015_Sep_26_1342,K,facesParametric,77,59.6541900689,
./stim/MorphM7_05_orig.jpg,107,,,,,,,,,0,107,107,107,,,,,,,,,,,,,,,-12.890625,-1.58203125,0,0,1,1.2383711338,,,2015_Sep_26_1342,K,facesParametric,77,59.6541900689,
./stim/MorphF9_08_orig.jpg,108,,,,,,,,,0,108,108,108,,,,,,,,,,,,,,,-12.890625,-1.58203125,0,0,1,0.903367042542,,,2015_Sep_26_1342,K,facesParametric,77,59.6541900689,
./stim/MorphM5_03_orig.jpg,109,,,,,,,,,0,109,109,109,,,,,,,,,,,,,,,-12.890625,-1.58203125,1,0,0,0.818541049957,,,2015_Sep_26_1342,K,facesParametric,77,59.6541900689,
./stim/MorphM3_05_orig.jpg,110,,,,,,,,,0,110,110,110,,,,,,,,,,,,,,,-12.890625,-1.58203125,0,0,1,1.75911188126,,,2015_Sep_26_1342,K,facesParametric,77,59.6541900689,
./stim/MorphF1_10_orig.jpg,111,,,,,,,,,0,111,111,111,,,,,,,,,,,,,,,-12.890625,-1.552734375,1,0,0,1.12140798569,,,2015_Sep_26_1342,K,facesParametric,77,59.6541900689,
./stim/MorphM4_04_orig.jpg,112,,,,,,,,,0,112,112,112,,,,,,,,,,,,,,,-12.94921875,-1.58203125,0,0,1,3.60003399849,,,2015_Sep_26_1342,K,facesParametric,77,59.6541900689,
./stim/MorphM2_03_orig.jpg,113,,,,,,,,,0,113,113,113,,,,,,,,,,,,,,,-12.919921875,-1.5234375,1,0,0,2.3940320015,,,2015_Sep_26_1342,K,facesParametric,77,59.6541900689,
./stim/MorphM1_06_orig.jpg,114,,,,,,,,,0,114,114,114,,,,,,,,,,,,,,,-12.919921875,-1.5234375,1,0,0,0.968551874161,,,2015_Sep_26_1342,K,facesParametric,77,59.6541900689,
./stim/MorphF6_08_orig.jpg,115,,,,,,,,,0,115,115,115,,,,,,,,,,,,,,,-12.94921875,-1.494140625,1,0,0,1.38755702972,,,2015_Sep_26_1342,K,facesParametric,77,59.6541900689,
./stim/MorphF5_01_orig.jpg,116,,,,,,,,,0,116,116,116,,,,,,,,,,,,,,,-12.919921875,-1.46484375,1,0,0,0.801157951355,,,2015_Sep_26_1342,K,facesParametric,77,59.6541900689,
./stim/MorphM4_07_orig.jpg,117,,,,,,,,,0,117,117,117,,,,,,,,,,,,,,,-12.890625,-1.5234375,0,0,1,0.969791889191,,,2015_Sep_26_1342,K,facesParametric,77,59.6541900689,
./stim/MorphM9_06_orig.jpg,118,,,,,,,,,0,118,118,118,,,,,,,,,,,,,,,-12.919921875,-1.494140625,0,0,1,1.72339582443,,,2015_Sep_26_1342,K,facesParametric,77,59.6541900689,
./stim/MorphM5_09_orig.jpg,119,,,,,,,,,0,119,119,119,,,,,,,,,,,,,,,-12.861328125,-1.58203125,0,0,1,2.2277879715,,,2015_Sep_26_1342,K,facesParametric,77,59.6541900689,
./stim/MorphM8_02_orig.jpg,120,,,,,,,,,0,120,120,120,,,,,,,,,,,,,,,-12.7734375,-1.787109375,1,0,0,1.25561404228,,,2015_Sep_26_1342,K,facesParametric,77,59.6541900689,
./stim/MorphF6_07_orig.jpg,121,,,,,,,,,0,121,121,121,,,,,,,,,,,,,,,-12.7734375,-1.787109375,1,0,0,1.94018507004,,,2015_Sep_26_1342,K,facesParametric,77,59.6541900689,
./stim/MorphF8_07_orig.jpg,122,,,,,,,,,0,122,122,122,,,,,,,,,,,,,,,-12.861328125,-1.81640625,1,0,0,5.57844591141,,,2015_Sep_26_1342,K,facesParametric,77,59.6541900689,
./stim/MorphF10_00_orig.jpg,123,,,,,,,,,0,123,123,123,,,,,,,,,,,,,,,-12.890625,-1.787109375,1,0,0,0.736244916916,,,2015_Sep_26_1342,K,facesParametric,77,59.6541900689,
./stim/MorphF4_10_orig.jpg,124,,,,,,,,,0,124,124,124,,,,,,,,,,,,,,,-13.06640625,-1.640625,0,0,1,1.10468316078,,,2015_Sep_26_1342,K,facesParametric,77,59.6541900689,
./stim/MorphF6_09_orig.jpg,125,,,,,,,,,0,125,125,125,,,,,,,,,,,,,,,-13.037109375,-1.669921875,0,0,1,1.44037890434,,,2015_Sep_26_1342,K,facesParametric,77,59.6541900689,
./stim/MorphF7_02_orig.jpg,126,,,,,,,,,0,126,126,126,,,,,,,,,,,,,,,-12.919921875,-1.640625,1,0,0,0.853274106979,,,2015_Sep_26_1342,K,facesParametric,77,59.6541900689,
./stim/MorphM6_07_orig.jpg,127,,,,,,,,,0,127,127,127,,,,,,,,,,,,,,,-12.861328125,-1.611328125,1,0,0,1.00475597382,,,2015_Sep_26_1342,K,facesParametric,77,59.6541900689,
./stim/MorphM2_10_orig.jpg,128,,,,,,,,,0,128,128,128,,,,,,,,,,,,,,,-12.83203125,-1.58203125,1,0,0,2.17733693123,,,2015_Sep_26_1342,K,facesParametric,77,59.6541900689,
./stim/MorphF6_06_orig.jpg,129,,,,,,,,,0,129,129,129,,,,,,,,,,,,,,,-12.802734375,-1.552734375,1,0,0,1.15521192551,,,2015_Sep_26_1342,K,facesParametric,77,59.6541900689,
./stim/MorphF8_10_orig.jpg,130,,,,,,,,,0,130,130,130,,,,,,,,,,,,,,,-12.802734375,-1.58203125,0,0,1,0.82034611702,,,2015_Sep_26_1342,K,facesParametric,77,59.6541900689,
./stim/MorphF1_04_orig.jpg,131,,,,,,,,,0,131,131,131,,,,,,,,,,,,,,,-12.83203125,-1.611328125,1,0,0,0.92097902298,,,2015_Sep_26_1342,K,facesParametric,77,59.6541900689,
./stim/MorphF2_01_orig.jpg,132,,,,,,,,,0,132,132,132,,,,,,,,,,,,,,,-12.802734375,-1.640625,1,0,0,1.1044511795,,,2015_Sep_26_1342,K,facesParametric,77,59.6541900689,
./stim/MorphM6_10_orig.jpg,133,,,,,,,,,0,133,133,133,,,,,,,,,,,,,,,-12.861328125,-1.728515625,0,0,1,1.62434196472,,,2015_Sep_26_1342,K,facesParametric,77,59.6541900689,
./stim/MorphM10_05_orig.jpg,134,,,,,,,,,0,134,134,134,,,,,,,,,,,,,,,-12.861328125,-1.728515625,0,0,1,2.67848396301,,,2015_Sep_26_1342,K,facesParametric,77,59.6541900689,
./stim/MorphM2_09_orig.jpg,135,,,,,,,,,0,135,135,135,,,,,,,,,,,,,,,-12.7734375,-1.7578125,1,0,0,4.97623181343,,,2015_Sep_26_1342,K,facesParametric,77,59.6541900689,
./stim/MorphM4_05_orig.jpg,136,,,,,,,,,0,136,136,136,,,,,,,,,,,,,,,-12.65625,-1.69921875,0,0,1,1.77458906174,,,2015_Sep_26_1342,K,facesParametric,77,59.6541900689,
./stim/MorphF3_09_orig.jpg,137,,,,,,,,,0,137,137,137,,,,,,,,,,,,,,,-12.626953125,-1.669921875,0,0,1,2.17713594437,,,2015_Sep_26_1342,K,facesParametric,77,59.6541900689,
./stim/MorphF5_06_orig.jpg,138,,,,,,,,,0,138,138,138,,,,,,,,,,,,,,,-12.626953125,-1.669921875,0,0,1,0.769590854645,,,2015_Sep_26_1342,K,facesParametric,77,59.6541900689,
./stim/MorphF4_01_orig.jpg,139,,,,,,,,,0,139,139,139,,,,,,,,,,,,,,,-12.685546875,-1.611328125,1,0,0,1.52336406708,,,2015_Sep_26_1342,K,facesParametric,77,59.6541900689,
./stim/MorphF2_06_orig.jpg,140,,,,,,,,,0,140,140,140,,,,,,,,,,,,,,,-12.65625,-1.611328125,0,0,1,0.870444059372,,,2015_Sep_26_1342,K,facesParametric,77,59.6541900689,
./stim/MorphF3_02_orig.jpg,141,,,,,,,,,0,141,141,141,,,,,,,,,,,,,,,-12.685546875,-1.58203125,1,0,0,0.987570047379,,,2015_Sep_26_1342,K,facesParametric,77,59.6541900689,
./stim/MorphM3_01_orig.jpg,142,,,,,,,,,0,142,142,142,,,,,,,,,,,,,,,-12.685546875,-1.46484375,1,0,0,1.2720811367,,,2015_Sep_26_1342,K,facesParametric,77,59.6541900689,
./stim/MorphM9_08_orig.jpg,143,,,,,,,,,0,143,143,143,,,,,,,,,,,,,,,-12.626953125,-1.40625,0,0,1,1.05432200432,,,2015_Sep_26_1342,K,facesParametric,77,59.6541900689,
./stim/MorphF9_00_orig.jpg,144,,,,,,,,,0,144,144,144,,,,,,,,,,,,,,,-12.568359375,-1.376953125,1,0,0,0.870453119278,,,2015_Sep_26_1342,K,facesParametric,77,59.6541900689,
./stim/MorphM3_09_orig.jpg,145,,,,,,,,,0,145,145,145,,,,,,,,,,,,,,,-12.48046875,-1.40625,0,0,1,0.817827939987,,,2015_Sep_26_1342,K,facesParametric,77,59.6541900689,
./stim/MorphM7_08_orig.jpg,146,,,,,,,,,0,146,146,146,,,,,,,,,,,,,,,-12.421875,-1.435546875,0,0,1,0.938160896301,,,2015_Sep_26_1342,K,facesParametric,77,59.6541900689,
./stim/MorphF10_04_orig.jpg,147,,,,,,,,,0,147,147,147,,,,,,,,,,,,,,,-12.36328125,-1.40625,1,0,0,1.64034605026,,,2015_Sep_26_1342,K,facesParametric,77,59.6541900689,
./stim/MorphF1_03_orig.jpg,148,,,,,,,,,0,148,148,148,,,,,,,,,,,,,,,-12.099609375,-1.435546875,1,0,0,1.03770112991,,,2015_Sep_26_1342,K,facesParametric,77,59.6541900689,
./stim/MorphF5_07_orig.jpg,149,,,,,,,,,0,149,149,149,,,,,,,,,,,,,,,-12.275390625,-1.435546875,0,0,1,0.769801139832,,,2015_Sep_26_1342,K,facesParametric,77,59.6541900689,
./stim/MorphM10_00_orig.jpg,150,,,,,,,,,0,150,150,150,,,,,,,,,,,,,,,-12.275390625,-1.435546875,1,0,0,1.25564098358,,,2015_Sep_26_1342,K,facesParametric,77,59.6541900689,
./stim/MorphF10_02_orig.jpg,151,,,,,,,,,0,151,151,151,,,,,,,,,,,,,,,-12.24609375,-1.435546875,1,0,0,0.903770923615,,,2015_Sep_26_1342,K,facesParametric,77,59.6541900689,
./stim/MorphM1_08_orig.jpg,152,,,,,,,,,0,152,152,152,,,,,,,,,,,,,,,-12.275390625,-1.46484375,0,0,1,1.99242687225,,,2015_Sep_26_1342,K,facesParametric,77,59.6541900689,
./stim/MorphF5_10_orig.jpg,153,,,,,,,,,0,153,153,153,,,,,,,,,,,,,,,-12.24609375,-1.435546875,0,0,1,0.702963113785,,,2015_Sep_26_1342,K,facesParametric,77,59.6541900689,
./stim/MorphF4_08_orig.jpg,154,,,,,,,,,0,154,154,154,,,,,,,,,,,,,,,-12.24609375,-1.435546875,0,0,1,0.735677957535,,,2015_Sep_26_1342,K,facesParametric,77,59.6541900689,
./stim/MorphF6_05_orig.jpg,155,,,,,,,,,0,155,155,155,,,,,,,,,,,,,,,-12.158203125,-1.40625,1,0,0,0.870157957077,,,2015_Sep_26_1342,K,facesParametric,77,59.6541900689,
./stim/MorphM5_05_orig.jpg,156,,,,,,,,,0,156,156,156,,,,,,,,,,,,,,,-12.1875,-1.40625,1,0,0,1.08783197403,,,2015_Sep_26_1342,K,facesParametric,77,59.6541900689,
./stim/MorphF7_06_orig.jpg,157,,,,,,,,,0,157,157,157,,,,,,,,,,,,,,,-12.158203125,-1.435546875,0,0,1,0.903509140015,,,2015_Sep_26_1342,K,facesParametric,77,59.6541900689,
./stim/MorphM9_02_orig.jpg,158,,,,,,,,,0,158,158,158,,,,,,,,,,,,,,,-12.333984375,-1.40625,1,0,0,1.49014592171,,,2015_Sep_26_1342,K,facesParametric,77,59.6541900689,
./stim/MorphF8_00_orig.jpg,159,,,,,,,,,0,159,159,159,,,,,,,,,,,,,,,-12.3046875,-1.40625,1,0,0,1.03649497032,,,2015_Sep_26_1342,K,facesParametric,77,59.6541900689,
./stim/MorphF2_07_orig.jpg,160,,,,,,,,,0,160,160,160,,,,,,,,,,,,,,,-12.3046875,-1.40625,0,0,1,0.820657014847,,,2015_Sep_26_1342,K,facesParametric,77,59.6541900689,
./stim/MorphF4_06_orig.jpg,161,,,,,,,,,0,161,161,161,,,,,,,,,,,,,,,-12.1875,-1.376953125,1,0,0,6.26453590393,,,2015_Sep_26_1342,K,facesParametric,77,59.6541900689,
./stim/MorphF2_03_orig.jpg,162,,,,,,,,,0,162,162,162,,,,,,,,,,,,,,,-12.1875,-1.376953125,1,0,0,0.937112808228,,,2015_Sep_26_1342,K,facesParametric,77,59.6541900689,
./stim/MorphM5_10_orig.jpg,163,,,,,,,,,0,163,163,163,,,,,,,,,,,,,,,-12.1875,-1.40625,0,0,1,1.17242193222,,,2015_Sep_26_1342,K,facesParametric,77,59.6541900689,
./stim/MorphF4_09_orig.jpg,164,,,,,,,,,0,164,164,164,,,,,,,,,,,,,,,-12.1875,-1.376953125,0,0,1,0.835638046265,,,2015_Sep_26_1342,K,facesParametric,77,59.6541900689,
./stim/MorphF1_00_orig.jpg,165,,,,,,,,,0,165,165,165,,,,,,,,,,,,,,,-12.1875,-1.376953125,1,0,0,0.786490917206,,,2015_Sep_26_1342,K,facesParametric,77,59.6541900689,
./stim/MorphM7_04_orig.jpg,166,,,,,,,,,0,166,166,166,,,,,,,,,,,,,,,-12.158203125,-1.34765625,0,0,1,3.48496007919,,,2015_Sep_26_1342,K,facesParametric,77,59.6541900689,
./stim/MorphM6_03_orig.jpg,167,,,,,,,,,0,167,167,167,,,,,,,,,,,,,,,-12.158203125,-1.34765625,1,0,0,1.18738698959,,,2015_Sep_26_1342,K,facesParametric,77,59.6541900689,
./stim/MorphF5_02_orig.jpg,168,,,,,,,,,0,168,168,168,,,,,,,,,,,,,,,-12.12890625,-1.376953125,1,0,0,0.870404005051,,,2015_Sep_26_1342,K,facesParametric,77,59.6541900689,
./stim/MorphM9_05_orig.jpg,169,,,,,,,,,0,169,169,169,,,,,,,,,,,,,,,-12.1875,-1.40625,0,0,1,2.4121940136,,,2015_Sep_26_1342,K,facesParametric,77,59.6541900689,
./stim/MorphM1_01_orig.jpg,170,,,,,,,,,0,170,170,170,,,,,,,,,,,,,,,-12.24609375,-1.376953125,1,0,0,0.970706939697,,,2015_Sep_26_1342,K,facesParametric,77,59.6541900689,
./stim/MorphF1_02_orig.jpg,171,,,,,,,,,0,171,171,171,,,,,,,,,,,,,,,-12.24609375,-1.376953125,1,0,0,0.719418048859,,,2015_Sep_26_1342,K,facesParametric,77,59.6541900689,
./stim/MorphF8_01_orig.jpg,172,,,,,,,,,0,172,172,172,,,,,,,,,,,,,,,-12.099609375,-1.376953125,1,0,0,1.12091588974,,,2015_Sep_26_1342,K,facesParametric,77,59.6541900689,
./stim/MorphF4_04_orig.jpg,173,,,,,,,,,0,173,173,173,,,,,,,,,,,,,,,-12.0703125,-1.34765625,1,0,0,1.7582950592,,,2015_Sep_26_1342,K,facesParametric,77,59.6541900689,
./stim/MorphM3_02_orig.jpg,174,,,,,,,,,0,174,174,174,,,,,,,,,,,,,,,-12.041015625,-1.376953125,1,0,0,0.987832069397,,,2015_Sep_26_1342,K,facesParametric,77,59.6541900689,
./stim/MorphF4_05_orig.jpg,175,,,,,,,,,0,175,175,175,,,,,,,,,,,,,,,-11.953125,-1.40625,1,0,0,1.82501387596,,,2015_Sep_26_1342,K,facesParametric,77,59.6541900689,
./stim/MorphM2_00_orig.jpg,176,,,,,,,,,0,176,176,176,,,,,,,,,,,,,,,-11.982421875,-1.435546875,1,0,0,0.953793048859,,,2015_Sep_26_1342,K,facesParametric,77,59.6541900689,
./stim/MorphM10_10_orig.jpg,177,,,,,,,,,0,177,177,177,,,,,,,,,,,,,,,-11.953125,-1.376953125,0,0,1,0.753248929977,,,2015_Sep_26_1342,K,facesParametric,77,59.6541900689,
./stim/MorphM5_08_orig.jpg,178,,,,,,,,,0,178,178,178,,,,,,,,,,,,,,,-11.89453125,-1.318359375,0,0,1,0.819523096085,,,2015_Sep_26_1342,K,facesParametric,77,59.6541900689,
./stim/MorphM2_02_orig.jpg,179,,,,,,,,,0,179,179,179,,,,,,,,,,,,,,,-11.806640625,-1.2890625,1,0,0,1.25531411171,,,2015_Sep_26_1342,K,facesParametric,77,59.6541900689,
./stim/MorphM7_06_orig.jpg,180,,,,,,,,,0,180,180,180,,,,,,,,,,,,,,,-11.748046875,-1.259765625,0,0,1,0.854161024094,,,2015_Sep_26_1342,K,facesParametric,77,59.6541900689,
./stim/MorphF2_08_orig.jpg,181,,,,,,,,,0,181,181,181,,,,,,,,,,,,,,,-11.77734375,-1.201171875,0,0,1,0.934550046921,,,2015_Sep_26_1342,K,facesParametric,77,59.6541900689,
./stim/MorphF4_07_orig.jpg,182,,,,,,,,,0,182,182,182,,,,,,,,,,,,,,,-11.806640625,-1.201171875,0,0,1,0.702932834625,,,2015_Sep_26_1342,K,facesParametric,77,59.6541900689,
./stim/MorphF3_03_orig.jpg,183,,,,,,,,,0,183,183,183,,,,,,,,,,,,,,,-11.748046875,-1.171875,1,0,0,1.25625395775,,,2015_Sep_26_1342,K,facesParametric,77,59.6541900689,
./stim/MorphM6_00_orig.jpg,184,,,,,,,,,0,184,184,184,,,,,,,,,,,,,,,-11.689453125,-1.171875,1,0,0,0.785140037537,,,2015_Sep_26_1342,K,facesParametric,77,59.6541900689,
./stim/MorphM7_02_orig.jpg,185,,,,,,,,,0,185,185,185,,,,,,,,,,,,,,,-11.630859375,-1.23046875,1,0,0,1.13784098625,,,2015_Sep_26_1342,K,facesParametric,77,59.6541900689,
./stim/MorphF9_05_orig.jpg,186,,,,,,,,,0,186,186,186,,,,,,,,,,,,,,,-11.6015625,-1.201171875,1,0,0,1.23872995377,,,2015_Sep_26_1342,K,facesParametric,77,59.6541900689,
./stim/MorphM5_02_orig.jpg,187,,,,,,,,,0,187,187,187,,,,,,,,,,,,,,,-11.6015625,-1.201171875,1,0,0,1.07053303719,,,2015_Sep_26_1342,K,facesParametric,77,59.6541900689,
./stim/MorphM7_10_orig.jpg,188,,,,,,,,,0,188,188,188,,,,,,,,,,,,,,,-11.6015625,-1.201171875,0,0,1,0.835164070129,,,2015_Sep_26_1342,K,facesParametric,77,59.6541900689,
./stim/MorphM2_08_orig.jpg,189,,,,,,,,,0,189,189,189,,,,,,,,,,,,,,,-11.6015625,-1.201171875,0,0,1,1.3396089077,,,2015_Sep_26_1342,K,facesParametric,77,59.6541900689,
./stim/MorphM9_04_orig.jpg,190,,,,,,,,,0,190,190,190,,,,,,,,,,,,,,,-11.6015625,-1.201171875,1,0,0,1.54115700722,,,2015_Sep_26_1342,K,facesParametric,77,59.6541900689,
./stim/MorphM4_00_orig.jpg,191,,,,,,,,,0,191,191,191,,,,,,,,,,,,,,,-11.6015625,-1.201171875,1,0,0,2.29461407661,,,2015_Sep_26_1342,K,facesParametric,77,59.6541900689,
./stim/MorphF1_07_orig.jpg,192,,,,,,,,,0,192,192,192,,,,,,,,,,,,,,,-11.54296875,-1.23046875,0,0,1,2.44549202919,,,2015_Sep_26_1342,K,facesParametric,77,59.6541900689,
./stim/MorphM3_04_orig.jpg,193,,,,,,,,,0,193,193,193,,,,,,,,,,,,,,,-11.54296875,-1.23046875,1,0,0,1.07056522369,,,2015_Sep_26_1342,K,facesParametric,77,59.6541900689,
./stim/MorphF1_08_orig.jpg,194,,,,,,,,,0,194,194,194,,,,,,,,,,,,,,,-11.54296875,-1.23046875,0,0,1,2.94776701927,,,2015_Sep_26_1342,K,facesParametric,77,59.6541900689,
./stim/MorphM10_03_orig.jpg,195,,,,,,,,,0,195,195,195,,,,,,,,,,,,,,,-11.513671875,-1.23046875,1,0,0,1.95957899094,,,2015_Sep_26_1342,K,facesParametric,77,59.6541900689,
./stim/MorphF3_06_orig.jpg,196,,,,,,,,,0,196,196,196,,,,,,,,,,,,,,,-11.455078125,-1.201171875,0,0,1,1.3561270237,,,2015_Sep_26_1342,K,facesParametric,77,59.6541900689,
./stim/MorphM2_04_orig.jpg,197,,,,,,,,,0,197,197,197,,,,,,,,,,,,,,,-11.42578125,-1.23046875,1,0,0,1.03639698029,,,2015_Sep_26_1342,K,facesParametric,77,59.6541900689,
./stim/MorphM1_00_orig.jpg,198,,,,,,,,,0,198,198,198,,,,,,,,,,,,,,,-11.455078125,-1.259765625,1,0,0,0.886103153229,,,2015_Sep_26_1342,K,facesParametric,77,59.6541900689,
./stim/MorphM3_06_orig.jpg,199,,,,,,,,,0,199,199,199,,,,,,,,,,,,,,,-11.455078125,-1.23046875,0,0,1,0.768736839294,,,2015_Sep_26_1342,K,facesParametric,77,59.6541900689,
./stim/MorphM8_07_orig.jpg,200,,,,,,,,,0,200,200,200,,,,,,,,,,,,,,,-11.484375,-1.23046875,0,0,1,0.736540079117,,,2015_Sep_26_1342,K,facesParametric,77,59.6541900689,
./stim/MorphM10_08_orig.jpg,201,,,,,,,,,0,201,201,201,,,,,,,,,,,,,,,-11.484375,-1.201171875,0,0,1,0.684232950211,,,2015_Sep_26_1342,K,facesParametric,77,59.6541900689,
./stim/MorphF2_04_orig.jpg,202,,,,,,,,,0,202,202,202,,,,,,,,,,,,,,,-11.455078125,-1.201171875,1,0,0,1.18775296211,,,2015_Sep_26_1342,K,facesParametric,77,59.6541900689,
./stim/MorphF10_01_orig.jpg,203,,,,,,,,,0,203,203,203,,,,,,,,,,,,,,,-11.513671875,-1.201171875,1,0,0,0.95369386673,,,2015_Sep_26_1342,K,facesParametric,77,59.6541900689,
./stim/MorphF9_03_orig.jpg,204,,,,,,,,,0,204,204,204,,,,,,,,,,,,,,,-11.513671875,-1.142578125,1,0,0,0.918081045151,,,2015_Sep_26_1342,K,facesParametric,77,59.6541900689,
./stim/MorphF3_07_orig.jpg,205,,,,,,,,,0,205,205,205,,,,,,,,,,,,,,,-11.54296875,-1.083984375,0,0,1,2.01025509834,,,2015_Sep_26_1342,K,facesParametric,77,59.6541900689,
./stim/MorphF1_06_orig.jpg,206,,,,,,,,,0,206,206,206,,,,,,,,,,,,,,,-11.513671875,-1.025390625,1,0,0,1.2557990551,,,2015_Sep_26_1342,K,facesParametric,77,59.6541900689,
./stim/MorphM8_06_orig.jpg,207,,,,,,,,,0,207,207,207,,,,,,,,,,,,,,,-11.484375,-0.99609375,1,0,0,2.94851493835,,,2015_Sep_26_1342,K,facesParametric,77,59.6541900689,
./stim/MorphF2_10_orig.jpg,208,,,,,,,,,0,208,208,208,,,,,,,,,,,,,,,-11.337890625,-0.9375,0,0,1,1.08638381958,,,2015_Sep_26_1342,K,facesParametric,77,59.6541900689,
./stim/MorphF7_08_orig.jpg,209,,,,,,,,,0,209,209,209,,,,,,,,,,,,,,,-11.3671875,-0.966796875,0,0,1,0.71922492981,,,2015_Sep_26_1342,K,facesParametric,77,59.6541900689,
./stim/MorphM6_06_orig.jpg,210,,,,,,,,,0,210,210,210,,,,,,,,,,,,,,,-11.42578125,-0.966796875,1,0,0,1.35550403595,,,2015_Sep_26_1342,K,facesParametric,77,59.6541900689,
./stim/MorphF6_04_orig.jpg,211,,,,,,,,,0,211,211,211,,,,,,,,,,,,,,,-11.42578125,-0.966796875,1,0,0,1.10502290726,,,2015_Sep_26_1342,K,facesParametric,77,59.6541900689,
./stim/MorphF7_03_orig.jpg,212,,,,,,,,,0,212,212,212,,,,,,,,,,,,,,,-11.279296875,-1.025390625,1,0,0,1.32280611992,,,2015_Sep_26_1342,K,facesParametric,77,59.6541900689,
./stim/MorphF9_01_orig.jpg,213,,,,,,,,,0,213,213,213,,,,,,,,,,,,,,,-11.1328125,-0.908203125,1,0,0,1.02125692368,,,2015_Sep_26_1342,K,facesParametric,77,59.6541900689,
./stim/MorphM3_00_orig.jpg,214,,,,,,,,,0,214,214,214,,,,,,,,,,,,,,,-11.103515625,-0.87890625,1,0,0,0.78466796875,,,2015_Sep_26_1342,K,facesParametric,77,59.6541900689,
./stim/MorphM8_01_orig.jpg,215,,,,,,,,,0,215,215,215,,,,,,,,,,,,,,,-11.1328125,-0.8203125,1,0,0,1.38916516304,,,2015_Sep_26_1342,K,facesParametric,77,59.6541900689,
./stim/MorphF10_03_orig.jpg,216,,,,,,,,,0,216,216,216,,,,,,,,,,,,,,,-11.103515625,-0.8203125,1,0,0,1.62445211411,,,2015_Sep_26_1342,K,facesParametric,77,59.6541900689,
./stim/MorphF7_07_orig.jpg,217,,,,,,,,,0,217,217,217,,,,,,,,,,,,,,,-10.986328125,-0.791015625,0,0,1,1.72491812706,,,2015_Sep_26_1342,K,facesParametric,77,59.6541900689,
./stim/MorphF5_05_orig.jpg,218,,,,,,,,,0,218,218,218,,,,,,,,,,,,,,,-11.015625,-0.76171875,1,0,0,2.32826781273,,,2015_Sep_26_1342,K,facesParametric,77,59.6541900689,
./stim/MorphF10_06_orig.jpg,219,,,,,,,,,0,219,219,219,,,,,,,,,,,,,,,-10.986328125,-0.732421875,0,0,1,1.00218987465,,,2015_Sep_26_1342,K,facesParametric,77,59.6541900689,
