img,num,basicLoop.thisRepN,basicLoop.thisTrialN,basicLoop.thisN,basicLoop.thisIndex,trials.thisRepN,trials.thisTrialN,trials.thisN,trials.thisIndex,trials2.thisRepN,trials2.thisTrialN,trials2.thisN,trials2.thisIndex,key_resp_2.keys,key_resp_2.rt,basicRating1.response,basicRating1.rt,basicRating2.response,basicRating2.rt,basicRating3.response,basicRating3.rt,basicRating4.response,basicRating4.rt,key_resp_3.keys,key_resp_3.rt,key_resp_4.keys,key_resp_4.rt,mouseResp.x,mouseResp.y,mouseResp.leftButton,mouseResp.midButton,mouseResp.rightButton,mouseResp.time,key_resp_5.keys,key_resp_5.rt,date,group,expName,participant,frameRate,
,,,,,,,,,,,,,,return,92.5776910782,,,,,,,,,,,,,,,,,,,,,2015_Oct_17_1059,K,facesParametric,8,59.747494676,
./basicStim/07F_FE_O.jpg,,0,0,0,30,,,,,,,,,,,None,None,None,None,DIS,5.774,None,None,,,,,,,,,,,,,2015_Oct_17_1059,K,facesParametric,8,59.747494676,
./basicStim/06F_SA_C.jpg,,0,1,1,25,,,,,,,,,,,SAD,4.521,None,None,None,None,None,None,,,,,,,,,,,,,2015_Oct_17_1059,K,facesParametric,8,59.747494676,
./basicStim/09F_FE_O.jpg,,0,2,2,37,,,,,,,,,,,None,None,FEA,3.473,None,None,None,None,,,,,,,,,,,,,2015_Oct_17_1059,K,facesParametric,8,59.747494676,
./basicStim/01F_DI_O.jpg,,0,3,3,1,,,,,,,,,,,None,None,None,None,DIS,7.161,None,None,,,,,,,,,,,,,2015_Oct_17_1059,K,facesParametric,8,59.747494676,
./basicStim/03F_FE_O.jpg,,0,4,4,16,,,,,,,,,,,None,None,None,None,SUP,4.081,None,None,,,,,,,,,,,,,2015_Oct_17_1059,K,facesParametric,8,59.747494676,
./basicStim/03F_SP_O.jpg,,0,5,5,19,,,,,,,,,,,HAP,1.733,None,None,None,None,None,None,,,,,,,,,,,,,2015_Oct_17_1059,K,facesParametric,8,59.747494676,
./basicStim/23M_HA_O.jpg,,0,6,6,52,,,,,,,,,,,HAP,3.389,None,None,None,None,None,None,,,,,,,,,,,,,2015_Oct_17_1059,K,facesParametric,8,59.747494676,
./basicStim/36M_FE_O.jpg,,0,7,7,79,,,,,,,,,,,None,None,None,None,DIS,5.346,None,None,,,,,,,,,,,,,2015_Oct_17_1059,K,facesParametric,8,59.747494676,
./basicStim/23M_NE_C.jpg,,0,8,8,55,,,,,,,,,,,None,None,None,None,None,None,NTR,7.677,,,,,,,,,,,,,2015_Oct_17_1059,K,facesParametric,8,59.747494676,
./basicStim/24M_SP_O.jpg,,0,9,9,61,,,,,,,,,,,None,None,None,None,SUP,3.042,None,None,,,,,,,,,,,,,2015_Oct_17_1059,K,facesParametric,8,59.747494676,
./basicStim/09F_SA_C.jpg,,0,10,10,39,,,,,,,,,,,None,None,FEA,5.453,None,None,None,None,,,,,,,,,,,,,2015_Oct_17_1059,K,facesParametric,8,59.747494676,
./basicStim/28M_DI_O.jpg,,0,11,11,64,,,,,,,,,,,None,None,None,None,DIS,2.281,None,None,,,,,,,,,,,,,2015_Oct_17_1059,K,facesParametric,8,59.747494676,
./basicStim/09F_DI_O.jpg,,0,12,12,36,,,,,,,,,,,None,None,None,None,DIS,4.228,None,None,,,,,,,,,,,,,2015_Oct_17_1059,K,facesParametric,8,59.747494676,
./basicStim/21M_HA_O.jpg,,0,13,13,45,,,,,,,,,,,HAP,2.074,None,None,None,None,None,None,,,,,,,,,,,,,2015_Oct_17_1059,K,facesParametric,8,59.747494676,
./basicStim/07F_DI_O.jpg,,0,14,14,29,,,,,,,,,,,None,None,None,None,DIS,2.451,None,None,,,,,,,,,,,,,2015_Oct_17_1059,K,facesParametric,8,59.747494676,
./basicStim/34M_SA_C.jpg,,0,15,15,74,,,,,,,,,,,SAD,2.921,None,None,None,None,None,None,,,,,,,,,,,,,2015_Oct_17_1059,K,facesParametric,8,59.747494676,
./basicStim/03F_NE_C.jpg,,0,16,16,20,,,,,,,,,,,None,None,None,None,None,None,NTR,2.032,,,,,,,,,,,,,2015_Oct_17_1059,K,facesParametric,8,59.747494676,
./basicStim/02F_AN_O.jpg,,0,17,17,7,,,,,,,,,,,None,None,ANG,3.556,None,None,None,None,,,,,,,,,,,,,2015_Oct_17_1059,K,facesParametric,8,59.747494676,
./basicStim/23M_SP_O.jpg,,0,18,18,54,,,,,,,,,,,None,None,None,None,SUP,1.763,None,None,,,,,,,,,,,,,2015_Oct_17_1059,K,facesParametric,8,59.747494676,
./basicStim/36M_HA_O.jpg,,0,19,19,80,,,,,,,,,,,HAP,3.238,None,None,None,None,None,None,,,,,,,,,,,,,2015_Oct_17_1059,K,facesParametric,8,59.747494676,
./basicStim/34M_AN_O.jpg,,0,20,20,70,,,,,,,,,,,None,None,ANG,8.805,None,None,None,None,,,,,,,,,,,,,2015_Oct_17_1059,K,facesParametric,8,59.747494676,
./basicStim/09F_NE_C.jpg,,0,21,21,41,,,,,,,,,,,None,None,None,None,None,None,NTR,2.495,,,,,,,,,,,,,2015_Oct_17_1059,K,facesParametric,8,59.747494676,
./basicStim/01F_FE_O.jpg,,0,22,22,2,,,,,,,,,,,None,None,None,None,SUP,4.162,None,None,,,,,,,,,,,,,2015_Oct_17_1059,K,facesParametric,8,59.747494676,
./basicStim/24M_AN_O.jpg,,0,23,23,56,,,,,,,,,,,None,None,ANG,2.4,None,None,None,None,,,,,,,,,,,,,2015_Oct_17_1059,K,facesParametric,8,59.747494676,
./basicStim/23M_SA_C.jpg,,0,24,24,53,,,,,,,,,,,SAD,3.924,None,None,None,None,None,None,,,,,,,,,,,,,2015_Oct_17_1059,K,facesParametric,8,59.747494676,
./basicStim/21M_DI_O.jpg,,0,25,25,43,,,,,,,,,,,None,None,None,None,DIS,1.679,None,None,,,,,,,,,,,,,2015_Oct_17_1059,K,facesParametric,8,59.747494676,
./basicStim/06F_DI_O.jpg,,0,26,26,22,,,,,,,,,,,None,None,None,None,DIS,1.695,None,None,,,,,,,,,,,,,2015_Oct_17_1059,K,facesParametric,8,59.747494676,
./basicStim/28M_AN_O.jpg,,0,27,27,63,,,,,,,,,,,None,None,ANG,2.884,None,None,None,None,,,,,,,,,,,,,2015_Oct_17_1059,K,facesParametric,8,59.747494676,
./basicStim/02F_SA_C.jpg,,0,28,28,11,,,,,,,,,,,SAD,3.155,None,None,None,None,None,None,,,,,,,,,,,,,2015_Oct_17_1059,K,facesParametric,8,59.747494676,
./basicStim/09F_HA_O.jpg,,0,29,29,38,,,,,,,,,,,HAP,1.517,None,None,None,None,None,None,,,,,,,,,,,,,2015_Oct_17_1059,K,facesParametric,8,59.747494676,
./basicStim/01F_SP_O.jpg,,0,30,30,5,,,,,,,,,,,None,None,None,None,SUP,1.576,None,None,,,,,,,,,,,,,2015_Oct_17_1059,K,facesParametric,8,59.747494676,
./basicStim/24M_SA_C.jpg,,0,31,31,60,,,,,,,,,,,SAD,2.858,None,None,None,None,None,None,,,,,,,,,,,,,2015_Oct_17_1059,K,facesParametric,8,59.747494676,
./basicStim/07F_NE_C.jpg,,0,32,32,34,,,,,,,,,,,None,None,None,None,None,None,NTR,1.781,,,,,,,,,,,,,2015_Oct_17_1059,K,facesParametric,8,59.747494676,
./basicStim/28M_FE_O.jpg,,0,33,33,65,,,,,,,,,,,None,None,None,None,SUP,2.514,None,None,,,,,,,,,,,,,2015_Oct_17_1059,K,facesParametric,8,59.747494676,
./basicStim/03F_AN_O.jpg,,0,34,34,14,,,,,,,,,,,None,None,ANG,1.759,None,None,None,None,,,,,,,,,,,,,2015_Oct_17_1059,K,facesParametric,8,59.747494676,
./basicStim/06F_NE_C.jpg,,0,35,35,27,,,,,,,,,,,None,None,None,None,None,None,NTR,1.998,,,,,,,,,,,,,2015_Oct_17_1059,K,facesParametric,8,59.747494676,
./basicStim/28M_NE_C.jpg,,0,36,36,69,,,,,,,,,,,None,None,None,None,None,None,NTR,1.212,,,,,,,,,,,,,2015_Oct_17_1059,K,facesParametric,8,59.747494676,
./basicStim/02F_FE_O.jpg,,0,37,37,9,,,,,,,,,,,None,None,None,None,SUP,5.449,None,None,,,,,,,,,,,,,2015_Oct_17_1059,K,facesParametric,8,59.747494676,
./basicStim/21M_SP_O.jpg,,0,38,38,47,,,,,,,,,,,None,None,None,None,SUP,2.133,None,None,,,,,,,,,,,,,2015_Oct_17_1059,K,facesParametric,8,59.747494676,
./basicStim/02F_NE_C.jpg,,0,39,39,13,,,,,,,,,,,None,None,None,None,None,None,NTR,1.461,,,,,,,,,,,,,2015_Oct_17_1059,K,facesParametric,8,59.747494676,
./basicStim/34M_DI_O.jpg,,0,40,40,71,,,,,,,,,,,None,None,None,None,DIS,2.903,None,None,,,,,,,,,,,,,2015_Oct_17_1059,K,facesParametric,8,59.747494676,
./basicStim/01F_NE_C.jpg,,0,41,41,6,,,,,,,,,,,None,None,None,None,None,None,NTR,1.611,,,,,,,,,,,,,2015_Oct_17_1059,K,facesParametric,8,59.747494676,
./basicStim/02F_SP_O.jpg,,0,42,42,12,,,,,,,,,,,None,None,None,None,SUP,2.048,None,None,,,,,,,,,,,,,2015_Oct_17_1059,K,facesParametric,8,59.747494676,
./basicStim/34M_NE_C.jpg,,0,43,43,76,,,,,,,,,,,None,None,None,None,None,None,NTR,1.253,,,,,,,,,,,,,2015_Oct_17_1059,K,facesParametric,8,59.747494676,
./basicStim/01F_SA_C.jpg,,0,44,44,4,,,,,,,,,,,SAD,6.591,None,None,None,None,None,None,,,,,,,,,,,,,2015_Oct_17_1059,K,facesParametric,8,59.747494676,
./basicStim/28M_SP_O.jpg,,0,45,45,68,,,,,,,,,,,None,None,None,None,SUP,1.429,None,None,,,,,,,,,,,,,2015_Oct_17_1059,K,facesParametric,8,59.747494676,
./basicStim/21M_AN_O.jpg,,0,46,46,42,,,,,,,,,,,None,None,ANG,0.908,None,None,None,None,,,,,,,,,,,,,2015_Oct_17_1059,K,facesParametric,8,59.747494676,
./basicStim/24M_HA_O.jpg,,0,47,47,59,,,,,,,,,,,HAP,1.264,None,None,None,None,None,None,,,,,,,,,,,,,2015_Oct_17_1059,K,facesParametric,8,59.747494676,
./basicStim/09F_SP_O.jpg,,0,48,48,40,,,,,,,,,,,None,None,FEA,1.435,None,None,None,None,,,,,,,,,,,,,2015_Oct_17_1059,K,facesParametric,8,59.747494676,
./basicStim/23M_FE_O.jpg,,0,49,49,51,,,,,,,,,,,None,None,FEA,0.893,None,None,None,None,,,,,,,,,,,,,2015_Oct_17_1059,K,facesParametric,8,59.747494676,
./basicStim/07F_SA_C.jpg,,0,50,50,32,,,,,,,,,,,SAD,1.923,None,None,None,None,None,None,,,,,,,,,,,,,2015_Oct_17_1059,K,facesParametric,8,59.747494676,
./basicStim/07F_HA_O.jpg,,0,51,51,31,,,,,,,,,,,HAP,1.062,None,None,None,None,None,None,,,,,,,,,,,,,2015_Oct_17_1059,K,facesParametric,8,59.747494676,
./basicStim/24M_DI_O.jpg,,0,52,52,57,,,,,,,,,,,SAD,5.197,None,None,None,None,None,None,,,,,,,,,,,,,2015_Oct_17_1059,K,facesParametric,8,59.747494676,
./basicStim/01F_HA_O.jpg,,0,53,53,3,,,,,,,,,,,HAP,1.178,None,None,None,None,None,None,,,,,,,,,,,,,2015_Oct_17_1059,K,facesParametric,8,59.747494676,
./basicStim/23M_DI_O.jpg,,0,54,54,50,,,,,,,,,,,SAD,2.433,None,None,None,None,None,None,,,,,,,,,,,,,2015_Oct_17_1059,K,facesParametric,8,59.747494676,
./basicStim/36M_NE_C.jpg,,0,55,55,83,,,,,,,,,,,None,None,None,None,None,None,NTR,1.913,,,,,,,,,,,,,2015_Oct_17_1059,K,facesParametric,8,59.747494676,
./basicStim/34M_HA_O.jpg,,0,56,56,73,,,,,,,,,,,HAP,1.615,None,None,None,None,None,None,,,,,,,,,,,,,2015_Oct_17_1059,K,facesParametric,8,59.747494676,
./basicStim/34M_FE_O.jpg,,0,57,57,72,,,,,,,,,,,None,None,None,None,SUP,2.201,None,None,,,,,,,,,,,,,2015_Oct_17_1059,K,facesParametric,8,59.747494676,
./basicStim/01F_AN_O.jpg,,0,58,58,0,,,,,,,,,,,None,None,ANG,1.469,None,None,None,None,,,,,,,,,,,,,2015_Oct_17_1059,K,facesParametric,8,59.747494676,
./basicStim/34M_SP_O.jpg,,0,59,59,75,,,,,,,,,,,HAP,1.385,None,None,None,None,None,None,,,,,,,,,,,,,2015_Oct_17_1059,K,facesParametric,8,59.747494676,
./basicStim/36M_AN_O.jpg,,0,60,60,77,,,,,,,,,,,None,None,ANG,2.45,None,None,None,None,,,,,,,,,,,,,2015_Oct_17_1059,K,facesParametric,8,59.747494676,
./basicStim/28M_HA_O.jpg,,0,61,61,66,,,,,,,,,,,HAP,1.444,None,None,None,None,None,None,,,,,,,,,,,,,2015_Oct_17_1059,K,facesParametric,8,59.747494676,
./basicStim/36M_SA_C.jpg,,0,62,62,81,,,,,,,,,,,SAD,2.087,None,None,None,None,None,None,,,,,,,,,,,,,2015_Oct_17_1059,K,facesParametric,8,59.747494676,
./basicStim/02F_DI_O.jpg,,0,63,63,8,,,,,,,,,,,None,None,None,None,DIS,2.064,None,None,,,,,,,,,,,,,2015_Oct_17_1059,K,facesParametric,8,59.747494676,
./basicStim/03F_DI_O.jpg,,0,64,64,15,,,,,,,,,,,None,None,None,None,DIS,2.383,None,None,,,,,,,,,,,,,2015_Oct_17_1059,K,facesParametric,8,59.747494676,
./basicStim/23M_AN_O.jpg,,0,65,65,49,,,,,,,,,,,None,None,ANG,1.429,None,None,None,None,,,,,,,,,,,,,2015_Oct_17_1059,K,facesParametric,8,59.747494676,
./basicStim/21M_NE_C.jpg,,0,66,66,48,,,,,,,,,,,None,None,None,None,None,None,NTR,1.332,,,,,,,,,,,,,2015_Oct_17_1059,K,facesParametric,8,59.747494676,
./basicStim/07F_SP_O.jpg,,0,67,67,33,,,,,,,,,,,None,None,None,None,SUP,1.681,None,None,,,,,,,,,,,,,2015_Oct_17_1059,K,facesParametric,8,59.747494676,
./basicStim/06F_SP_O.jpg,,0,68,68,26,,,,,,,,,,,None,None,None,None,SUP,1.429,None,None,,,,,,,,,,,,,2015_Oct_17_1059,K,facesParametric,8,59.747494676,
./basicStim/03F_SA_C.jpg,,0,69,69,18,,,,,,,,,,,SAD,2.522,None,None,None,None,None,None,,,,,,,,,,,,,2015_Oct_17_1059,K,facesParametric,8,59.747494676,
./basicStim/02F_HA_O.jpg,,0,70,70,10,,,,,,,,,,,HAP,1.328,None,None,None,None,None,None,,,,,,,,,,,,,2015_Oct_17_1059,K,facesParametric,8,59.747494676,
./basicStim/24M_NE_C.jpg,,0,71,71,62,,,,,,,,,,,None,None,None,None,None,None,NTR,1.529,,,,,,,,,,,,,2015_Oct_17_1059,K,facesParametric,8,59.747494676,
./basicStim/09F_AN_O.jpg,,0,72,72,35,,,,,,,,,,,None,None,ANG,1.717,None,None,None,None,,,,,,,,,,,,,2015_Oct_17_1059,K,facesParametric,8,59.747494676,
./basicStim/24M_FE_O.jpg,,0,73,73,58,,,,,,,,,,,None,None,None,None,DIS,2.217,None,None,,,,,,,,,,,,,2015_Oct_17_1059,K,facesParametric,8,59.747494676,
./basicStim/28M_SA_C.jpg,,0,74,74,67,,,,,,,,,,,SAD,2.285,None,None,None,None,None,None,,,,,,,,,,,,,2015_Oct_17_1059,K,facesParametric,8,59.747494676,
./basicStim/06F_AN_O.jpg,,0,75,75,21,,,,,,,,,,,None,None,ANG,2.282,None,None,None,None,,,,,,,,,,,,,2015_Oct_17_1059,K,facesParametric,8,59.747494676,
./basicStim/07F_AN_O.jpg,,0,76,76,28,,,,,,,,,,,None,None,ANG,1.716,None,None,None,None,,,,,,,,,,,,,2015_Oct_17_1059,K,facesParametric,8,59.747494676,
./basicStim/36M_DI_O.jpg,,0,77,77,78,,,,,,,,,,,None,None,None,None,DIS,1.584,None,None,,,,,,,,,,,,,2015_Oct_17_1059,K,facesParametric,8,59.747494676,
./basicStim/03F_HA_O.jpg,,0,78,78,17,,,,,,,,,,,HAP,1.387,None,None,None,None,None,None,,,,,,,,,,,,,2015_Oct_17_1059,K,facesParametric,8,59.747494676,
./basicStim/21M_FE_O.jpg,,0,79,79,44,,,,,,,,,,,None,None,None,None,SUP,1.634,None,None,,,,,,,,,,,,,2015_Oct_17_1059,K,facesParametric,8,59.747494676,
./basicStim/06F_HA_O.jpg,,0,80,80,24,,,,,,,,,,,HAP,1.33,None,None,None,None,None,None,,,,,,,,,,,,,2015_Oct_17_1059,K,facesParametric,8,59.747494676,
./basicStim/36M_SP_O.jpg,,0,81,81,82,,,,,,,,,,,None,None,None,None,SUP,1.376,None,None,,,,,,,,,,,,,2015_Oct_17_1059,K,facesParametric,8,59.747494676,
./basicStim/06F_FE_O.jpg,,0,82,82,23,,,,,,,,,,,None,None,FEA,2.585,None,None,None,None,,,,,,,,,,,,,2015_Oct_17_1059,K,facesParametric,8,59.747494676,
./basicStim/21M_SA_C.jpg,,0,83,83,46,,,,,,,,,,,None,None,FEA,4.476,None,None,None,None,,,,,,,,,,,,,2015_Oct_17_1059,K,facesParametric,8,59.747494676,
,,,,,,,,,,,,,,,,,,,,,,,,return,9.65457987785,,,,,,,,,,,2015_Oct_17_1059,K,facesParametric,8,59.747494676,
,,,,,,,,,,,,,,return,1.03847503662,,,,,,,,,,,,,,,,,,,,,2015_Oct_17_1059,K,facesParametric,8,59.747494676,
,,,,,,,,,,,,,,,,,,,,,,,,return,40.0725660324,,,,,,,,,,,2015_Oct_17_1059,K,facesParametric,8,59.747494676,
,,,,,,,,,,,,,,,,,,,,,,,,,,return,0.821046829224,,,,,,,,,2015_Oct_17_1059,K,facesParametric,8,59.747494676,
./stim/MorphM5_06_orig.jpg,0,,,,,0,0,0,0,,,,,,,,,,,,,,,,,,,16.2890625,-9.84375,0,0,1,7.00519299507,,,2015_Oct_17_1059,K,facesParametric,8,59.747494676,
./stim/MorphF7_00_orig.jpg,1,,,,,0,1,1,1,,,,,,,,,,,,,,,,,,,18.017578125,-12.36328125,0,0,1,2.15995597839,,,2015_Oct_17_1059,K,facesParametric,8,59.747494676,
./stim/MorphF5_03_orig.jpg,2,,,,,0,2,2,2,,,,,,,,,,,,,,,,,,,23.349609375,-9.7265625,1,0,0,5.01005792618,,,2015_Oct_17_1059,K,facesParametric,8,59.747494676,
./stim/MorphF2_08_orig.jpg,3,,,,,0,3,3,3,,,,,,,,,,,,,,,,,,,22.96875,-8.49609375,1,0,0,1.59117889404,,,2015_Oct_17_1059,K,facesParametric,8,59.747494676,
./stim/MorphM10_07_orig.jpg,4,,,,,0,4,4,4,,,,,,,,,,,,,,,,,,,22.96875,-8.49609375,1,0,0,2.67970395088,,,2015_Oct_17_1059,K,facesParametric,8,59.747494676,
./stim/MorphF9_08_orig.jpg,5,,,,,0,5,5,5,,,,,,,,,,,,,,,,,,,22.96875,-8.49609375,0,0,1,1.22076106071,,,2015_Oct_17_1059,K,facesParametric,8,59.747494676,
./stim/MorphF3_04_orig.jpg,6,,,,,0,6,6,6,,,,,,,,,,,,,,,,,,,22.96875,-8.49609375,0,0,1,1.28827118874,,,2015_Oct_17_1059,K,facesParametric,8,59.747494676,
./stim/MorphF1_01_orig.jpg,7,,,,,0,7,7,7,,,,,,,,,,,,,,,,,,,22.96875,-8.49609375,0,0,1,1.20584917068,,,2015_Oct_17_1059,K,facesParametric,8,59.747494676,
./stim/MorphM5_08_orig.jpg,8,,,,,0,8,8,8,,,,,,,,,,,,,,,,,,,22.96875,-8.49609375,1,0,0,3.38446807861,,,2015_Oct_17_1059,K,facesParametric,8,59.747494676,
./stim/MorphM4_04_orig.jpg,9,,,,,0,9,9,9,,,,,,,,,,,,,,,,,,,22.96875,-8.49609375,0,0,1,2.78097987175,,,2015_Oct_17_1059,K,facesParametric,8,59.747494676,
./stim/MorphF6_01_orig.jpg,10,,,,,0,10,10,10,,,,,,,,,,,,,,,,,,,22.96875,-8.49609375,0,0,1,1.10207295418,,,2015_Oct_17_1059,K,facesParametric,8,59.747494676,
./stim/MorphF2_06_orig.jpg,11,,,,,0,11,11,11,,,,,,,,,,,,,,,,,,,22.96875,-8.49609375,1,0,0,2.06025314331,,,2015_Oct_17_1059,K,facesParametric,8,59.747494676,
./stim/MorphF6_08_orig.jpg,12,,,,,0,12,12,12,,,,,,,,,,,,,,,,,,,22.96875,-8.49609375,1,0,0,1.52435994148,,,2015_Oct_17_1059,K,facesParametric,8,59.747494676,
./stim/MorphF8_08_orig.jpg,13,,,,,0,13,13,13,,,,,,,,,,,,,,,,,,,22.96875,-8.49609375,1,0,0,1.33943986893,,,2015_Oct_17_1059,K,facesParametric,8,59.747494676,
./stim/MorphF4_03_orig.jpg,14,,,,,0,14,14,14,,,,,,,,,,,,,,,,,,,22.96875,-8.49609375,0,0,1,3.58492207527,,,2015_Oct_17_1059,K,facesParametric,8,59.747494676,
./stim/MorphF6_03_orig.jpg,15,,,,,0,15,15,15,,,,,,,,,,,,,,,,,,,22.96875,-8.49609375,0,0,1,1.8406701088,,,2015_Oct_17_1059,K,facesParametric,8,59.747494676,
./stim/MorphF9_06_orig.jpg,16,,,,,0,16,16,16,,,,,,,,,,,,,,,,,,,22.998046875,-8.466796875,0,0,1,3.70161294937,,,2015_Oct_17_1059,K,facesParametric,8,59.747494676,
./stim/MorphF10_07_orig.jpg,17,,,,,0,17,17,17,,,,,,,,,,,,,,,,,,,22.998046875,-8.466796875,1,0,0,1.85841798782,,,2015_Oct_17_1059,K,facesParametric,8,59.747494676,
./stim/MorphM9_03_orig.jpg,18,,,,,0,18,18,18,,,,,,,,,,,,,,,,,,,23.02734375,-8.4375,0,0,1,4.77357196808,,,2015_Oct_17_1059,K,facesParametric,8,59.747494676,
./stim/MorphF4_08_orig.jpg,19,,,,,0,19,19,19,,,,,,,,,,,,,,,,,,,23.02734375,-8.4375,1,0,0,1.44036316872,,,2015_Oct_17_1059,K,facesParametric,8,59.747494676,
./stim/MorphF5_06_orig.jpg,20,,,,,0,20,20,20,,,,,,,,,,,,,,,,,,,23.056640625,-8.408203125,1,0,0,3.68556809425,,,2015_Oct_17_1059,K,facesParametric,8,59.747494676,
./stim/MorphM7_01_orig.jpg,21,,,,,0,21,21,21,,,,,,,,,,,,,,,,,,,23.056640625,-8.408203125,0,0,1,1.55732798576,,,2015_Oct_17_1059,K,facesParametric,8,59.747494676,
./stim/MorphF3_03_orig.jpg,22,,,,,0,22,22,22,,,,,,,,,,,,,,,,,,,23.056640625,-8.408203125,0,0,1,1.23849415779,,,2015_Oct_17_1059,K,facesParametric,8,59.747494676,
./stim/MorphM3_05_orig.jpg,23,,,,,0,23,23,23,,,,,,,,,,,,,,,,,,,23.14453125,-8.466796875,0,0,1,4.77324008942,,,2015_Oct_17_1059,K,facesParametric,8,59.747494676,
./stim/MorphM4_01_orig.jpg,24,,,,,0,24,24,24,,,,,,,,,,,,,,,,,,,23.14453125,-8.49609375,0,0,1,2.62977814674,,,2015_Oct_17_1059,K,facesParametric,8,59.747494676,
./stim/MorphF6_02_orig.jpg,25,,,,,0,25,25,25,,,,,,,,,,,,,,,,,,,23.14453125,-8.49609375,0,0,1,5.84655213356,,,2015_Oct_17_1059,K,facesParametric,8,59.747494676,
./stim/MorphF7_03_orig.jpg,26,,,,,0,26,26,26,,,,,,,,,,,,,,,,,,,23.14453125,-8.49609375,0,0,1,1.92602992058,,,2015_Oct_17_1059,K,facesParametric,8,59.747494676,
./stim/MorphF2_02_orig.jpg,27,,,,,0,27,27,27,,,,,,,,,,,,,,,,,,,23.14453125,-8.49609375,0,0,1,2.2760579586,,,2015_Oct_17_1059,K,facesParametric,8,59.747494676,
./stim/MorphM9_00_orig.jpg,28,,,,,0,28,28,28,,,,,,,,,,,,,,,,,,,23.14453125,-8.49609375,0,0,1,3.85246896744,,,2015_Oct_17_1059,K,facesParametric,8,59.747494676,
./stim/MorphF7_05_orig.jpg,29,,,,,0,29,29,29,,,,,,,,,,,,,,,,,,,23.14453125,-8.49609375,0,0,1,2.71384811401,,,2015_Oct_17_1059,K,facesParametric,8,59.747494676,
./stim/MorphF8_10_orig.jpg,30,,,,,0,30,30,30,,,,,,,,,,,,,,,,,,,23.14453125,-8.49609375,1,0,0,1.20518517494,,,2015_Oct_17_1059,K,facesParametric,8,59.747494676,
./stim/MorphM6_08_orig.jpg,31,,,,,0,31,31,31,,,,,,,,,,,,,,,,,,,23.14453125,-8.49609375,0,0,1,1.90756511688,,,2015_Oct_17_1059,K,facesParametric,8,59.747494676,
./stim/MorphM1_09_orig.jpg,32,,,,,0,32,32,32,,,,,,,,,,,,,,,,,,,23.14453125,-8.49609375,1,0,0,1.79179596901,,,2015_Oct_17_1059,K,facesParametric,8,59.747494676,
./stim/MorphF9_01_orig.jpg,33,,,,,0,33,33,33,,,,,,,,,,,,,,,,,,,23.14453125,-8.49609375,0,0,1,2.26014399529,,,2015_Oct_17_1059,K,facesParametric,8,59.747494676,
./stim/MorphM1_03_orig.jpg,34,,,,,0,34,34,34,,,,,,,,,,,,,,,,,,,23.14453125,-8.49609375,0,0,1,2.31159806252,,,2015_Oct_17_1059,K,facesParametric,8,59.747494676,
./stim/MorphM8_07_orig.jpg,35,,,,,0,35,35,35,,,,,,,,,,,,,,,,,,,23.14453125,-8.49609375,1,0,0,1.52444410324,,,2015_Oct_17_1059,K,facesParametric,8,59.747494676,
./stim/MorphF8_03_orig.jpg,36,,,,,0,36,36,36,,,,,,,,,,,,,,,,,,,23.14453125,-8.49609375,0,0,1,3.71779203415,,,2015_Oct_17_1059,K,facesParametric,8,59.747494676,
./stim/MorphM6_10_orig.jpg,37,,,,,0,37,37,37,,,,,,,,,,,,,,,,,,,23.14453125,-8.49609375,1,0,0,1.32255911827,,,2015_Oct_17_1059,K,facesParametric,8,59.747494676,
./stim/MorphM4_07_orig.jpg,38,,,,,0,38,38,38,,,,,,,,,,,,,,,,,,,23.14453125,-8.525390625,1,0,0,1.28958106041,,,2015_Oct_17_1059,K,facesParametric,8,59.747494676,
./stim/MorphF3_09_orig.jpg,39,,,,,0,39,39,39,,,,,,,,,,,,,,,,,,,23.14453125,-8.525390625,1,0,0,2.98193597794,,,2015_Oct_17_1059,K,facesParametric,8,59.747494676,
./stim/MorphM10_04_orig.jpg,40,,,,,0,40,40,40,,,,,,,,,,,,,,,,,,,23.14453125,-8.5546875,1,0,0,1.69106912613,,,2015_Oct_17_1059,K,facesParametric,8,59.747494676,
./stim/MorphM7_07_orig.jpg,41,,,,,0,41,41,41,,,,,,,,,,,,,,,,,,,23.115234375,-8.7890625,1,0,0,2.17702794075,,,2015_Oct_17_1059,K,facesParametric,8,59.747494676,
./stim/MorphM8_00_orig.jpg,42,,,,,0,42,42,42,,,,,,,,,,,,,,,,,,,23.0859375,-8.818359375,0,0,1,6.08245301247,,,2015_Oct_17_1059,K,facesParametric,8,59.747494676,
./stim/MorphF9_05_orig.jpg,43,,,,,0,43,43,43,,,,,,,,,,,,,,,,,,,23.0859375,-8.818359375,0,0,1,2.31118297577,,,2015_Oct_17_1059,K,facesParametric,8,59.747494676,
./stim/MorphM2_04_orig.jpg,44,,,,,0,44,44,44,,,,,,,,,,,,,,,,,,,23.0859375,-8.818359375,0,0,1,2.86504793167,,,2015_Oct_17_1059,K,facesParametric,8,59.747494676,
./stim/MorphF5_01_orig.jpg,45,,,,,0,45,45,45,,,,,,,,,,,,,,,,,,,23.0859375,-8.818359375,0,0,1,1.84199690819,,,2015_Oct_17_1059,K,facesParametric,8,59.747494676,
./stim/MorphF1_03_orig.jpg,46,,,,,0,46,46,46,,,,,,,,,,,,,,,,,,,23.0859375,-8.818359375,0,0,1,2.27611684799,,,2015_Oct_17_1059,K,facesParametric,8,59.747494676,
./stim/MorphM9_08_orig.jpg,47,,,,,0,47,47,47,,,,,,,,,,,,,,,,,,,23.0859375,-8.818359375,1,0,0,1.45673108101,,,2015_Oct_17_1059,K,facesParametric,8,59.747494676,
./stim/MorphM4_08_orig.jpg,48,,,,,0,48,48,48,,,,,,,,,,,,,,,,,,,23.0859375,-8.818359375,1,0,0,1.33899116516,,,2015_Oct_17_1059,K,facesParametric,8,59.747494676,
./stim/MorphM8_08_orig.jpg,49,,,,,0,49,49,49,,,,,,,,,,,,,,,,,,,23.0859375,-8.818359375,1,0,0,1.97656989098,,,2015_Oct_17_1059,K,facesParametric,8,59.747494676,
./stim/MorphF10_03_orig.jpg,50,,,,,0,50,50,50,,,,,,,,,,,,,,,,,,,23.14453125,-8.759765625,0,0,1,6.23151612282,,,2015_Oct_17_1059,K,facesParametric,8,59.747494676,
./stim/MorphM5_07_orig.jpg,51,,,,,0,51,51,51,,,,,,,,,,,,,,,,,,,23.203125,-8.759765625,1,0,0,6.83660697937,,,2015_Oct_17_1059,K,facesParametric,8,59.747494676,
./stim/MorphM4_05_orig.jpg,52,,,,,0,52,52,52,,,,,,,,,,,,,,,,,,,23.232421875,-8.7890625,1,0,0,1.088078022,,,2015_Oct_17_1059,K,facesParametric,8,59.747494676,
./stim/MorphM2_05_orig.jpg,53,,,,,0,53,53,53,,,,,,,,,,,,,,,,,,,23.232421875,-8.7890625,0,0,1,2.89872312546,,,2015_Oct_17_1059,K,facesParametric,8,59.747494676,
./stim/MorphM5_02_orig.jpg,54,,,,,0,54,54,54,,,,,,,,,,,,,,,,,,,23.232421875,-8.7890625,0,0,1,1.23858094215,,,2015_Oct_17_1059,K,facesParametric,8,59.747494676,
./stim/MorphM6_00_orig.jpg,55,,,,,0,55,55,55,,,,,,,,,,,,,,,,,,,23.232421875,-8.7890625,0,0,1,1.28913807869,,,2015_Oct_17_1059,K,facesParametric,8,59.747494676,
./stim/MorphM3_07_orig.jpg,56,,,,,0,56,56,56,,,,,,,,,,,,,,,,,,,23.26171875,-8.84765625,1,0,0,25.9077501297,,,2015_Oct_17_1059,K,facesParametric,8,59.747494676,
./stim/MorphF3_05_orig.jpg,57,,,,,0,57,57,57,,,,,,,,,,,,,,,,,,,23.408203125,-8.84765625,0,0,1,9.9372010231,,,2015_Oct_17_1059,K,facesParametric,8,59.747494676,
./stim/MorphM3_06_orig.jpg,58,,,,,0,58,58,58,,,,,,,,,,,,,,,,,,,23.408203125,-8.7890625,0,0,1,9.09907388687,,,2015_Oct_17_1059,K,facesParametric,8,59.747494676,
./stim/MorphF10_06_orig.jpg,59,,,,,0,59,59,59,,,,,,,,,,,,,,,,,,,23.37890625,-8.759765625,1,0,0,4.97668504715,,,2015_Oct_17_1059,K,facesParametric,8,59.747494676,
./stim/MorphF1_10_orig.jpg,60,,,,,0,60,60,60,,,,,,,,,,,,,,,,,,,23.3203125,-8.84765625,1,0,0,5.99789786339,,,2015_Oct_17_1059,K,facesParametric,8,59.747494676,
./stim/MorphM4_09_orig.jpg,61,,,,,0,61,61,61,,,,,,,,,,,,,,,,,,,23.3203125,-8.84765625,1,0,0,2.52845096588,,,2015_Oct_17_1059,K,facesParametric,8,59.747494676,
./stim/MorphF5_07_orig.jpg,62,,,,,0,62,62,62,,,,,,,,,,,,,,,,,,,23.3203125,-8.84765625,1,0,0,1.02132797241,,,2015_Oct_17_1059,K,facesParametric,8,59.747494676,
./stim/MorphM10_02_orig.jpg,63,,,,,0,63,63,63,,,,,,,,,,,,,,,,,,,23.3203125,-8.84765625,0,0,1,2.37666702271,,,2015_Oct_17_1059,K,facesParametric,8,59.747494676,
./stim/MorphF1_02_orig.jpg,64,,,,,0,64,64,64,,,,,,,,,,,,,,,,,,,23.3203125,-8.84765625,0,0,1,4.83984994888,,,2015_Oct_17_1059,K,facesParametric,8,59.747494676,
./stim/MorphM9_02_orig.jpg,65,,,,,0,65,65,65,,,,,,,,,,,,,,,,,,,23.3203125,-8.84765625,0,0,1,4.94221496582,,,2015_Oct_17_1059,K,facesParametric,8,59.747494676,
./stim/MorphF4_01_orig.jpg,66,,,,,0,66,66,66,,,,,,,,,,,,,,,,,,,23.3203125,-8.84765625,0,0,1,1.01992201805,,,2015_Oct_17_1059,K,facesParametric,8,59.747494676,
./stim/MorphM6_03_orig.jpg,67,,,,,0,67,67,67,,,,,,,,,,,,,,,,,,,23.3203125,-8.84765625,0,0,1,1.942497015,,,2015_Oct_17_1059,K,facesParametric,8,59.747494676,
./stim/MorphM4_06_orig.jpg,68,,,,,0,68,68,68,,,,,,,,,,,,,,,,,,,23.3203125,-8.84765625,1,0,0,1.28914380074,,,2015_Oct_17_1059,K,facesParametric,8,59.747494676,
./stim/MorphF6_05_orig.jpg,69,,,,,0,69,69,69,,,,,,,,,,,,,,,,,,,23.291015625,-8.84765625,0,0,1,3.40088915825,,,2015_Oct_17_1059,K,facesParametric,8,59.747494676,
./stim/MorphF5_04_orig.jpg,70,,,,,0,70,70,70,,,,,,,,,,,,,,,,,,,23.291015625,-8.84765625,0,0,1,2.5630800724,,,2015_Oct_17_1059,K,facesParametric,8,59.747494676,
./stim/MorphM3_10_orig.jpg,71,,,,,0,71,71,71,,,,,,,,,,,,,,,,,,,23.291015625,-8.84765625,1,0,0,1.25501298904,,,2015_Oct_17_1059,K,facesParametric,8,59.747494676,
./stim/MorphF10_04_orig.jpg,72,,,,,0,72,72,72,,,,,,,,,,,,,,,,,,,23.291015625,-8.84765625,0,0,1,3.18086600304,,,2015_Oct_17_1059,K,facesParametric,8,59.747494676,
./stim/MorphF6_00_orig.jpg,73,,,,,0,73,73,73,,,,,,,,,,,,,,,,,,,23.291015625,-8.84765625,0,0,1,0.971481084824,,,2015_Oct_17_1059,K,facesParametric,8,59.747494676,
./stim/MorphM8_04_orig.jpg,74,,,,,0,74,74,74,,,,,,,,,,,,,,,,,,,23.291015625,-8.84765625,1,0,0,2.327865839,,,2015_Oct_17_1059,K,facesParametric,8,59.747494676,
./stim/MorphF1_09_orig.jpg,75,,,,,0,75,75,75,,,,,,,,,,,,,,,,,,,23.291015625,-8.84765625,1,0,0,3.9037630558,,,2015_Oct_17_1059,K,facesParametric,8,59.747494676,
./stim/MorphM7_09_orig.jpg,76,,,,,0,76,76,76,,,,,,,,,,,,,,,,,,,23.291015625,-8.84765625,1,0,0,2.17684316635,,,2015_Oct_17_1059,K,facesParametric,8,59.747494676,
./stim/MorphM8_10_orig.jpg,77,,,,,0,77,77,77,,,,,,,,,,,,,,,,,,,23.291015625,-8.84765625,1,0,0,1.12194991112,,,2015_Oct_17_1059,K,facesParametric,8,59.747494676,
./stim/MorphF5_09_orig.jpg,78,,,,,0,78,78,78,,,,,,,,,,,,,,,,,,,23.291015625,-8.84765625,1,0,0,1.03709697723,,,2015_Oct_17_1059,K,facesParametric,8,59.747494676,
./stim/MorphM5_05_orig.jpg,79,,,,,0,79,79,79,,,,,,,,,,,,,,,,,,,23.291015625,-8.84765625,1,0,0,3.33211112022,,,2015_Oct_17_1059,K,facesParametric,8,59.747494676,
./stim/MorphM10_01_orig.jpg,80,,,,,0,80,80,80,,,,,,,,,,,,,,,,,,,23.291015625,-8.84765625,0,0,1,2.17749404907,,,2015_Oct_17_1059,K,facesParametric,8,59.747494676,
./stim/MorphF1_04_orig.jpg,81,,,,,0,81,81,81,,,,,,,,,,,,,,,,,,,23.291015625,-8.84765625,0,0,1,1.08853197098,,,2015_Oct_17_1059,K,facesParametric,8,59.747494676,
./stim/MorphM7_05_orig.jpg,82,,,,,0,82,82,82,,,,,,,,,,,,,,,,,,,23.291015625,-8.84765625,0,0,1,1.55561089516,,,2015_Oct_17_1059,K,facesParametric,8,59.747494676,
./stim/MorphM9_04_orig.jpg,83,,,,,0,83,83,83,,,,,,,,,,,,,,,,,,,23.291015625,-8.84765625,0,0,1,2.69698786736,,,2015_Oct_17_1059,K,facesParametric,8,59.747494676,
./stim/MorphM6_06_orig.jpg,84,,,,,0,84,84,84,,,,,,,,,,,,,,,,,,,23.291015625,-8.84765625,0,0,1,2.64686584473,,,2015_Oct_17_1059,K,facesParametric,8,59.747494676,
./stim/MorphM9_09_orig.jpg,85,,,,,0,85,85,85,,,,,,,,,,,,,,,,,,,23.291015625,-8.84765625,1,0,0,1.28730010986,,,2015_Oct_17_1059,K,facesParametric,8,59.747494676,
./stim/MorphF5_05_orig.jpg,86,,,,,0,86,86,86,,,,,,,,,,,,,,,,,,,23.26171875,-8.876953125,1,0,0,1.59116005898,,,2015_Oct_17_1059,K,facesParametric,8,59.747494676,
./stim/MorphF8_01_orig.jpg,87,,,,,0,87,87,87,,,,,,,,,,,,,,,,,,,23.26171875,-8.876953125,0,0,1,2.83066320419,,,2015_Oct_17_1059,K,facesParametric,8,59.747494676,
./stim/MorphM3_03_orig.jpg,88,,,,,0,88,88,88,,,,,,,,,,,,,,,,,,,23.26171875,-8.876953125,1,0,0,1.37137007713,,,2015_Oct_17_1059,K,facesParametric,8,59.747494676,
./stim/MorphF4_06_orig.jpg,89,,,,,0,89,89,89,,,,,,,,,,,,,,,,,,,23.26171875,-8.876953125,1,0,0,1.22280597687,,,2015_Oct_17_1059,K,facesParametric,8,59.747494676,
./stim/MorphF6_07_orig.jpg,90,,,,,0,90,90,90,,,,,,,,,,,,,,,,,,,23.26171875,-8.876953125,1,0,0,1.45697212219,,,2015_Oct_17_1059,K,facesParametric,8,59.747494676,
./stim/MorphF7_07_orig.jpg,91,,,,,0,91,91,91,,,,,,,,,,,,,,,,,,,23.26171875,-8.876953125,1,0,0,1.28786206245,,,2015_Oct_17_1059,K,facesParametric,8,59.747494676,
./stim/MorphF8_07_orig.jpg,92,,,,,0,92,92,92,,,,,,,,,,,,,,,,,,,23.26171875,-8.876953125,1,0,0,1.35675811768,,,2015_Oct_17_1059,K,facesParametric,8,59.747494676,
./stim/MorphM9_01_orig.jpg,93,,,,,0,93,93,93,,,,,,,,,,,,,,,,,,,23.26171875,-8.876953125,0,0,1,2.37680196762,,,2015_Oct_17_1059,K,facesParametric,8,59.747494676,
./stim/MorphF1_08_orig.jpg,94,,,,,0,94,94,94,,,,,,,,,,,,,,,,,,,23.26171875,-8.876953125,1,0,0,4.28874802589,,,2015_Oct_17_1059,K,facesParametric,8,59.747494676,
./stim/MorphF4_04_orig.jpg,95,,,,,0,95,95,95,,,,,,,,,,,,,,,,,,,23.26171875,-8.876953125,1,0,0,3.98811006546,,,2015_Oct_17_1059,K,facesParametric,8,59.747494676,
./stim/MorphM6_02_orig.jpg,96,,,,,0,96,96,96,,,,,,,,,,,,,,,,,,,23.26171875,-8.876953125,0,0,1,3.21607804298,,,2015_Oct_17_1059,K,facesParametric,8,59.747494676,
./stim/MorphM5_10_orig.jpg,97,,,,,0,97,97,97,,,,,,,,,,,,,,,,,,,23.26171875,-8.876953125,1,0,0,2.07699799538,,,2015_Oct_17_1059,K,facesParametric,8,59.747494676,
./stim/MorphF3_06_orig.jpg,98,,,,,0,98,98,98,,,,,,,,,,,,,,,,,,,23.26171875,-8.935546875,1,0,0,1.27228307724,,,2015_Oct_17_1059,K,facesParametric,8,59.747494676,
./stim/MorphF10_01_orig.jpg,99,,,,,0,99,99,99,,,,,,,,,,,,,,,,,,,23.26171875,-9.0234375,0,0,1,1.58902215958,,,2015_Oct_17_1059,K,facesParametric,8,59.747494676,
./stim/MorphM4_02_orig.jpg,100,,,,,0,100,100,100,,,,,,,,,,,,,,,,,,,23.26171875,-9.0234375,0,0,1,4.38942313194,,,2015_Oct_17_1059,K,facesParametric,8,59.747494676,
./stim/MorphM1_07_orig.jpg,101,,,,,0,101,101,101,,,,,,,,,,,,,,,,,,,23.26171875,-9.0234375,0,0,1,3.1321349144,,,2015_Oct_17_1059,K,facesParametric,8,59.747494676,
./stim/MorphM4_00_orig.jpg,102,,,,,0,102,102,102,,,,,,,,,,,,,,,,,,,23.26171875,-9.0234375,0,0,1,1.47355794907,,,2015_Oct_17_1059,K,facesParametric,8,59.747494676,
./stim/MorphF6_09_orig.jpg,103,,,,,0,103,103,103,,,,,,,,,,,,,,,,,,,23.26171875,-9.0234375,1,0,0,1.15522193909,,,2015_Oct_17_1059,K,facesParametric,8,59.747494676,
./stim/MorphM7_08_orig.jpg,104,,,,,0,104,104,104,,,,,,,,,,,,,,,,,,,23.26171875,-9.0234375,1,0,0,1.20529913902,,,2015_Oct_17_1059,K,facesParametric,8,59.747494676,
./stim/MorphF3_02_orig.jpg,105,,,,,0,105,105,105,,,,,,,,,,,,,,,,,,,23.26171875,-9.0234375,0,0,1,4.95889401436,,,2015_Oct_17_1059,K,facesParametric,8,59.747494676,
./stim/MorphM2_06_orig.jpg,106,,,,,0,106,106,106,,,,,,,,,,,,,,,,,,,23.26171875,-9.0234375,0,0,1,3.38383388519,,,2015_Oct_17_1059,K,facesParametric,8,59.747494676,
./stim/MorphF6_04_orig.jpg,107,,,,,0,107,107,107,,,,,,,,,,,,,,,,,,,23.232421875,-9.052734375,1,0,0,1.30626511574,,,2015_Oct_17_1059,K,facesParametric,8,59.747494676,
./stim/MorphF7_04_orig.jpg,108,,,,,0,108,108,108,,,,,,,,,,,,,,,,,,,23.232421875,-9.052734375,0,0,1,3.38423418999,,,2015_Oct_17_1059,K,facesParametric,8,59.747494676,
./stim/MorphM1_02_orig.jpg,109,,,,,0,109,109,109,,,,,,,,,,,,,,,,,,,23.232421875,-9.052734375,0,0,1,1.42311310768,,,2015_Oct_17_1059,K,facesParametric,8,59.747494676,
./stim/MorphM5_03_orig.jpg,110,,,,,0,110,110,110,,,,,,,,,,,,,,,,,,,23.408203125,-8.61328125,0,0,1,2.24376296997,,,2015_Oct_17_1059,K,facesParametric,8,59.747494676,
./stim/MorphF6_10_orig.jpg,111,,,,,0,111,111,111,,,,,,,,,,,,,,,,,,,23.408203125,-8.49609375,1,0,0,1.05464696884,,,2015_Oct_17_1059,K,facesParametric,8,59.747494676,
./stim/MorphF2_01_orig.jpg,112,,,,,0,112,112,112,,,,,,,,,,,,,,,,,,,23.349609375,-8.96484375,0,0,1,5.6468539238,,,2015_Oct_17_1059,K,facesParametric,8,59.747494676,
./stim/MorphM6_09_orig.jpg,113,,,,,0,113,113,113,,,,,,,,,,,,,,,,,,,23.291015625,-8.994140625,0,0,1,5.00955200195,,,2015_Oct_17_1059,K,facesParametric,8,59.747494676,
./stim/MorphF7_08_orig.jpg,114,,,,,0,114,114,114,,,,,,,,,,,,,,,,,,,23.26171875,-8.994140625,1,0,0,4.75725722313,,,2015_Oct_17_1059,K,facesParametric,8,59.747494676,
./stim/MorphF1_07_orig.jpg,115,,,,,0,115,115,115,,,,,,,,,,,,,,,,,,,23.26171875,-8.994140625,0,0,1,1.47230505943,,,2015_Oct_17_1059,K,facesParametric,8,59.747494676,
./stim/MorphM5_09_orig.jpg,116,,,,,0,116,116,116,,,,,,,,,,,,,,,,,,,23.26171875,-8.994140625,1,0,0,5.34524083138,,,2015_Oct_17_1059,K,facesParametric,8,59.747494676,
./stim/MorphF9_02_orig.jpg,117,,,,,0,117,117,117,,,,,,,,,,,,,,,,,,,23.26171875,-8.994140625,0,0,1,1.15472793579,,,2015_Oct_17_1059,K,facesParametric,8,59.747494676,
./stim/MorphM9_10_orig.jpg,118,,,,,0,118,118,118,,,,,,,,,,,,,,,,,,,23.232421875,-8.994140625,1,0,0,1.07149600983,,,2015_Oct_17_1059,K,facesParametric,8,59.747494676,
./stim/MorphF8_09_orig.jpg,119,,,,,0,119,119,119,,,,,,,,,,,,,,,,,,,23.232421875,-8.994140625,1,0,0,1.38983488083,,,2015_Oct_17_1059,K,facesParametric,8,59.747494676,
./stim/MorphM10_09_orig.jpg,120,,,,,0,120,120,120,,,,,,,,,,,,,,,,,,,23.232421875,-8.994140625,1,0,0,1.33958601952,,,2015_Oct_17_1059,K,facesParametric,8,59.747494676,
./stim/MorphM3_09_orig.jpg,121,,,,,0,121,121,121,,,,,,,,,,,,,,,,,,,23.232421875,-8.994140625,1,0,0,1.05388188362,,,2015_Oct_17_1059,K,facesParametric,8,59.747494676,
./stim/MorphM10_06_orig.jpg,122,,,,,0,122,122,122,,,,,,,,,,,,,,,,,,,23.232421875,-8.994140625,1,0,0,1.35678195953,,,2015_Oct_17_1059,K,facesParametric,8,59.747494676,
./stim/MorphM8_02_orig.jpg,123,,,,,0,123,123,123,,,,,,,,,,,,,,,,,,,23.232421875,-8.994140625,1,0,0,4.28785395622,,,2015_Oct_17_1059,K,facesParametric,8,59.747494676,
./stim/MorphF10_08_orig.jpg,124,,,,,0,124,124,124,,,,,,,,,,,,,,,,,,,23.203125,-8.96484375,1,0,0,2.01009297371,,,2015_Oct_17_1059,K,facesParametric,8,59.747494676,
./stim/MorphM2_08_orig.jpg,125,,,,,0,125,125,125,,,,,,,,,,,,,,,,,,,23.203125,-8.96484375,0,0,1,3.04923892021,,,2015_Oct_17_1059,K,facesParametric,8,59.747494676,
./stim/MorphF3_10_orig.jpg,126,,,,,0,126,126,126,,,,,,,,,,,,,,,,,,,23.203125,-8.96484375,1,0,0,3.41686987877,,,2015_Oct_17_1059,K,facesParametric,8,59.747494676,
./stim/MorphF4_10_orig.jpg,127,,,,,0,127,127,127,,,,,,,,,,,,,,,,,,,23.203125,-8.96484375,1,0,0,1.20550680161,,,2015_Oct_17_1059,K,facesParametric,8,59.747494676,
./stim/MorphM7_00_orig.jpg,128,,,,,0,128,128,128,,,,,,,,,,,,,,,,,,,23.203125,-8.96484375,0,0,1,1.32221794128,,,2015_Oct_17_1059,K,facesParametric,8,59.747494676,
./stim/MorphF9_04_orig.jpg,129,,,,,0,129,129,129,,,,,,,,,,,,,,,,,,,23.203125,-8.96484375,0,0,1,1.28928303719,,,2015_Oct_17_1059,K,facesParametric,8,59.747494676,
./stim/MorphF3_00_orig.jpg,130,,,,,0,130,130,130,,,,,,,,,,,,,,,,,,,23.203125,-8.935546875,0,0,1,4.43897795677,,,2015_Oct_17_1059,K,facesParametric,8,59.747494676,
./stim/MorphF6_06_orig.jpg,131,,,,,0,131,131,131,,,,,,,,,,,,,,,,,,,23.203125,-8.935546875,1,0,0,1.08780884743,,,2015_Oct_17_1059,K,facesParametric,8,59.747494676,
./stim/MorphF9_09_orig.jpg,132,,,,,0,132,132,132,,,,,,,,,,,,,,,,,,,23.203125,-8.935546875,1,0,0,1.62446093559,,,2015_Oct_17_1059,K,facesParametric,8,59.747494676,
./stim/MorphM1_01_orig.jpg,133,,,,,0,133,133,133,,,,,,,,,,,,,,,,,,,23.203125,-8.935546875,0,0,1,1.53896999359,,,2015_Oct_17_1059,K,facesParametric,8,59.747494676,
./stim/MorphF1_05_orig.jpg,134,,,,,0,134,134,134,,,,,,,,,,,,,,,,,,,23.173828125,-8.935546875,0,0,1,2.04331994057,,,2015_Oct_17_1059,K,facesParametric,8,59.747494676,
./stim/MorphM4_10_orig.jpg,135,,,,,0,135,135,135,,,,,,,,,,,,,,,,,,,23.173828125,-8.935546875,1,0,0,1.1383972168,,,2015_Oct_17_1059,K,facesParametric,8,59.747494676,
./stim/MorphF10_10_orig.jpg,136,,,,,0,136,136,136,,,,,,,,,,,,,,,,,,,23.173828125,-8.935546875,1,0,0,1.07170510292,,,2015_Oct_17_1059,K,facesParametric,8,59.747494676,
./stim/MorphM1_05_orig.jpg,137,,,,,0,137,137,137,,,,,,,,,,,,,,,,,,,23.115234375,-8.96484375,0,0,1,3.50163292885,,,2015_Oct_17_1059,K,facesParametric,8,59.747494676,
./stim/MorphM2_02_orig.jpg,138,,,,,0,138,138,138,,,,,,,,,,,,,,,,,,,23.056640625,-8.994140625,0,0,1,2.27765512466,,,2015_Oct_17_1059,K,facesParametric,8,59.747494676,
./stim/MorphF2_03_orig.jpg,139,,,,,0,139,139,139,,,,,,,,,,,,,,,,,,,23.0859375,-9.0234375,1,0,0,3.19960284233,,,2015_Oct_17_1059,K,facesParametric,8,59.747494676,
./stim/MorphM2_10_orig.jpg,140,,,,,0,140,140,140,,,,,,,,,,,,,,,,,,,23.0859375,-9.0234375,1,0,0,1.60801696777,,,2015_Oct_17_1059,K,facesParametric,8,59.747494676,
./stim/MorphM1_06_orig.jpg,141,,,,,0,141,141,141,,,,,,,,,,,,,,,,,,,23.0859375,-9.0234375,0,0,1,1.27248716354,,,2015_Oct_17_1059,K,facesParametric,8,59.747494676,
./stim/MorphM3_04_orig.jpg,142,,,,,0,142,142,142,,,,,,,,,,,,,,,,,,,23.115234375,-9.052734375,1,0,0,1.54049992561,,,2015_Oct_17_1059,K,facesParametric,8,59.747494676,
./stim/MorphM1_04_orig.jpg,143,,,,,0,143,143,143,,,,,,,,,,,,,,,,,,,23.115234375,-9.052734375,0,0,1,4.4068441391,,,2015_Oct_17_1059,K,facesParametric,8,59.747494676,
./stim/MorphF1_00_orig.jpg,144,,,,,0,144,144,144,,,,,,,,,,,,,,,,,,,23.115234375,-9.052734375,0,0,1,2.16077709198,,,2015_Oct_17_1059,K,facesParametric,8,59.747494676,
./stim/MorphF2_00_orig.jpg,145,,,,,0,145,145,145,,,,,,,,,,,,,,,,,,,23.115234375,-9.052734375,1,0,0,1.62209701538,,,2015_Oct_17_1059,K,facesParametric,8,59.747494676,
./stim/MorphM9_06_orig.jpg,146,,,,,0,146,146,146,,,,,,,,,,,,,,,,,,,23.115234375,-9.052734375,1,0,0,1.35725307465,,,2015_Oct_17_1059,K,facesParametric,8,59.747494676,
./stim/MorphM2_01_orig.jpg,147,,,,,0,147,147,147,,,,,,,,,,,,,,,,,,,23.115234375,-9.052734375,0,0,1,3.48198199272,,,2015_Oct_17_1059,K,facesParametric,8,59.747494676,
./stim/MorphF10_02_orig.jpg,148,,,,,0,148,148,148,,,,,,,,,,,,,,,,,,,23.0859375,-9.052734375,0,0,1,1.07133102417,,,2015_Oct_17_1059,K,facesParametric,8,59.747494676,
./stim/MorphF7_01_orig.jpg,149,,,,,0,149,149,149,,,,,,,,,,,,,,,,,,,23.0859375,-9.052734375,0,0,1,1.22201704979,,,2015_Oct_17_1059,K,facesParametric,8,59.747494676,
./stim/MorphF5_10_orig.jpg,150,,,,,0,150,150,150,,,,,,,,,,,,,,,,,,,23.0859375,-9.052734375,1,0,0,1.05486798286,,,2015_Oct_17_1059,K,facesParametric,8,59.747494676,
./stim/MorphM2_00_orig.jpg,151,,,,,0,151,151,151,,,,,,,,,,,,,,,,,,,23.056640625,-9.052734375,0,0,1,1.10495901108,,,2015_Oct_17_1059,K,facesParametric,8,59.747494676,
./stim/MorphF4_02_orig.jpg,152,,,,,0,152,152,152,,,,,,,,,,,,,,,,,,,23.02734375,-9.08203125,0,0,1,3.68475198746,,,2015_Oct_17_1059,K,facesParametric,8,59.747494676,
./stim/MorphF2_10_orig.jpg,153,,,,,0,153,153,153,,,,,,,,,,,,,,,,,,,22.998046875,-9.111328125,1,0,0,1.08791589737,,,2015_Oct_17_1059,K,facesParametric,8,59.747494676,
./stim/MorphM10_03_orig.jpg,154,,,,,0,154,154,154,,,,,,,,,,,,,,,,,,,22.91015625,-9.140625,0,0,1,1.85810613632,,,2015_Oct_17_1059,K,facesParametric,8,59.747494676,
./stim/MorphM7_02_orig.jpg,155,,,,,0,155,155,155,,,,,,,,,,,,,,,,,,,22.8515625,-9.140625,0,0,1,2.67810201645,,,2015_Oct_17_1059,K,facesParametric,8,59.747494676,
./stim/MorphF8_04_orig.jpg,156,,,,,0,156,156,156,,,,,,,,,,,,,,,,,,,22.8515625,-9.140625,0,0,1,1.74213385582,,,2015_Oct_17_1059,K,facesParametric,8,59.747494676,
./stim/MorphF5_00_orig.jpg,157,,,,,0,157,157,157,,,,,,,,,,,,,,,,,,,22.8515625,-9.140625,0,0,1,3.21671700478,,,2015_Oct_17_1059,K,facesParametric,8,59.747494676,
./stim/MorphF7_10_orig.jpg,158,,,,,0,158,158,158,,,,,,,,,,,,,,,,,,,22.8515625,-9.140625,1,0,0,1.138256073,,,2015_Oct_17_1059,K,facesParametric,8,59.747494676,
./stim/MorphM3_00_orig.jpg,159,,,,,0,159,159,159,,,,,,,,,,,,,,,,,,,22.8515625,-9.140625,1,0,0,1.05462503433,,,2015_Oct_17_1059,K,facesParametric,8,59.747494676,
./stim/MorphF2_04_orig.jpg,160,,,,,0,160,160,160,,,,,,,,,,,,,,,,,,,22.8515625,-9.140625,1,0,0,2.0444009304,,,2015_Oct_17_1059,K,facesParametric,8,59.747494676,
./stim/MorphF10_05_orig.jpg,161,,,,,0,161,161,161,,,,,,,,,,,,,,,,,,,22.8515625,-9.140625,1,0,0,1.05178594589,,,2015_Oct_17_1059,K,facesParametric,8,59.747494676,
./stim/MorphF7_06_orig.jpg,162,,,,,0,162,162,162,,,,,,,,,,,,,,,,,,,22.8515625,-9.140625,0,0,1,1.54076099396,,,2015_Oct_17_1059,K,facesParametric,8,59.747494676,
./stim/MorphF5_02_orig.jpg,163,,,,,0,163,163,163,,,,,,,,,,,,,,,,,,,22.8515625,-9.140625,0,0,1,1.30584692955,,,2015_Oct_17_1059,K,facesParametric,8,59.747494676,
./stim/MorphM6_07_orig.jpg,164,,,,,0,164,164,164,,,,,,,,,,,,,,,,,,,23.26171875,-9.2578125,0,0,1,4.80764484406,,,2015_Oct_17_1059,K,facesParametric,8,59.747494676,
./stim/MorphF8_00_orig.jpg,165,,,,,0,165,165,165,,,,,,,,,,,,,,,,,,,23.291015625,-9.19921875,0,0,1,1.00423693657,,,2015_Oct_17_1059,K,facesParametric,8,59.747494676,
./stim/MorphF7_02_orig.jpg,166,,,,,0,166,166,166,,,,,,,,,,,,,,,,,,,23.232421875,-9.140625,0,0,1,1.54026699066,,,2015_Oct_17_1059,K,facesParametric,8,59.747494676,
./stim/MorphM8_01_orig.jpg,167,,,,,0,167,167,167,,,,,,,,,,,,,,,,,,,23.203125,-9.169921875,0,0,1,1.42319583893,,,2015_Oct_17_1059,K,facesParametric,8,59.747494676,
./stim/MorphM1_08_orig.jpg,168,,,,,0,168,168,168,,,,,,,,,,,,,,,,,,,23.232421875,-9.140625,1,0,0,1.25492095947,,,2015_Oct_17_1059,K,facesParametric,8,59.747494676,
./stim/MorphF2_09_orig.jpg,169,,,,,0,169,169,169,,,,,,,,,,,,,,,,,,,23.232421875,-9.140625,1,0,0,1.00485181808,,,2015_Oct_17_1059,K,facesParametric,8,59.747494676,
./stim/MorphM1_10_orig.jpg,170,,,,,0,170,170,170,,,,,,,,,,,,,,,,,,,23.232421875,-9.140625,1,0,0,1.23902893066,,,2015_Oct_17_1059,K,facesParametric,8,59.747494676,
./stim/MorphF4_00_orig.jpg,171,,,,,0,171,171,171,,,,,,,,,,,,,,,,,,,23.232421875,-9.140625,0,0,1,2.56284999847,,,2015_Oct_17_1059,K,facesParametric,8,59.747494676,
./stim/MorphM7_06_orig.jpg,172,,,,,0,172,172,172,,,,,,,,,,,,,,,,,,,23.232421875,-9.140625,1,0,0,7.33955788612,,,2015_Oct_17_1059,K,facesParametric,8,59.747494676,
./stim/MorphF2_05_orig.jpg,173,,,,,0,173,173,173,,,,,,,,,,,,,,,,,,,23.408203125,-8.73046875,1,0,0,6.03308391571,,,2015_Oct_17_1059,K,facesParametric,8,59.747494676,
./stim/MorphF3_01_orig.jpg,174,,,,,0,174,174,174,,,,,,,,,,,,,,,,,,,23.408203125,-8.701171875,0,0,1,6.31503796577,,,2015_Oct_17_1059,K,facesParametric,8,59.747494676,
./stim/MorphM3_08_orig.jpg,175,,,,,0,175,175,175,,,,,,,,,,,,,,,,,,,23.408203125,-8.701171875,1,0,0,1.23854494095,,,2015_Oct_17_1059,K,facesParametric,8,59.747494676,
./stim/MorphM2_03_orig.jpg,176,,,,,0,176,176,176,,,,,,,,,,,,,,,,,,,23.408203125,-8.701171875,0,0,1,3.09909701347,,,2015_Oct_17_1059,K,facesParametric,8,59.747494676,
./stim/MorphF9_10_orig.jpg,177,,,,,0,177,177,177,,,,,,,,,,,,,,,,,,,23.408203125,-8.671875,1,0,0,3.40138483047,,,2015_Oct_17_1059,K,facesParametric,8,59.747494676,
./stim/MorphM8_09_orig.jpg,178,,,,,0,178,178,178,,,,,,,,,,,,,,,,,,,23.408203125,-8.701171875,1,0,0,1.12142801285,,,2015_Oct_17_1059,K,facesParametric,8,59.747494676,
./stim/MorphF9_00_orig.jpg,179,,,,,0,179,179,179,,,,,,,,,,,,,,,,,,,23.408203125,-8.701171875,0,0,1,1.85893297195,,,2015_Oct_17_1059,K,facesParametric,8,59.747494676,
./stim/MorphM10_00_orig.jpg,180,,,,,0,180,180,180,,,,,,,,,,,,,,,,,,,23.37890625,-8.701171875,0,0,1,1.12069106102,,,2015_Oct_17_1059,K,facesParametric,8,59.747494676,
./stim/MorphF8_06_orig.jpg,181,,,,,0,181,181,181,,,,,,,,,,,,,,,,,,,23.37890625,-8.701171875,0,0,1,1.82527399063,,,2015_Oct_17_1059,K,facesParametric,8,59.747494676,
./stim/MorphM7_04_orig.jpg,182,,,,,0,182,182,182,,,,,,,,,,,,,,,,,,,23.37890625,-8.701171875,0,0,1,3.26691389084,,,2015_Oct_17_1059,K,facesParametric,8,59.747494676,
./stim/MorphM2_09_orig.jpg,183,,,,,0,183,183,183,,,,,,,,,,,,,,,,,,,23.37890625,-8.701171875,1,0,0,1.39009594917,,,2015_Oct_17_1059,K,facesParametric,8,59.747494676,
./stim/MorphM8_06_orig.jpg,184,,,,,0,184,184,184,,,,,,,,,,,,,,,,,,,23.37890625,-8.701171875,1,0,0,2.14413404465,,,2015_Oct_17_1059,K,facesParametric,8,59.747494676,
./stim/MorphF10_00_orig.jpg,185,,,,,0,185,185,185,,,,,,,,,,,,,,,,,,,23.37890625,-8.701171875,0,0,1,1.30595016479,,,2015_Oct_17_1059,K,facesParametric,8,59.747494676,
./stim/MorphM10_05_orig.jpg,186,,,,,0,186,186,186,,,,,,,,,,,,,,,,,,,23.291015625,-8.701171875,1,0,0,2.26128196716,,,2015_Oct_17_1059,K,facesParametric,8,59.747494676,
./stim/MorphF5_08_orig.jpg,187,,,,,0,187,187,187,,,,,,,,,,,,,,,,,,,23.291015625,-8.701171875,1,0,0,1.22121906281,,,2015_Oct_17_1059,K,facesParametric,8,59.747494676,
./stim/MorphF3_08_orig.jpg,188,,,,,0,188,188,188,,,,,,,,,,,,,,,,,,,23.291015625,-8.701171875,1,0,0,2.56233310699,,,2015_Oct_17_1059,K,facesParametric,8,59.747494676,
./stim/MorphM9_05_orig.jpg,189,,,,,0,189,189,189,,,,,,,,,,,,,,,,,,,23.291015625,-8.701171875,1,0,0,1.28761315346,,,2015_Oct_17_1059,K,facesParametric,8,59.747494676,
./stim/MorphM5_01_orig.jpg,190,,,,,0,190,190,190,,,,,,,,,,,,,,,,,,,23.291015625,-8.701171875,0,0,1,2.93205595016,,,2015_Oct_17_1059,K,facesParametric,8,59.747494676,
./stim/MorphF8_05_orig.jpg,191,,,,,0,191,191,191,,,,,,,,,,,,,,,,,,,23.291015625,-8.701171875,0,0,1,1.57394313812,,,2015_Oct_17_1059,K,facesParametric,8,59.747494676,
./stim/MorphM6_01_orig.jpg,192,,,,,0,192,192,192,,,,,,,,,,,,,,,,,,,23.26171875,-8.73046875,0,0,1,1.27281618118,,,2015_Oct_17_1059,K,facesParametric,8,59.747494676,
./stim/MorphM5_04_orig.jpg,193,,,,,0,193,193,193,,,,,,,,,,,,,,,,,,,23.26171875,-8.73046875,0,0,1,5.64479780197,,,2015_Oct_17_1059,K,facesParametric,8,59.747494676,
./stim/MorphF4_05_orig.jpg,194,,,,,0,194,194,194,,,,,,,,,,,,,,,,,,,23.26171875,-8.73046875,1,0,0,2.29311919212,,,2015_Oct_17_1059,K,facesParametric,8,59.747494676,
./stim/MorphM10_08_orig.jpg,195,,,,,0,195,195,195,,,,,,,,,,,,,,,,,,,23.26171875,-8.73046875,1,0,0,0.985342979431,,,2015_Oct_17_1059,K,facesParametric,8,59.747494676,
./stim/MorphM8_03_orig.jpg,196,,,,,0,196,196,196,,,,,,,,,,,,,,,,,,,23.26171875,-8.73046875,1,0,0,1.02085399628,,,2015_Oct_17_1059,K,facesParametric,8,59.747494676,
./stim/MorphM5_00_orig.jpg,197,,,,,0,197,197,197,,,,,,,,,,,,,,,,,,,23.26171875,-8.73046875,0,0,1,3.01445817947,,,2015_Oct_17_1059,K,facesParametric,8,59.747494676,
./stim/MorphM7_03_orig.jpg,198,,,,,0,198,198,198,,,,,,,,,,,,,,,,,,,23.232421875,-8.701171875,0,0,1,1.30466389656,,,2015_Oct_17_1059,K,facesParametric,8,59.747494676,
./stim/MorphF9_07_orig.jpg,199,,,,,0,199,199,199,,,,,,,,,,,,,,,,,,,23.232421875,-8.701171875,1,0,0,2.91378903389,,,2015_Oct_17_1059,K,facesParametric,8,59.747494676,
./stim/MorphM8_05_orig.jpg,200,,,,,0,200,200,200,,,,,,,,,,,,,,,,,,,23.26171875,-8.671875,1,0,0,4.35514092445,,,2015_Oct_17_1059,K,facesParametric,8,59.747494676,
./stim/MorphM3_02_orig.jpg,201,,,,,0,201,201,201,,,,,,,,,,,,,,,,,,,23.26171875,-8.671875,1,0,0,1.00412297249,,,2015_Oct_17_1059,K,facesParametric,8,59.747494676,
./stim/MorphF8_02_orig.jpg,202,,,,,0,202,202,202,,,,,,,,,,,,,,,,,,,23.26171875,-8.671875,0,0,1,3.28393316269,,,2015_Oct_17_1059,K,facesParametric,8,59.747494676,
./stim/MorphM6_05_orig.jpg,203,,,,,0,203,203,203,,,,,,,,,,,,,,,,,,,23.26171875,-8.671875,0,0,1,2.94730591774,,,2015_Oct_17_1059,K,facesParametric,8,59.747494676,
./stim/MorphM4_03_orig.jpg,204,,,,,0,204,204,204,,,,,,,,,,,,,,,,,,,23.26171875,-8.671875,0,0,1,1.3895471096,,,2015_Oct_17_1059,K,facesParametric,8,59.747494676,
./stim/MorphF2_07_orig.jpg,205,,,,,0,205,205,205,,,,,,,,,,,,,,,,,,,23.232421875,-8.671875,1,0,0,1.12007117271,,,2015_Oct_17_1059,K,facesParametric,8,59.747494676,
./stim/MorphM7_10_orig.jpg,206,,,,,0,206,206,206,,,,,,,,,,,,,,,,,,,23.203125,-8.701171875,1,0,0,1.20535993576,,,2015_Oct_17_1059,K,facesParametric,8,59.747494676,
./stim/MorphF4_09_orig.jpg,207,,,,,0,207,207,207,,,,,,,,,,,,,,,,,,,23.203125,-8.701171875,1,0,0,1.10495090485,,,2015_Oct_17_1059,K,facesParametric,8,59.747494676,
./stim/MorphM1_00_orig.jpg,208,,,,,0,208,208,208,,,,,,,,,,,,,,,,,,,23.203125,-8.701171875,0,0,1,1.33781290054,,,2015_Oct_17_1059,K,facesParametric,8,59.747494676,
./stim/MorphF7_09_orig.jpg,209,,,,,0,209,209,209,,,,,,,,,,,,,,,,,,,23.173828125,-8.7890625,1,0,0,1.17053985596,,,2015_Oct_17_1059,K,facesParametric,8,59.747494676,
./stim/MorphF3_07_orig.jpg,210,,,,,0,210,210,210,,,,,,,,,,,,,,,,,,,23.173828125,-8.7890625,1,0,0,2.21233892441,,,2015_Oct_17_1059,K,facesParametric,8,59.747494676,
./stim/MorphM2_07_orig.jpg,211,,,,,0,211,211,211,,,,,,,,,,,,,,,,,,,23.203125,-8.759765625,0,0,1,2.41034078598,,,2015_Oct_17_1059,K,facesParametric,8,59.747494676,
./stim/MorphF10_09_orig.jpg,212,,,,,0,212,212,212,,,,,,,,,,,,,,,,,,,23.203125,-8.759765625,1,0,0,1.62376213074,,,2015_Oct_17_1059,K,facesParametric,8,59.747494676,
./stim/MorphM10_10_orig.jpg,213,,,,,0,213,213,213,,,,,,,,,,,,,,,,,,,23.203125,-8.759765625,1,0,0,0.904297113419,,,2015_Oct_17_1059,K,facesParametric,8,59.747494676,
./stim/MorphF4_07_orig.jpg,214,,,,,0,214,214,214,,,,,,,,,,,,,,,,,,,23.203125,-8.759765625,1,0,0,0.969774007797,,,2015_Oct_17_1059,K,facesParametric,8,59.747494676,
./stim/MorphM6_04_orig.jpg,215,,,,,0,215,215,215,,,,,,,,,,,,,,,,,,,23.203125,-8.759765625,0,0,1,5.47935295105,,,2015_Oct_17_1059,K,facesParametric,8,59.747494676,
./stim/MorphF1_06_orig.jpg,216,,,,,0,216,216,216,,,,,,,,,,,,,,,,,,,23.203125,-8.759765625,0,0,1,1.27172112465,,,2015_Oct_17_1059,K,facesParametric,8,59.747494676,
./stim/MorphM3_01_orig.jpg,217,,,,,0,217,217,217,,,,,,,,,,,,,,,,,,,23.203125,-8.759765625,0,0,1,3.18110895157,,,2015_Oct_17_1059,K,facesParametric,8,59.747494676,
./stim/MorphF9_03_orig.jpg,218,,,,,0,218,218,218,,,,,,,,,,,,,,,,,,,23.203125,-8.759765625,0,0,1,1.10493206978,,,2015_Oct_17_1059,K,facesParametric,8,59.747494676,
./stim/MorphM9_07_orig.jpg,219,,,,,0,219,219,219,,,,,,,,,,,,,,,,,,,23.203125,-8.759765625,1,0,0,2.22850084305,,,2015_Oct_17_1059,K,facesParametric,8,59.747494676,
,,,,,,,,,,,,,,,,,,,,,,,,,,,,,,,,,,return,41.6644201279,2015_Oct_17_1059,K,facesParametric,8,59.747494676,
./stim/MorphF1_06_orig.jpg,0,,,,,,,,,0,0,0,0,,,,,,,,,,,,,,,23.056640625,-8.994140625,0,0,1,4.91916799545,,,2015_Oct_17_1059,K,facesParametric,8,59.747494676,
./stim/MorphF7_08_orig.jpg,1,,,,,,,,,0,1,1,1,,,,,,,,,,,,,,,23.02734375,-9.111328125,0,0,1,3.14909482002,,,2015_Oct_17_1059,K,facesParametric,8,59.747494676,
./stim/MorphF1_08_orig.jpg,2,,,,,,,,,0,2,2,2,,,,,,,,,,,,,,,22.998046875,-9.111328125,0,0,1,1.37243294716,,,2015_Oct_17_1059,K,facesParametric,8,59.747494676,
./stim/MorphM3_01_orig.jpg,3,,,,,,,,,0,3,3,3,,,,,,,,,,,,,,,22.91015625,-9.0234375,0,0,1,3.43550801277,,,2015_Oct_17_1059,K,facesParametric,8,59.747494676,
./stim/MorphM4_04_orig.jpg,4,,,,,,,,,0,4,4,4,,,,,,,,,,,,,,,22.939453125,-9.0234375,0,0,1,2.1768219471,,,2015_Oct_17_1059,K,facesParametric,8,59.747494676,
./stim/MorphM10_01_orig.jpg,5,,,,,,,,,0,5,5,5,,,,,,,,,,,,,,,22.939453125,-9.0234375,0,0,1,1.63884711266,,,2015_Oct_17_1059,K,facesParametric,8,59.747494676,
./stim/MorphM2_01_orig.jpg,6,,,,,,,,,0,6,6,6,,,,,,,,,,,,,,,22.939453125,-9.0234375,0,0,1,2.01061606407,,,2015_Oct_17_1059,K,facesParametric,8,59.747494676,
./stim/MorphF9_06_orig.jpg,7,,,,,,,,,0,7,7,7,,,,,,,,,,,,,,,22.939453125,-9.0234375,0,0,1,1.6411459446,,,2015_Oct_17_1059,K,facesParametric,8,59.747494676,
./stim/MorphM10_09_orig.jpg,8,,,,,,,,,0,8,8,8,,,,,,,,,,,,,,,23.02734375,-9.0234375,1,0,0,1.67260599136,,,2015_Oct_17_1059,K,facesParametric,8,59.747494676,
./stim/MorphM6_03_orig.jpg,9,,,,,,,,,0,9,9,9,,,,,,,,,,,,,,,23.02734375,-9.0234375,0,0,1,3.0131509304,,,2015_Oct_17_1059,K,facesParametric,8,59.747494676,
./stim/MorphF2_07_orig.jpg,10,,,,,,,,,0,10,10,10,,,,,,,,,,,,,,,22.998046875,-9.052734375,1,0,0,1.27254390717,,,2015_Oct_17_1059,K,facesParametric,8,59.747494676,
./stim/MorphM9_03_orig.jpg,11,,,,,,,,,0,11,11,11,,,,,,,,,,,,,,,21.005859375,-10.13671875,0,0,1,13.1383609772,,,2015_Oct_17_1059,K,facesParametric,8,59.747494676,
./stim/MorphM7_02_orig.jpg,12,,,,,,,,,0,12,12,12,,,,,,,,,,,,,,,20.7421875,-10.13671875,0,0,1,2.41253185272,,,2015_Oct_17_1059,K,facesParametric,8,59.747494676,
./stim/MorphF8_06_orig.jpg,13,,,,,,,,,0,13,13,13,,,,,,,,,,,,,,,20.91796875,-10.048828125,0,0,1,4.92434597015,,,2015_Oct_17_1059,K,facesParametric,8,59.747494676,
./stim/MorphM5_05_orig.jpg,14,,,,,,,,,0,14,14,14,,,,,,,,,,,,,,,20.830078125,-9.55078125,0,0,1,8.66271114349,,,2015_Oct_17_1059,K,facesParametric,8,59.747494676,
./stim/MorphM10_04_orig.jpg,15,,,,,,,,,0,15,15,15,,,,,,,,,,,,,,,20.44921875,-9.521484375,0,0,1,5.31014895439,,,2015_Oct_17_1059,K,facesParametric,8,59.747494676,
./stim/MorphM7_10_orig.jpg,16,,,,,,,,,0,16,16,16,,,,,,,,,,,,,,,20.68359375,-9.755859375,1,0,0,2.88136386871,,,2015_Oct_17_1059,K,facesParametric,8,59.747494676,
./stim/MorphF1_07_orig.jpg,17,,,,,,,,,0,17,17,17,,,,,,,,,,,,,,,20.68359375,-9.755859375,1,0,0,1.522990942,,,2015_Oct_17_1059,K,facesParametric,8,59.747494676,
./stim/MorphM9_10_orig.jpg,18,,,,,,,,,0,18,18,18,,,,,,,,,,,,,,,20.771484375,-9.814453125,1,0,0,2.62965893745,,,2015_Oct_17_1059,K,facesParametric,8,59.747494676,
./stim/MorphM3_09_orig.jpg,19,,,,,,,,,0,19,19,19,,,,,,,,,,,,,,,20.771484375,-9.814453125,1,0,0,1.30531692505,,,2015_Oct_17_1059,K,facesParametric,8,59.747494676,
./stim/MorphF5_05_orig.jpg,20,,,,,,,,,0,20,20,20,,,,,,,,,,,,,,,20.80078125,-9.84375,1,0,0,1.1376760006,,,2015_Oct_17_1059,K,facesParametric,8,59.747494676,
./stim/MorphF4_10_orig.jpg,21,,,,,,,,,0,21,21,21,,,,,,,,,,,,,,,20.80078125,-9.84375,1,0,0,1.10509800911,,,2015_Oct_17_1059,K,facesParametric,8,59.747494676,
./stim/MorphF5_03_orig.jpg,22,,,,,,,,,0,22,22,22,,,,,,,,,,,,,,,20.80078125,-9.84375,0,0,1,4.80867815018,,,2015_Oct_17_1059,K,facesParametric,8,59.747494676,
./stim/MorphM1_06_orig.jpg,23,,,,,,,,,0,23,23,23,,,,,,,,,,,,,,,20.80078125,-9.84375,0,0,1,1.84137511253,,,2015_Oct_17_1059,K,facesParametric,8,59.747494676,
./stim/MorphF10_03_orig.jpg,24,,,,,,,,,0,24,24,24,,,,,,,,,,,,,,,20.771484375,-9.873046875,0,0,1,2.02676200867,,,2015_Oct_17_1059,K,facesParametric,8,59.747494676,
./stim/MorphF8_08_orig.jpg,25,,,,,,,,,0,25,25,25,,,,,,,,,,,,,,,20.80078125,-9.873046875,0,0,1,2.36193704605,,,2015_Oct_17_1059,K,facesParametric,8,59.747494676,
./stim/MorphM8_10_orig.jpg,26,,,,,,,,,0,26,26,26,,,,,,,,,,,,,,,20.80078125,-9.873046875,1,0,0,1.84221196175,,,2015_Oct_17_1059,K,facesParametric,8,59.747494676,
./stim/MorphM4_02_orig.jpg,27,,,,,,,,,0,27,27,27,,,,,,,,,,,,,,,20.80078125,-9.873046875,0,0,1,2.2109079361,,,2015_Oct_17_1059,K,facesParametric,8,59.747494676,
./stim/MorphM5_07_orig.jpg,28,,,,,,,,,0,28,28,28,,,,,,,,,,,,,,,20.80078125,-9.873046875,0,0,1,3.31755805016,,,2015_Oct_17_1059,K,facesParametric,8,59.747494676,
./stim/MorphF10_07_orig.jpg,29,,,,,,,,,0,29,29,29,,,,,,,,,,,,,,,20.7421875,-9.873046875,1,0,0,2.81282806396,,,2015_Oct_17_1059,K,facesParametric,8,59.747494676,
./stim/MorphF6_05_orig.jpg,30,,,,,,,,,0,30,30,30,,,,,,,,,,,,,,,20.7421875,-9.873046875,1,0,0,3.19873189926,,,2015_Oct_17_1059,K,facesParametric,8,59.747494676,
./stim/MorphM1_07_orig.jpg,31,,,,,,,,,0,31,31,31,,,,,,,,,,,,,,,20.68359375,-9.873046875,0,0,1,1.90907788277,,,2015_Oct_17_1059,K,facesParametric,8,59.747494676,
./stim/MorphF5_07_orig.jpg,32,,,,,,,,,0,32,32,32,,,,,,,,,,,,,,,20.625,-9.84375,1,0,0,2.3285908699,,,2015_Oct_17_1059,K,facesParametric,8,59.747494676,
./stim/MorphF2_06_orig.jpg,33,,,,,,,,,0,33,33,33,,,,,,,,,,,,,,,20.625,-9.84375,1,0,0,1.00402903557,,,2015_Oct_17_1059,K,facesParametric,8,59.747494676,
./stim/MorphF6_06_orig.jpg,34,,,,,,,,,0,34,34,34,,,,,,,,,,,,,,,20.625,-9.84375,1,0,0,1.10502886772,,,2015_Oct_17_1059,K,facesParametric,8,59.747494676,
./stim/MorphF9_02_orig.jpg,35,,,,,,,,,0,35,35,35,,,,,,,,,,,,,,,20.56640625,-9.84375,0,0,1,1.1865298748,,,2015_Oct_17_1059,K,facesParametric,8,59.747494676,
./stim/MorphM9_01_orig.jpg,36,,,,,,,,,0,36,36,36,,,,,,,,,,,,,,,20.56640625,-9.78515625,0,0,1,1.45706295967,,,2015_Oct_17_1059,K,facesParametric,8,59.747494676,
./stim/MorphF7_07_orig.jpg,37,,,,,,,,,0,37,37,37,,,,,,,,,,,,,,,20.595703125,-9.7265625,0,0,1,2.5290760994,,,2015_Oct_17_1059,K,facesParametric,8,59.747494676,
./stim/MorphF5_09_orig.jpg,38,,,,,,,,,0,38,38,38,,,,,,,,,,,,,,,20.56640625,-9.697265625,1,0,0,1.20554280281,,,2015_Oct_17_1059,K,facesParametric,8,59.747494676,
./stim/MorphM5_10_orig.jpg,39,,,,,,,,,0,39,39,39,,,,,,,,,,,,,,,20.56640625,-9.697265625,1,0,0,4.44029998779,,,2015_Oct_17_1059,K,facesParametric,8,59.747494676,
./stim/MorphM8_03_orig.jpg,40,,,,,,,,,0,40,40,40,,,,,,,,,,,,,,,20.595703125,-9.7265625,0,0,1,2.8973429203,,,2015_Oct_17_1059,K,facesParametric,8,59.747494676,
./stim/MorphM5_04_orig.jpg,41,,,,,,,,,0,41,41,41,,,,,,,,,,,,,,,20.595703125,-9.7265625,0,0,1,1.37326002121,,,2015_Oct_17_1059,K,facesParametric,8,59.747494676,
./stim/MorphF6_08_orig.jpg,42,,,,,,,,,0,42,42,42,,,,,,,,,,,,,,,20.56640625,-9.609375,1,0,0,1.08773899078,,,2015_Oct_17_1059,K,facesParametric,8,59.747494676,
./stim/MorphF9_03_orig.jpg,43,,,,,,,,,0,43,43,43,,,,,,,,,,,,,,,20.56640625,-9.609375,0,0,1,1.1721432209,,,2015_Oct_17_1059,K,facesParametric,8,59.747494676,
./stim/MorphM1_03_orig.jpg,44,,,,,,,,,0,44,44,44,,,,,,,,,,,,,,,20.5078125,-9.638671875,0,0,1,1.12083721161,,,2015_Oct_17_1059,K,facesParametric,8,59.747494676,
./stim/MorphM2_02_orig.jpg,45,,,,,,,,,0,45,45,45,,,,,,,,,,,,,,,20.56640625,-9.580078125,0,0,1,3.76981401443,,,2015_Oct_17_1059,K,facesParametric,8,59.747494676,
./stim/MorphF5_06_orig.jpg,46,,,,,,,,,0,46,46,46,,,,,,,,,,,,,,,20.5078125,-9.609375,1,0,0,1.18811893463,,,2015_Oct_17_1059,K,facesParametric,8,59.747494676,
./stim/MorphM1_09_orig.jpg,47,,,,,,,,,0,47,47,47,,,,,,,,,,,,,,,20.5078125,-9.609375,0,0,1,7.50721693039,,,2015_Oct_17_1059,K,facesParametric,8,59.747494676,
./stim/MorphM9_08_orig.jpg,48,,,,,,,,,0,48,48,48,,,,,,,,,,,,,,,20.5078125,-9.609375,1,0,0,2.9301970005,,,2015_Oct_17_1059,K,facesParametric,8,59.747494676,
./stim/MorphF6_00_orig.jpg,49,,,,,,,,,0,49,49,49,,,,,,,,,,,,,,,20.537109375,-9.638671875,0,0,1,1.42377209663,,,2015_Oct_17_1059,K,facesParametric,8,59.747494676,
./stim/MorphF7_03_orig.jpg,50,,,,,,,,,0,50,50,50,,,,,,,,,,,,,,,20.537109375,-9.638671875,0,0,1,1.35617399216,,,2015_Oct_17_1059,K,facesParametric,8,59.747494676,
./stim/MorphM6_07_orig.jpg,51,,,,,,,,,0,51,51,51,,,,,,,,,,,,,,,20.44921875,-9.66796875,0,0,1,5.16049599648,,,2015_Oct_17_1059,K,facesParametric,8,59.747494676,
./stim/MorphF4_09_orig.jpg,52,,,,,,,,,0,52,52,52,,,,,,,,,,,,,,,20.478515625,-9.638671875,1,0,0,0.987725019455,,,2015_Oct_17_1059,K,facesParametric,8,59.747494676,
./stim/MorphF3_04_orig.jpg,53,,,,,,,,,0,53,53,53,,,,,,,,,,,,,,,20.478515625,-9.638671875,0,0,1,1.3070268631,,,2015_Oct_17_1059,K,facesParametric,8,59.747494676,
./stim/MorphM10_03_orig.jpg,54,,,,,,,,,0,54,54,54,,,,,,,,,,,,,,,20.478515625,-9.580078125,1,0,0,2.86395096779,,,2015_Oct_17_1059,K,facesParametric,8,59.747494676,
./stim/MorphF10_09_orig.jpg,55,,,,,,,,,0,55,55,55,,,,,,,,,,,,,,,20.478515625,-9.580078125,1,0,0,0.969933986664,,,2015_Oct_17_1059,K,facesParametric,8,59.747494676,
./stim/MorphF8_10_orig.jpg,56,,,,,,,,,0,56,56,56,,,,,,,,,,,,,,,20.478515625,-9.580078125,1,0,0,1.69204688072,,,2015_Oct_17_1059,K,facesParametric,8,59.747494676,
./stim/MorphM10_05_orig.jpg,57,,,,,,,,,0,57,57,57,,,,,,,,,,,,,,,20.478515625,-9.580078125,1,0,0,1.05361795425,,,2015_Oct_17_1059,K,facesParametric,8,59.747494676,
./stim/MorphM1_02_orig.jpg,58,,,,,,,,,0,58,58,58,,,,,,,,,,,,,,,20.44921875,-9.609375,0,0,1,1.50601816177,,,2015_Oct_17_1059,K,facesParametric,8,59.747494676,
./stim/MorphM10_00_orig.jpg,59,,,,,,,,,0,59,59,59,,,,,,,,,,,,,,,20.44921875,-9.609375,1,0,0,1.03701996803,,,2015_Oct_17_1059,K,facesParametric,8,59.747494676,
./stim/MorphM4_05_orig.jpg,60,,,,,,,,,0,60,60,60,,,,,,,,,,,,,,,21.03515625,-9.462890625,1,0,0,11.3620979786,,,2015_Oct_17_1059,K,facesParametric,8,59.747494676,
./stim/MorphM1_10_orig.jpg,61,,,,,,,,,0,61,61,61,,,,,,,,,,,,,,,21.03515625,-9.462890625,0,0,1,9.61882615089,,,2015_Oct_17_1059,K,facesParametric,8,59.747494676,
./stim/MorphF3_03_orig.jpg,62,,,,,,,,,0,62,62,62,,,,,,,,,,,,,,,21.03515625,-9.462890625,0,0,1,1.40670490265,,,2015_Oct_17_1059,K,facesParametric,8,59.747494676,
./stim/MorphF6_03_orig.jpg,63,,,,,,,,,0,63,63,63,,,,,,,,,,,,,,,21.03515625,-9.462890625,0,0,1,2.02658510208,,,2015_Oct_17_1059,K,facesParametric,8,59.747494676,
./stim/MorphF8_09_orig.jpg,64,,,,,,,,,0,64,64,64,,,,,,,,,,,,,,,21.03515625,-9.462890625,1,0,0,1.18820381165,,,2015_Oct_17_1059,K,facesParametric,8,59.747494676,
./stim/MorphM8_08_orig.jpg,65,,,,,,,,,0,65,65,65,,,,,,,,,,,,,,,21.03515625,-9.462890625,1,0,0,1.20545697212,,,2015_Oct_17_1059,K,facesParametric,8,59.747494676,
./stim/MorphM3_04_orig.jpg,66,,,,,,,,,0,66,66,66,,,,,,,,,,,,,,,21.03515625,-9.462890625,0,0,1,3.3005259037,,,2015_Oct_17_1059,K,facesParametric,8,59.747494676,
./stim/MorphF3_06_orig.jpg,67,,,,,,,,,0,67,67,67,,,,,,,,,,,,,,,21.064453125,-9.4921875,0,0,1,3.85214805603,,,2015_Oct_17_1059,K,facesParametric,8,59.747494676,
./stim/MorphF9_04_orig.jpg,68,,,,,,,,,0,68,68,68,,,,,,,,,,,,,,,21.064453125,-9.4921875,0,0,1,1.45673084259,,,2015_Oct_17_1059,K,facesParametric,8,59.747494676,
./stim/MorphM9_00_orig.jpg,69,,,,,,,,,0,69,69,69,,,,,,,,,,,,,,,21.03515625,-9.4921875,0,0,1,1.28918886185,,,2015_Oct_17_1059,K,facesParametric,8,59.747494676,
./stim/MorphM2_10_orig.jpg,70,,,,,,,,,0,70,70,70,,,,,,,,,,,,,,,21.03515625,-9.4921875,0,0,1,1.47318387032,,,2015_Oct_17_1059,K,facesParametric,8,59.747494676,
./stim/MorphF1_10_orig.jpg,71,,,,,,,,,0,71,71,71,,,,,,,,,,,,,,,21.005859375,-9.462890625,1,0,0,2.94808411598,,,2015_Oct_17_1059,K,facesParametric,8,59.747494676,
./stim/MorphF2_01_orig.jpg,72,,,,,,,,,0,72,72,72,,,,,,,,,,,,,,,21.03515625,-9.43359375,0,0,1,2.00891518593,,,2015_Oct_17_1059,K,facesParametric,8,59.747494676,
./stim/MorphF5_08_orig.jpg,73,,,,,,,,,0,73,73,73,,,,,,,,,,,,,,,21.064453125,-9.404296875,1,0,0,1.03774499893,,,2015_Oct_17_1059,K,facesParametric,8,59.747494676,
./stim/MorphF9_08_orig.jpg,74,,,,,,,,,0,74,74,74,,,,,,,,,,,,,,,21.064453125,-9.404296875,1,0,0,1.33943510056,,,2015_Oct_17_1059,K,facesParametric,8,59.747494676,
./stim/MorphM3_00_orig.jpg,75,,,,,,,,,0,75,75,75,,,,,,,,,,,,,,,21.064453125,-9.404296875,1,0,0,3.16626596451,,,2015_Oct_17_1059,K,facesParametric,8,59.747494676,
./stim/MorphF10_02_orig.jpg,76,,,,,,,,,0,76,76,76,,,,,,,,,,,,,,,21.064453125,-9.404296875,0,0,1,7.05485892296,,,2015_Oct_17_1059,K,facesParametric,8,59.747494676,
./stim/MorphF7_01_orig.jpg,77,,,,,,,,,0,77,77,77,,,,,,,,,,,,,,,21.005859375,-9.375,0,0,1,1.5571680069,,,2015_Oct_17_1059,K,facesParametric,8,59.747494676,
./stim/MorphF4_02_orig.jpg,78,,,,,,,,,0,78,78,78,,,,,,,,,,,,,,,21.005859375,-9.375,0,0,1,2.26130199432,,,2015_Oct_17_1059,K,facesParametric,8,59.747494676,
./stim/MorphF8_02_orig.jpg,79,,,,,,,,,0,79,79,79,,,,,,,,,,,,,,,21.005859375,-9.375,0,0,1,1.30489206314,,,2015_Oct_17_1059,K,facesParametric,8,59.747494676,
./stim/MorphM4_01_orig.jpg,80,,,,,,,,,0,80,80,80,,,,,,,,,,,,,,,20.9765625,-9.404296875,0,0,1,1.5740339756,,,2015_Oct_17_1059,K,facesParametric,8,59.747494676,
./stim/MorphM6_00_orig.jpg,81,,,,,,,,,0,81,81,81,,,,,,,,,,,,,,,20.91796875,-9.404296875,0,0,1,1.40675401688,,,2015_Oct_17_1059,K,facesParametric,8,59.747494676,
./stim/MorphF1_04_orig.jpg,82,,,,,,,,,0,82,82,82,,,,,,,,,,,,,,,20.859375,-9.31640625,0,0,1,6.35045695305,,,2015_Oct_17_1059,K,facesParametric,8,59.747494676,
./stim/MorphM8_07_orig.jpg,83,,,,,,,,,0,83,83,83,,,,,,,,,,,,,,,20.859375,-9.31640625,1,0,0,1.57437586784,,,2015_Oct_17_1059,K,facesParametric,8,59.747494676,
./stim/MorphM2_04_orig.jpg,84,,,,,,,,,0,84,84,84,,,,,,,,,,,,,,,20.80078125,-9.287109375,0,0,1,1.70824885368,,,2015_Oct_17_1059,K,facesParametric,8,59.747494676,
./stim/MorphM3_05_orig.jpg,85,,,,,,,,,0,85,85,85,,,,,,,,,,,,,,,20.7421875,-9.345703125,0,0,1,2.47921204567,,,2015_Oct_17_1059,K,facesParametric,8,59.747494676,
./stim/MorphM6_08_orig.jpg,86,,,,,,,,,0,86,86,86,,,,,,,,,,,,,,,20.7421875,-9.345703125,0,0,1,2.09303307533,,,2015_Oct_17_1059,K,facesParametric,8,59.747494676,
./stim/MorphF7_00_orig.jpg,87,,,,,,,,,0,87,87,87,,,,,,,,,,,,,,,20.712890625,-9.345703125,0,0,1,1.20550608635,,,2015_Oct_17_1059,K,facesParametric,8,59.747494676,
./stim/MorphF4_04_orig.jpg,88,,,,,,,,,0,88,88,88,,,,,,,,,,,,,,,20.654296875,-9.375,0,0,1,2.19453001022,,,2015_Oct_17_1059,K,facesParametric,8,59.747494676,
./stim/MorphF6_01_orig.jpg,89,,,,,,,,,0,89,89,89,,,,,,,,,,,,,,,20.654296875,-9.375,0,0,1,1.70813679695,,,2015_Oct_17_1059,K,facesParametric,8,59.747494676,
./stim/MorphF4_08_orig.jpg,90,,,,,,,,,0,90,90,90,,,,,,,,,,,,,,,20.654296875,-9.375,1,0,0,1.52394914627,,,2015_Oct_17_1059,K,facesParametric,8,59.747494676,
./stim/MorphM4_09_orig.jpg,91,,,,,,,,,0,91,91,91,,,,,,,,,,,,,,,20.654296875,-9.375,1,0,0,1.20570778847,,,2015_Oct_17_1059,K,facesParametric,8,59.747494676,
./stim/MorphM7_07_orig.jpg,92,,,,,,,,,0,92,92,92,,,,,,,,,,,,,,,20.654296875,-9.375,1,0,0,1.38967204094,,,2015_Oct_17_1059,K,facesParametric,8,59.747494676,
./stim/MorphF9_01_orig.jpg,93,,,,,,,,,0,93,93,93,,,,,,,,,,,,,,,20.68359375,-9.345703125,0,0,1,1.43987011909,,,2015_Oct_17_1059,K,facesParametric,8,59.747494676,
./stim/MorphM8_05_orig.jpg,94,,,,,,,,,0,94,94,94,,,,,,,,,,,,,,,20.625,-9.2578125,1,0,0,3.5182762146,,,2015_Oct_17_1059,K,facesParametric,8,59.747494676,
./stim/MorphM4_08_orig.jpg,95,,,,,,,,,0,95,95,95,,,,,,,,,,,,,,,20.654296875,-9.228515625,1,0,0,1.77524209023,,,2015_Oct_17_1059,K,facesParametric,8,59.747494676,
./stim/MorphM6_04_orig.jpg,96,,,,,,,,,0,96,96,96,,,,,,,,,,,,,,,20.654296875,-9.228515625,0,0,1,7.40676879883,,,2015_Oct_17_1059,K,facesParametric,8,59.747494676,
./stim/MorphF8_00_orig.jpg,97,,,,,,,,,0,97,97,97,,,,,,,,,,,,,,,20.56640625,-9.140625,0,0,1,1.90926218033,,,2015_Oct_17_1059,K,facesParametric,8,59.747494676,
./stim/MorphF4_00_orig.jpg,98,,,,,,,,,0,98,98,98,,,,,,,,,,,,,,,20.56640625,-9.140625,0,0,1,1.23681807518,,,2015_Oct_17_1059,K,facesParametric,8,59.747494676,
./stim/MorphM2_07_orig.jpg,99,,,,,,,,,0,99,99,99,,,,,,,,,,,,,,,20.56640625,-9.140625,0,0,1,2.37876296043,,,2015_Oct_17_1059,K,facesParametric,8,59.747494676,
./stim/MorphF6_10_orig.jpg,100,,,,,,,,,0,100,100,100,,,,,,,,,,,,,,,20.537109375,-9.169921875,1,0,0,1.30569410324,,,2015_Oct_17_1059,K,facesParametric,8,59.747494676,
./stim/MorphM1_05_orig.jpg,101,,,,,,,,,0,101,101,101,,,,,,,,,,,,,,,20.537109375,-9.169921875,1,0,0,2.26004505157,,,2015_Oct_17_1059,K,facesParametric,8,59.747494676,
./stim/MorphF1_02_orig.jpg,102,,,,,,,,,0,102,102,102,,,,,,,,,,,,,,,20.56640625,-9.19921875,0,0,1,3.03227686882,,,2015_Oct_17_1059,K,facesParametric,8,59.747494676,
./stim/MorphF4_01_orig.jpg,103,,,,,,,,,0,103,103,103,,,,,,,,,,,,,,,20.537109375,-9.19921875,0,0,1,1.68988990784,,,2015_Oct_17_1059,K,facesParametric,8,59.747494676,
./stim/MorphM10_08_orig.jpg,104,,,,,,,,,0,104,104,104,,,,,,,,,,,,,,,20.537109375,-9.19921875,1,0,0,3.1146569252,,,2015_Oct_17_1059,K,facesParametric,8,59.747494676,
./stim/MorphM1_00_orig.jpg,105,,,,,,,,,0,105,105,105,,,,,,,,,,,,,,,20.537109375,-9.19921875,0,0,1,2.22781205177,,,2015_Oct_17_1059,K,facesParametric,8,59.747494676,
./stim/MorphF3_00_orig.jpg,106,,,,,,,,,0,106,106,106,,,,,,,,,,,,,,,20.595703125,-9.228515625,0,0,1,1.95968317986,,,2015_Oct_17_1059,K,facesParametric,8,59.747494676,
./stim/MorphF10_06_orig.jpg,107,,,,,,,,,0,107,107,107,,,,,,,,,,,,,,,20.625,-9.2578125,1,0,0,1.40530014038,,,2015_Oct_17_1059,K,facesParametric,8,59.747494676,
./stim/MorphF3_10_orig.jpg,108,,,,,,,,,0,108,108,108,,,,,,,,,,,,,,,20.625,-9.2578125,1,0,0,1.3379099369,,,2015_Oct_17_1059,K,facesParametric,8,59.747494676,
./stim/MorphF7_10_orig.jpg,109,,,,,,,,,0,109,109,109,,,,,,,,,,,,,,,20.625,-9.2578125,1,0,0,1.16946196556,,,2015_Oct_17_1059,K,facesParametric,8,59.747494676,
./stim/MorphF9_07_orig.jpg,110,,,,,,,,,0,110,110,110,,,,,,,,,,,,,,,20.654296875,-9.228515625,1,0,0,4.38956618309,,,2015_Oct_17_1059,K,facesParametric,8,59.747494676,
./stim/MorphM6_02_orig.jpg,111,,,,,,,,,0,111,111,111,,,,,,,,,,,,,,,20.654296875,-9.228515625,0,0,1,1.18903708458,,,2015_Oct_17_1059,K,facesParametric,8,59.747494676,
./stim/MorphM9_04_orig.jpg,112,,,,,,,,,0,112,112,112,,,,,,,,,,,,,,,20.595703125,-9.287109375,0,0,1,2.99866604805,,,2015_Oct_17_1059,K,facesParametric,8,59.747494676,
./stim/MorphM6_05_orig.jpg,113,,,,,,,,,0,113,113,113,,,,,,,,,,,,,,,20.56640625,-9.287109375,0,0,1,1.45680189133,,,2015_Oct_17_1059,K,facesParametric,8,59.747494676,
./stim/MorphF6_04_orig.jpg,114,,,,,,,,,0,114,114,114,,,,,,,,,,,,,,,20.56640625,-9.287109375,0,0,1,3.40082406998,,,2015_Oct_17_1059,K,facesParametric,8,59.747494676,
./stim/MorphM5_06_orig.jpg,115,,,,,,,,,0,115,115,115,,,,,,,,,,,,,,,20.80078125,-9.19921875,0,0,1,4.03813004494,,,2015_Oct_17_1059,K,facesParametric,8,59.747494676,
./stim/MorphM4_10_orig.jpg,116,,,,,,,,,0,116,116,116,,,,,,,,,,,,,,,20.80078125,-9.228515625,1,0,0,1.37240886688,,,2015_Oct_17_1059,K,facesParametric,8,59.747494676,
./stim/MorphF3_08_orig.jpg,117,,,,,,,,,0,117,117,117,,,,,,,,,,,,,,,20.80078125,-9.228515625,1,0,0,1.23725891113,,,2015_Oct_17_1059,K,facesParametric,8,59.747494676,
./stim/MorphF9_05_orig.jpg,118,,,,,,,,,0,118,118,118,,,,,,,,,,,,,,,20.7421875,-9.287109375,0,0,1,1.20309996605,,,2015_Oct_17_1059,K,facesParametric,8,59.747494676,
./stim/MorphM7_09_orig.jpg,119,,,,,,,,,0,119,119,119,,,,,,,,,,,,,,,20.7421875,-9.287109375,1,0,0,1.37278103828,,,2015_Oct_17_1059,K,facesParametric,8,59.747494676,
./stim/MorphF1_09_orig.jpg,120,,,,,,,,,0,120,120,120,,,,,,,,,,,,,,,20.7421875,-9.287109375,1,0,0,2.32795810699,,,2015_Oct_17_1059,K,facesParametric,8,59.747494676,
./stim/MorphM6_09_orig.jpg,121,,,,,,,,,0,121,121,121,,,,,,,,,,,,,,,20.7421875,-9.287109375,1,0,0,3.25026202202,,,2015_Oct_17_1059,K,facesParametric,8,59.747494676,
./stim/MorphF4_06_orig.jpg,122,,,,,,,,,0,122,122,122,,,,,,,,,,,,,,,20.7421875,-9.287109375,1,0,0,2.34438800812,,,2015_Oct_17_1059,K,facesParametric,8,59.747494676,
./stim/MorphF7_06_orig.jpg,123,,,,,,,,,0,123,123,123,,,,,,,,,,,,,,,20.654296875,-9.287109375,0,0,1,1.17191886902,,,2015_Oct_17_1059,K,facesParametric,8,59.747494676,
./stim/MorphM5_02_orig.jpg,124,,,,,,,,,0,124,124,124,,,,,,,,,,,,,,,20.654296875,-9.287109375,0,0,1,6.50172305107,,,2015_Oct_17_1059,K,facesParametric,8,59.747494676,
./stim/MorphF10_05_orig.jpg,125,,,,,,,,,0,125,125,125,,,,,,,,,,,,,,,20.625,-9.31640625,1,0,0,2.47909188271,,,2015_Oct_17_1059,K,facesParametric,8,59.747494676,
./stim/MorphF7_05_orig.jpg,126,,,,,,,,,0,126,126,126,,,,,,,,,,,,,,,20.5078125,-9.375,0,0,1,1.35655093193,,,2015_Oct_17_1059,K,facesParametric,8,59.747494676,
./stim/MorphF1_03_orig.jpg,127,,,,,,,,,0,127,127,127,,,,,,,,,,,,,,,20.478515625,-9.31640625,0,0,1,2.47887802124,,,2015_Oct_17_1059,K,facesParametric,8,59.747494676,
./stim/MorphF3_07_orig.jpg,128,,,,,,,,,0,128,128,128,,,,,,,,,,,,,,,20.478515625,-9.31640625,1,0,0,1.07111907005,,,2015_Oct_17_1059,K,facesParametric,8,59.747494676,
./stim/MorphF4_05_orig.jpg,129,,,,,,,,,0,129,129,129,,,,,,,,,,,,,,,20.478515625,-9.31640625,1,0,0,2.49505209923,,,2015_Oct_17_1059,K,facesParametric,8,59.747494676,
./stim/MorphF6_07_orig.jpg,130,,,,,,,,,0,130,130,130,,,,,,,,,,,,,,,20.478515625,-9.31640625,1,0,0,1.42371606827,,,2015_Oct_17_1059,K,facesParametric,8,59.747494676,
./stim/MorphF3_02_orig.jpg,131,,,,,,,,,0,131,131,131,,,,,,,,,,,,,,,20.44921875,-9.345703125,0,0,1,3.2167570591,,,2015_Oct_17_1059,K,facesParametric,8,59.747494676,
./stim/MorphF1_00_orig.jpg,132,,,,,,,,,0,132,132,132,,,,,,,,,,,,,,,20.390625,-9.375,0,0,1,1.47120690346,,,2015_Oct_17_1059,K,facesParametric,8,59.747494676,
./stim/MorphF4_03_orig.jpg,133,,,,,,,,,0,133,133,133,,,,,,,,,,,,,,,20.390625,-9.375,0,0,1,1.22233700752,,,2015_Oct_17_1059,K,facesParametric,8,59.747494676,
./stim/MorphM2_03_orig.jpg,134,,,,,,,,,0,134,134,134,,,,,,,,,,,,,,,20.390625,-9.375,0,0,1,1.32300496101,,,2015_Oct_17_1059,K,facesParametric,8,59.747494676,
./stim/MorphF10_10_orig.jpg,135,,,,,,,,,0,135,135,135,,,,,,,,,,,,,,,20.390625,-9.375,1,0,0,1.10439491272,,,2015_Oct_17_1059,K,facesParametric,8,59.747494676,
./stim/MorphM2_09_orig.jpg,136,,,,,,,,,0,136,136,136,,,,,,,,,,,,,,,20.33203125,-9.404296875,0,0,1,2.56150317192,,,2015_Oct_17_1059,K,facesParametric,8,59.747494676,
./stim/MorphM6_01_orig.jpg,137,,,,,,,,,0,137,137,137,,,,,,,,,,,,,,,20.33203125,-9.375,0,0,1,2.52698493004,,,2015_Oct_17_1059,K,facesParametric,8,59.747494676,
./stim/MorphF9_09_orig.jpg,138,,,,,,,,,0,138,138,138,,,,,,,,,,,,,,,20.33203125,-9.375,1,0,0,2.26165699959,,,2015_Oct_17_1059,K,facesParametric,8,59.747494676,
./stim/MorphM5_03_orig.jpg,139,,,,,,,,,0,139,139,139,,,,,,,,,,,,,,,20.244140625,-9.375,0,0,1,5.47860884666,,,2015_Oct_17_1059,K,facesParametric,8,59.747494676,
./stim/MorphF10_00_orig.jpg,140,,,,,,,,,0,140,140,140,,,,,,,,,,,,,,,20.244140625,-9.375,0,0,1,2.64731502533,,,2015_Oct_17_1059,K,facesParametric,8,59.747494676,
./stim/MorphF2_02_orig.jpg,141,,,,,,,,,0,141,141,141,,,,,,,,,,,,,,,20.244140625,-9.375,0,0,1,1.67429900169,,,2015_Oct_17_1059,K,facesParametric,8,59.747494676,
./stim/MorphM3_06_orig.jpg,142,,,,,,,,,0,142,142,142,,,,,,,,,,,,,,,20.244140625,-9.375,0,0,1,2.99874401093,,,2015_Oct_17_1059,K,facesParametric,8,59.747494676,
./stim/MorphF7_04_orig.jpg,143,,,,,,,,,0,143,143,143,,,,,,,,,,,,,,,20.185546875,-9.31640625,0,0,1,1.17238402367,,,2015_Oct_17_1059,K,facesParametric,8,59.747494676,
./stim/MorphF5_01_orig.jpg,144,,,,,,,,,0,144,144,144,,,,,,,,,,,,,,,20.09765625,-9.2578125,0,0,1,1.72400903702,,,2015_Oct_17_1059,K,facesParametric,8,59.747494676,
./stim/MorphF7_09_orig.jpg,145,,,,,,,,,0,145,145,145,,,,,,,,,,,,,,,20.126953125,-9.287109375,1,0,0,1.15486598015,,,2015_Oct_17_1059,K,facesParametric,8,59.747494676,
./stim/MorphM3_10_orig.jpg,146,,,,,,,,,0,146,146,146,,,,,,,,,,,,,,,20.126953125,-9.287109375,1,0,0,1.18917894363,,,2015_Oct_17_1059,K,facesParametric,8,59.747494676,
./stim/MorphM9_02_orig.jpg,147,,,,,,,,,0,147,147,147,,,,,,,,,,,,,,,20.15625,-9.287109375,0,0,1,2.04128098488,,,2015_Oct_17_1059,K,facesParametric,8,59.747494676,
./stim/MorphF9_10_orig.jpg,148,,,,,,,,,0,148,148,148,,,,,,,,,,,,,,,20.185546875,-9.287109375,1,0,0,1.85737085342,,,2015_Oct_17_1059,K,facesParametric,8,59.747494676,
./stim/MorphM5_00_orig.jpg,149,,,,,,,,,0,149,149,149,,,,,,,,,,,,,,,20.21484375,-9.287109375,0,0,1,3.97024202347,,,2015_Oct_17_1059,K,facesParametric,8,59.747494676,
./stim/MorphF2_00_orig.jpg,150,,,,,,,,,0,150,150,150,,,,,,,,,,,,,,,20.185546875,-9.31640625,1,0,0,1.95994114876,,,2015_Oct_17_1059,K,facesParametric,8,59.747494676,
./stim/MorphM6_06_orig.jpg,151,,,,,,,,,0,151,151,151,,,,,,,,,,,,,,,20.21484375,-9.31640625,0,0,1,1.15529489517,,,2015_Oct_17_1059,K,facesParametric,8,59.747494676,
./stim/MorphM7_06_orig.jpg,152,,,,,,,,,0,152,152,152,,,,,,,,,,,,,,,20.244140625,-9.287109375,1,0,0,2.42852687836,,,2015_Oct_17_1059,K,facesParametric,8,59.747494676,
./stim/MorphF2_10_orig.jpg,153,,,,,,,,,0,153,153,153,,,,,,,,,,,,,,,20.244140625,-9.287109375,1,0,0,1.53950786591,,,2015_Oct_17_1059,K,facesParametric,8,59.747494676,
./stim/MorphF10_08_orig.jpg,154,,,,,,,,,0,154,154,154,,,,,,,,,,,,,,,20.244140625,-9.287109375,1,0,0,0.937437057495,,,2015_Oct_17_1059,K,facesParametric,8,59.747494676,
./stim/MorphF3_01_orig.jpg,155,,,,,,,,,0,155,155,155,,,,,,,,,,,,,,,20.244140625,-9.287109375,0,0,1,2.41210412979,,,2015_Oct_17_1059,K,facesParametric,8,59.747494676,
./stim/MorphM9_06_orig.jpg,156,,,,,,,,,0,156,156,156,,,,,,,,,,,,,,,20.21484375,-9.2578125,0,0,1,4.52402496338,,,2015_Oct_17_1059,K,facesParametric,8,59.747494676,
./stim/MorphF10_01_orig.jpg,157,,,,,,,,,0,157,157,157,,,,,,,,,,,,,,,20.21484375,-9.2578125,0,0,1,3.51827478409,,,2015_Oct_17_1059,K,facesParametric,8,59.747494676,
./stim/MorphM2_05_orig.jpg,158,,,,,,,,,0,158,158,158,,,,,,,,,,,,,,,20.21484375,-9.2578125,0,0,1,1.13805699348,,,2015_Oct_17_1059,K,facesParametric,8,59.747494676,
./stim/MorphM4_03_orig.jpg,159,,,,,,,,,0,159,159,159,,,,,,,,,,,,,,,20.126953125,-9.287109375,0,0,1,1.17233705521,,,2015_Oct_17_1059,K,facesParametric,8,59.747494676,
./stim/MorphF7_02_orig.jpg,160,,,,,,,,,0,160,160,160,,,,,,,,,,,,,,,20.126953125,-9.287109375,0,0,1,1.20426511765,,,2015_Oct_17_1059,K,facesParametric,8,59.747494676,
./stim/MorphM8_01_orig.jpg,161,,,,,,,,,0,161,161,161,,,,,,,,,,,,,,,20.068359375,-9.2578125,0,0,1,1.2561249733,,,2015_Oct_17_1059,K,facesParametric,8,59.747494676,
./stim/MorphF5_04_orig.jpg,162,,,,,,,,,0,162,162,162,,,,,,,,,,,,,,,20.068359375,-9.2578125,0,0,1,1.25463080406,,,2015_Oct_17_1059,K,facesParametric,8,59.747494676,
./stim/MorphM1_01_orig.jpg,163,,,,,,,,,0,163,163,163,,,,,,,,,,,,,,,20.068359375,-9.2578125,0,0,1,1.22069311142,,,2015_Oct_17_1059,K,facesParametric,8,59.747494676,
./stim/MorphM9_07_orig.jpg,164,,,,,,,,,0,164,164,164,,,,,,,,,,,,,,,20.068359375,-9.2578125,1,0,0,1.27125716209,,,2015_Oct_17_1059,K,facesParametric,8,59.747494676,
./stim/MorphM10_07_orig.jpg,165,,,,,,,,,0,165,165,165,,,,,,,,,,,,,,,20.09765625,-9.228515625,1,0,0,1.05421805382,,,2015_Oct_17_1059,K,facesParametric,8,59.747494676,
./stim/MorphM8_00_orig.jpg,166,,,,,,,,,0,166,166,166,,,,,,,,,,,,,,,20.126953125,-9.228515625,1,0,0,2.02661418915,,,2015_Oct_17_1059,K,facesParametric,8,59.747494676,
./stim/MorphF2_08_orig.jpg,167,,,,,,,,,0,167,167,167,,,,,,,,,,,,,,,20.126953125,-9.228515625,1,0,0,1.08824110031,,,2015_Oct_17_1059,K,facesParametric,8,59.747494676,
./stim/MorphM8_09_orig.jpg,168,,,,,,,,,0,168,168,168,,,,,,,,,,,,,,,20.126953125,-9.228515625,1,0,0,1.15609502792,,,2015_Oct_17_1059,K,facesParametric,8,59.747494676,
./stim/MorphF1_01_orig.jpg,169,,,,,,,,,0,169,169,169,,,,,,,,,,,,,,,20.126953125,-9.228515625,0,0,1,1.78974699974,,,2015_Oct_17_1059,K,facesParametric,8,59.747494676,
./stim/MorphM5_08_orig.jpg,170,,,,,,,,,0,170,170,170,,,,,,,,,,,,,,,20.09765625,-9.2578125,0,0,1,6.13051795959,,,2015_Oct_17_1059,K,facesParametric,8,59.747494676,
./stim/MorphM2_06_orig.jpg,171,,,,,,,,,0,171,171,171,,,,,,,,,,,,,,,20.09765625,-9.2578125,0,0,1,2.96502590179,,,2015_Oct_17_1059,K,facesParametric,8,59.747494676,
./stim/MorphM6_10_orig.jpg,172,,,,,,,,,0,172,172,172,,,,,,,,,,,,,,,20.09765625,-9.228515625,0,0,1,3.78688788414,,,2015_Oct_17_1059,K,facesParametric,8,59.747494676,
./stim/MorphF10_04_orig.jpg,173,,,,,,,,,0,173,173,173,,,,,,,,,,,,,,,20.09765625,-9.228515625,0,0,1,3.35031199455,,,2015_Oct_17_1059,K,facesParametric,8,59.747494676,
./stim/MorphM7_00_orig.jpg,174,,,,,,,,,0,174,174,174,,,,,,,,,,,,,,,20.09765625,-9.228515625,0,0,1,1.97452998161,,,2015_Oct_17_1059,K,facesParametric,8,59.747494676,
./stim/MorphF8_05_orig.jpg,175,,,,,,,,,0,175,175,175,,,,,,,,,,,,,,,20.185546875,-9.2578125,0,0,1,4.473747015,,,2015_Oct_17_1059,K,facesParametric,8,59.747494676,
./stim/MorphF2_04_orig.jpg,176,,,,,,,,,0,176,176,176,,,,,,,,,,,,,,,20.21484375,-9.228515625,1,0,0,1.47375488281,,,2015_Oct_17_1059,K,facesParametric,8,59.747494676,
./stim/MorphM7_03_orig.jpg,177,,,,,,,,,0,177,177,177,,,,,,,,,,,,,,,20.244140625,-9.2578125,0,0,1,1.27092194557,,,2015_Oct_17_1059,K,facesParametric,8,59.747494676,
./stim/MorphM4_00_orig.jpg,178,,,,,,,,,0,178,178,178,,,,,,,,,,,,,,,20.244140625,-9.2578125,0,0,1,2.36184501648,,,2015_Oct_17_1059,K,facesParametric,8,59.747494676,
./stim/MorphM10_06_orig.jpg,179,,,,,,,,,0,179,179,179,,,,,,,,,,,,,,,20.244140625,-9.2578125,1,0,0,1.03564190865,,,2015_Oct_17_1059,K,facesParametric,8,59.747494676,
./stim/MorphF8_07_orig.jpg,180,,,,,,,,,0,180,180,180,,,,,,,,,,,,,,,20.244140625,-9.2578125,1,0,0,1.054251194,,,2015_Oct_17_1059,K,facesParametric,8,59.747494676,
./stim/MorphM5_01_orig.jpg,181,,,,,,,,,0,181,181,181,,,,,,,,,,,,,,,20.244140625,-9.2578125,0,0,1,3.73496103287,,,2015_Oct_17_1059,K,facesParametric,8,59.747494676,
./stim/MorphM7_05_orig.jpg,182,,,,,,,,,0,182,182,182,,,,,,,,,,,,,,,20.244140625,-9.2578125,0,0,1,1.52396702766,,,2015_Oct_17_1059,K,facesParametric,8,59.747494676,
./stim/MorphF5_10_orig.jpg,183,,,,,,,,,0,183,183,183,,,,,,,,,,,,,,,20.244140625,-9.2578125,1,0,0,1.12110185623,,,2015_Oct_17_1059,K,facesParametric,8,59.747494676,
./stim/MorphM1_08_orig.jpg,184,,,,,,,,,0,184,184,184,,,,,,,,,,,,,,,20.244140625,-9.2578125,1,0,0,1.12174105644,,,2015_Oct_17_1059,K,facesParametric,8,59.747494676,
./stim/MorphF8_04_orig.jpg,185,,,,,,,,,0,185,185,185,,,,,,,,,,,,,,,20.21484375,-9.2578125,0,0,1,1.1874859333,,,2015_Oct_17_1059,K,facesParametric,8,59.747494676,
./stim/MorphF9_00_orig.jpg,186,,,,,,,,,0,186,186,186,,,,,,,,,,,,,,,20.185546875,-9.287109375,0,0,1,1.17209005356,,,2015_Oct_17_1059,K,facesParametric,8,59.747494676,
./stim/MorphM3_02_orig.jpg,187,,,,,,,,,0,187,187,187,,,,,,,,,,,,,,,20.185546875,-9.287109375,0,0,1,1.67472696304,,,2015_Oct_17_1059,K,facesParametric,8,59.747494676,
./stim/MorphF2_03_orig.jpg,188,,,,,,,,,0,188,188,188,,,,,,,,,,,,,,,20.15625,-9.31640625,1,0,0,1.33826494217,,,2015_Oct_17_1059,K,facesParametric,8,59.747494676,
./stim/MorphM4_06_orig.jpg,189,,,,,,,,,0,189,189,189,,,,,,,,,,,,,,,20.185546875,-9.287109375,1,0,0,1.25474596024,,,2015_Oct_17_1059,K,facesParametric,8,59.747494676,
./stim/MorphM8_04_orig.jpg,190,,,,,,,,,0,190,190,190,,,,,,,,,,,,,,,20.185546875,-9.287109375,1,0,0,1.27338790894,,,2015_Oct_17_1059,K,facesParametric,8,59.747494676,
./stim/MorphF3_09_orig.jpg,191,,,,,,,,,0,191,191,191,,,,,,,,,,,,,,,20.185546875,-9.2578125,1,0,0,3.09678196907,,,2015_Oct_17_1059,K,facesParametric,8,59.747494676,
./stim/MorphF2_05_orig.jpg,192,,,,,,,,,0,192,192,192,,,,,,,,,,,,,,,20.185546875,-9.2578125,0,0,1,2.5964820385,,,2015_Oct_17_1059,K,facesParametric,8,59.747494676,
./stim/MorphF3_05_orig.jpg,193,,,,,,,,,0,193,193,193,,,,,,,,,,,,,,,20.15625,-9.19921875,0,0,1,1.50488901138,,,2015_Oct_17_1059,K,facesParametric,8,59.747494676,
./stim/MorphF5_00_orig.jpg,194,,,,,,,,,0,194,194,194,,,,,,,,,,,,,,,20.15625,-9.19921875,0,0,1,1.17230296135,,,2015_Oct_17_1059,K,facesParametric,8,59.747494676,
./stim/MorphM3_08_orig.jpg,195,,,,,,,,,0,195,195,195,,,,,,,,,,,,,,,20.15625,-9.19921875,0,0,1,1.17205190659,,,2015_Oct_17_1059,K,facesParametric,8,59.747494676,
./stim/MorphM4_07_orig.jpg,196,,,,,,,,,0,196,196,196,,,,,,,,,,,,,,,20.302734375,-9.052734375,1,0,0,1.25418591499,,,2015_Oct_17_1059,K,facesParametric,8,59.747494676,
./stim/MorphF8_01_orig.jpg,197,,,,,,,,,0,197,197,197,,,,,,,,,,,,,,,20.478515625,-9.19921875,0,0,1,3.3156080246,,,2015_Oct_17_1059,K,facesParametric,8,59.747494676,
./stim/MorphF6_02_orig.jpg,198,,,,,,,,,0,198,198,198,,,,,,,,,,,,,,,20.478515625,-9.19921875,0,0,1,1.03755807877,,,2015_Oct_17_1059,K,facesParametric,8,59.747494676,
./stim/MorphM7_04_orig.jpg,199,,,,,,,,,0,199,199,199,,,,,,,,,,,,,,,20.478515625,-9.19921875,0,0,1,1.27254104614,,,2015_Oct_17_1059,K,facesParametric,8,59.747494676,
./stim/MorphM9_09_orig.jpg,200,,,,,,,,,0,200,200,200,,,,,,,,,,,,,,,20.478515625,-9.19921875,1,0,0,1.27117300034,,,2015_Oct_17_1059,K,facesParametric,8,59.747494676,
./stim/MorphM3_03_orig.jpg,201,,,,,,,,,0,201,201,201,,,,,,,,,,,,,,,20.44921875,-9.169921875,0,0,1,1.22242593765,,,2015_Oct_17_1059,K,facesParametric,8,59.747494676,
./stim/MorphM7_08_orig.jpg,202,,,,,,,,,0,202,202,202,,,,,,,,,,,,,,,20.44921875,-9.169921875,1,0,0,1.40678191185,,,2015_Oct_17_1059,K,facesParametric,8,59.747494676,
./stim/MorphM2_08_orig.jpg,203,,,,,,,,,0,203,203,203,,,,,,,,,,,,,,,20.44921875,-9.169921875,0,0,1,2.11047816277,,,2015_Oct_17_1059,K,facesParametric,8,59.747494676,
./stim/MorphF1_05_orig.jpg,204,,,,,,,,,0,204,204,204,,,,,,,,,,,,,,,20.44921875,-9.169921875,0,0,1,1.18628406525,,,2015_Oct_17_1059,K,facesParametric,8,59.747494676,
./stim/MorphM8_06_orig.jpg,205,,,,,,,,,0,205,205,205,,,,,,,,,,,,,,,20.33203125,-9.140625,0,0,1,7.0045208931,,,2015_Oct_17_1059,K,facesParametric,8,59.747494676,
./stim/MorphF6_09_orig.jpg,206,,,,,,,,,0,206,206,206,,,,,,,,,,,,,,,20.302734375,-9.169921875,1,0,0,2.29314398766,,,2015_Oct_17_1059,K,facesParametric,8,59.747494676,
./stim/MorphM1_04_orig.jpg,207,,,,,,,,,0,207,207,207,,,,,,,,,,,,,,,20.361328125,-9.169921875,0,0,1,2.24320793152,,,2015_Oct_17_1059,K,facesParametric,8,59.747494676,
./stim/MorphM3_07_orig.jpg,208,,,,,,,,,0,208,208,208,,,,,,,,,,,,,,,20.361328125,-9.169921875,1,0,0,1.12188410759,,,2015_Oct_17_1059,K,facesParametric,8,59.747494676,
./stim/MorphF2_09_orig.jpg,209,,,,,,,,,0,209,209,209,,,,,,,,,,,,,,,20.361328125,-9.169921875,1,0,0,1.07124400139,,,2015_Oct_17_1059,K,facesParametric,8,59.747494676,
./stim/MorphF4_07_orig.jpg,210,,,,,,,,,0,210,210,210,,,,,,,,,,,,,,,20.361328125,-9.169921875,1,0,0,1.12163996696,,,2015_Oct_17_1059,K,facesParametric,8,59.747494676,
./stim/MorphM7_01_orig.jpg,211,,,,,,,,,0,211,211,211,,,,,,,,,,,,,,,20.390625,-9.140625,0,0,1,2.57727003098,,,2015_Oct_17_1059,K,facesParametric,8,59.747494676,
./stim/MorphF8_03_orig.jpg,212,,,,,,,,,0,212,212,212,,,,,,,,,,,,,,,20.390625,-9.140625,0,0,1,1.13870787621,,,2015_Oct_17_1059,K,facesParametric,8,59.747494676,
./stim/MorphM8_02_orig.jpg,213,,,,,,,,,0,213,213,213,,,,,,,,,,,,,,,20.419921875,-9.111328125,0,0,1,2.46244096756,,,2015_Oct_17_1059,K,facesParametric,8,59.747494676,
./stim/MorphM10_02_orig.jpg,214,,,,,,,,,0,214,214,214,,,,,,,,,,,,,,,20.419921875,-9.111328125,0,0,1,3.06586408615,,,2015_Oct_17_1059,K,facesParametric,8,59.747494676,
./stim/MorphM5_09_orig.jpg,215,,,,,,,,,0,215,215,215,,,,,,,,,,,,,,,20.44921875,-9.08203125,1,0,0,1.49042797089,,,2015_Oct_17_1059,K,facesParametric,8,59.747494676,
./stim/MorphF5_02_orig.jpg,216,,,,,,,,,0,216,216,216,,,,,,,,,,,,,,,20.44921875,-9.08203125,0,0,1,2.07657885551,,,2015_Oct_17_1059,K,facesParametric,8,59.747494676,
./stim/MorphM10_10_orig.jpg,217,,,,,,,,,0,217,217,217,,,,,,,,,,,,,,,20.44921875,-9.08203125,1,0,0,1.59062886238,,,2015_Oct_17_1059,K,facesParametric,8,59.747494676,
./stim/MorphM2_00_orig.jpg,218,,,,,,,,,0,218,218,218,,,,,,,,,,,,,,,20.44921875,-9.08203125,0,0,1,1.69162201881,,,2015_Oct_17_1059,K,facesParametric,8,59.747494676,
./stim/MorphM9_05_orig.jpg,219,,,,,,,,,0,219,219,219,,,,,,,,,,,,,,,20.5078125,-9.0234375,0,0,1,3.50136995316,,,2015_Oct_17_1059,K,facesParametric,8,59.747494676,
