img,num,basicLoop.thisRepN,basicLoop.thisTrialN,basicLoop.thisN,basicLoop.thisIndex,trials.thisRepN,trials.thisTrialN,trials.thisN,trials.thisIndex,trials2.thisRepN,trials2.thisTrialN,trials2.thisN,trials2.thisIndex,key_resp_2.keys,key_resp_2.rt,basicRating1.response,basicRating1.rt,basicRating2.response,basicRating2.rt,basicRating3.response,basicRating3.rt,basicRating4.response,basicRating4.rt,key_resp_3.keys,key_resp_3.rt,key_resp_4.keys,key_resp_4.rt,mouseResp.x,mouseResp.y,mouseResp.leftButton,mouseResp.midButton,mouseResp.rightButton,mouseResp.time,key_resp_5.keys,key_resp_5.rt,key_resp_7.keys,key_resp_7.rt,date,group,expName,participant,frameRate,
,,,,,,,,,,,,,,return,69.159514904,,,,,,,,,,,,,,,,,,,,,,,2015_Oct_24_1430,K,facesParametric,9,59.6334952733,
./basicStim/21M_DI_O.jpg,,0,0,0,43,,,,,,,,,,,HAP,18.338,None,None,None,None,None,None,,,,,,,,,,,,,,,2015_Oct_24_1430,K,facesParametric,9,59.6334952733,
./basicStim/28M_HA_O.jpg,,0,1,1,66,,,,,,,,,,,HAP,6.682,None,None,None,None,None,None,,,,,,,,,,,,,,,2015_Oct_24_1430,K,facesParametric,9,59.6334952733,
./basicStim/23M_NE_C.jpg,,0,2,2,55,,,,,,,,,,,None,None,ANG,3.406,None,None,None,None,,,,,,,,,,,,,,,2015_Oct_24_1430,K,facesParametric,9,59.6334952733,
./basicStim/07F_FE_O.jpg,,0,3,3,30,,,,,,,,,,,None,None,None,None,DIS,2.154,None,None,,,,,,,,,,,,,,,2015_Oct_24_1430,K,facesParametric,9,59.6334952733,
./basicStim/07F_HA_O.jpg,,0,4,4,31,,,,,,,,,,,HAP,1.73,None,None,None,None,None,None,,,,,,,,,,,,,,,2015_Oct_24_1430,K,facesParametric,9,59.6334952733,
./basicStim/01F_NE_C.jpg,,0,5,5,6,,,,,,,,,,,None,None,None,None,SUP,3.323,None,None,,,,,,,,,,,,,,,2015_Oct_24_1430,K,facesParametric,9,59.6334952733,
./basicStim/21M_FE_O.jpg,,0,6,6,44,,,,,,,,,,,None,None,FEA,2.807,None,None,None,None,,,,,,,,,,,,,,,2015_Oct_24_1430,K,facesParametric,9,59.6334952733,
./basicStim/09F_FE_O.jpg,,0,7,7,37,,,,,,,,,,,None,None,None,None,DIS,2.762,None,None,,,,,,,,,,,,,,,2015_Oct_24_1430,K,facesParametric,9,59.6334952733,
./basicStim/03F_NE_C.jpg,,0,8,8,20,,,,,,,,,,,None,None,FEA,6.977,None,None,None,None,,,,,,,,,,,,,,,2015_Oct_24_1430,K,facesParametric,9,59.6334952733,
./basicStim/21M_HA_O.jpg,,0,9,9,45,,,,,,,,,,,HAP,3.138,None,None,None,None,None,None,,,,,,,,,,,,,,,2015_Oct_24_1430,K,facesParametric,9,59.6334952733,
./basicStim/28M_SA_C.jpg,,0,10,10,67,,,,,,,,,,,None,None,None,None,SUP,1.865,None,None,,,,,,,,,,,,,,,2015_Oct_24_1430,K,facesParametric,9,59.6334952733,
./basicStim/09F_HA_O.jpg,,0,11,11,38,,,,,,,,,,,HAP,1.85,None,None,None,None,None,None,,,,,,,,,,,,,,,2015_Oct_24_1430,K,facesParametric,9,59.6334952733,
./basicStim/06F_SA_C.jpg,,0,12,12,25,,,,,,,,,,,None,None,None,None,DIS,3.605,None,None,,,,,,,,,,,,,,,2015_Oct_24_1430,K,facesParametric,9,59.6334952733,
./basicStim/36M_HA_O.jpg,,0,13,13,80,,,,,,,,,,,HAP,2.403,None,None,None,None,None,None,,,,,,,,,,,,,,,2015_Oct_24_1430,K,facesParametric,9,59.6334952733,
./basicStim/21M_SP_O.jpg,,0,14,14,47,,,,,,,,,,,None,None,None,None,SUP,1.978,None,None,,,,,,,,,,,,,,,2015_Oct_24_1430,K,facesParametric,9,59.6334952733,
./basicStim/24M_DI_O.jpg,,0,15,15,57,,,,,,,,,,,None,None,None,None,DIS,2.021,None,None,,,,,,,,,,,,,,,2015_Oct_24_1430,K,facesParametric,9,59.6334952733,
./basicStim/34M_FE_O.jpg,,0,16,16,72,,,,,,,,,,,None,None,None,None,SUP,2.75,None,None,,,,,,,,,,,,,,,2015_Oct_24_1430,K,facesParametric,9,59.6334952733,
./basicStim/02F_SP_O.jpg,,0,17,17,12,,,,,,,,,,,None,None,None,None,SUP,1.281,None,None,,,,,,,,,,,,,,,2015_Oct_24_1430,K,facesParametric,9,59.6334952733,
./basicStim/03F_DI_O.jpg,,0,18,18,15,,,,,,,,,,,None,None,None,None,DIS,1.512,None,None,,,,,,,,,,,,,,,2015_Oct_24_1430,K,facesParametric,9,59.6334952733,
./basicStim/07F_NE_C.jpg,,0,19,19,34,,,,,,,,,,,None,None,None,None,None,None,NTR,3.171,,,,,,,,,,,,,,,2015_Oct_24_1430,K,facesParametric,9,59.6334952733,
./basicStim/36M_NE_C.jpg,,0,20,20,83,,,,,,,,,,,None,None,None,None,None,None,NTR,1.746,,,,,,,,,,,,,,,2015_Oct_24_1430,K,facesParametric,9,59.6334952733,
./basicStim/23M_SP_O.jpg,,0,21,21,54,,,,,,,,,,,HAP,5.081,None,None,None,None,None,None,,,,,,,,,,,,,,,2015_Oct_24_1430,K,facesParametric,9,59.6334952733,
./basicStim/21M_NE_C.jpg,,0,22,22,48,,,,,,,,,,,None,None,None,None,None,None,NTR,1.311,,,,,,,,,,,,,,,2015_Oct_24_1430,K,facesParametric,9,59.6334952733,
./basicStim/23M_SA_C.jpg,,0,23,23,53,,,,,,,,,,,None,None,None,None,DIS,3.638,None,None,,,,,,,,,,,,,,,2015_Oct_24_1430,K,facesParametric,9,59.6334952733,
./basicStim/23M_AN_O.jpg,,0,24,24,49,,,,,,,,,,,None,None,ANG,2.485,None,None,None,None,,,,,,,,,,,,,,,2015_Oct_24_1430,K,facesParametric,9,59.6334952733,
./basicStim/01F_DI_O.jpg,,0,25,25,1,,,,,,,,,,,None,None,ANG,4.699,None,None,None,None,,,,,,,,,,,,,,,2015_Oct_24_1430,K,facesParametric,9,59.6334952733,
./basicStim/02F_FE_O.jpg,,0,26,26,9,,,,,,,,,,,None,None,None,None,SUP,1.93,None,None,,,,,,,,,,,,,,,2015_Oct_24_1430,K,facesParametric,9,59.6334952733,
./basicStim/03F_AN_O.jpg,,0,27,27,14,,,,,,,,,,,None,None,ANG,1.742,None,None,None,None,,,,,,,,,,,,,,,2015_Oct_24_1430,K,facesParametric,9,59.6334952733,
./basicStim/34M_DI_O.jpg,,0,28,28,71,,,,,,,,,,,HAP,7.429,None,None,None,None,None,None,,,,,,,,,,,,,,,2015_Oct_24_1430,K,facesParametric,9,59.6334952733,
./basicStim/09F_DI_O.jpg,,0,29,29,36,,,,,,,,,,,None,None,None,None,DIS,2.181,None,None,,,,,,,,,,,,,,,2015_Oct_24_1430,K,facesParametric,9,59.6334952733,
./basicStim/28M_AN_O.jpg,,0,30,30,63,,,,,,,,,,,None,None,None,None,DIS,3.172,None,None,,,,,,,,,,,,,,,2015_Oct_24_1430,K,facesParametric,9,59.6334952733,
./basicStim/24M_SA_C.jpg,,0,31,31,60,,,,,,,,,,,None,None,None,None,DIS,2.401,None,None,,,,,,,,,,,,,,,2015_Oct_24_1430,K,facesParametric,9,59.6334952733,
./basicStim/34M_HA_O.jpg,,0,32,32,73,,,,,,,,,,,HAP,1.634,None,None,None,None,None,None,,,,,,,,,,,,,,,2015_Oct_24_1430,K,facesParametric,9,59.6334952733,
./basicStim/02F_AN_O.jpg,,0,33,33,7,,,,,,,,,,,None,None,None,None,SUP,2.215,None,None,,,,,,,,,,,,,,,2015_Oct_24_1430,K,facesParametric,9,59.6334952733,
./basicStim/01F_HA_O.jpg,,0,34,34,3,,,,,,,,,,,HAP,1.901,None,None,None,None,None,None,,,,,,,,,,,,,,,2015_Oct_24_1430,K,facesParametric,9,59.6334952733,
./basicStim/23M_DI_O.jpg,,0,35,35,50,,,,,,,,,,,None,None,None,None,DIS,3.293,None,None,,,,,,,,,,,,,,,2015_Oct_24_1430,K,facesParametric,9,59.6334952733,
./basicStim/34M_SP_O.jpg,,0,36,36,75,,,,,,,,,,,None,None,None,None,SUP,1.75,None,None,,,,,,,,,,,,,,,2015_Oct_24_1430,K,facesParametric,9,59.6334952733,
./basicStim/02F_HA_O.jpg,,0,37,37,10,,,,,,,,,,,HAP,5.333,None,None,None,None,None,None,,,,,,,,,,,,,,,2015_Oct_24_1430,K,facesParametric,9,59.6334952733,
./basicStim/06F_SP_O.jpg,,0,38,38,26,,,,,,,,,,,None,None,None,None,SUP,1.759,None,None,,,,,,,,,,,,,,,2015_Oct_24_1430,K,facesParametric,9,59.6334952733,
./basicStim/06F_NE_C.jpg,,0,39,39,27,,,,,,,,,,,None,None,None,None,None,None,NTR,3.423,,,,,,,,,,,,,,,2015_Oct_24_1430,K,facesParametric,9,59.6334952733,
./basicStim/03F_SP_O.jpg,,0,40,40,19,,,,,,,,,,,HAP,2.955,None,None,None,None,None,None,,,,,,,,,,,,,,,2015_Oct_24_1430,K,facesParametric,9,59.6334952733,
./basicStim/24M_SP_O.jpg,,0,41,41,61,,,,,,,,,,,None,None,None,None,SUP,2.377,None,None,,,,,,,,,,,,,,,2015_Oct_24_1430,K,facesParametric,9,59.6334952733,
./basicStim/23M_HA_O.jpg,,0,42,42,52,,,,,,,,,,,HAP,3.271,None,None,None,None,None,None,,,,,,,,,,,,,,,2015_Oct_24_1430,K,facesParametric,9,59.6334952733,
./basicStim/36M_SA_C.jpg,,0,43,43,81,,,,,,,,,,,None,None,None,None,SUP,1.292,None,None,,,,,,,,,,,,,,,2015_Oct_24_1430,K,facesParametric,9,59.6334952733,
./basicStim/09F_SA_C.jpg,,0,44,44,39,,,,,,,,,,,None,None,None,None,SUP,2.267,None,None,,,,,,,,,,,,,,,2015_Oct_24_1430,K,facesParametric,9,59.6334952733,
./basicStim/36M_DI_O.jpg,,0,45,45,78,,,,,,,,,,,None,None,None,None,DIS,2.266,None,None,,,,,,,,,,,,,,,2015_Oct_24_1430,K,facesParametric,9,59.6334952733,
./basicStim/01F_AN_O.jpg,,0,46,46,0,,,,,,,,,,,None,None,ANG,1.391,None,None,None,None,,,,,,,,,,,,,,,2015_Oct_24_1430,K,facesParametric,9,59.6334952733,
./basicStim/09F_AN_O.jpg,,0,47,47,35,,,,,,,,,,,None,None,ANG,1.36,None,None,None,None,,,,,,,,,,,,,,,2015_Oct_24_1430,K,facesParametric,9,59.6334952733,
./basicStim/28M_SP_O.jpg,,0,48,48,68,,,,,,,,,,,None,None,None,None,SUP,0.89,None,None,,,,,,,,,,,,,,,2015_Oct_24_1430,K,facesParametric,9,59.6334952733,
./basicStim/03F_HA_O.jpg,,0,49,49,17,,,,,,,,,,,HAP,1.847,None,None,None,None,None,None,,,,,,,,,,,,,,,2015_Oct_24_1430,K,facesParametric,9,59.6334952733,
./basicStim/34M_NE_C.jpg,,0,50,50,76,,,,,,,,,,,None,None,None,None,None,None,NTR,1.154,,,,,,,,,,,,,,,2015_Oct_24_1430,K,facesParametric,9,59.6334952733,
./basicStim/21M_SA_C.jpg,,0,51,51,46,,,,,,,,,,,None,None,ANG,2.25,None,None,None,None,,,,,,,,,,,,,,,2015_Oct_24_1430,K,facesParametric,9,59.6334952733,
./basicStim/24M_HA_O.jpg,,0,52,52,59,,,,,,,,,,,HAP,2.369,None,None,None,None,None,None,,,,,,,,,,,,,,,2015_Oct_24_1430,K,facesParametric,9,59.6334952733,
./basicStim/36M_SP_O.jpg,,0,53,53,82,,,,,,,,,,,None,None,None,None,SUP,1.762,None,None,,,,,,,,,,,,,,,2015_Oct_24_1430,K,facesParametric,9,59.6334952733,
./basicStim/36M_FE_O.jpg,,0,54,54,79,,,,,,,,,,,None,None,None,None,DIS,1.828,None,None,,,,,,,,,,,,,,,2015_Oct_24_1430,K,facesParametric,9,59.6334952733,
./basicStim/34M_AN_O.jpg,,0,55,55,70,,,,,,,,,,,None,None,ANG,2.016,None,None,None,None,,,,,,,,,,,,,,,2015_Oct_24_1430,K,facesParametric,9,59.6334952733,
./basicStim/02F_NE_C.jpg,,0,56,56,13,,,,,,,,,,,None,None,None,None,None,None,NTR,1.274,,,,,,,,,,,,,,,2015_Oct_24_1430,K,facesParametric,9,59.6334952733,
./basicStim/03F_SA_C.jpg,,0,57,57,18,,,,,,,,,,,None,None,None,None,None,None,NTR,1.949,,,,,,,,,,,,,,,2015_Oct_24_1430,K,facesParametric,9,59.6334952733,
./basicStim/28M_NE_C.jpg,,0,58,58,69,,,,,,,,,,,None,None,None,None,None,None,NTR,1.241,,,,,,,,,,,,,,,2015_Oct_24_1430,K,facesParametric,9,59.6334952733,
./basicStim/06F_DI_O.jpg,,0,59,59,22,,,,,,,,,,,None,None,None,None,DIS,2.203,None,None,,,,,,,,,,,,,,,2015_Oct_24_1430,K,facesParametric,9,59.6334952733,
./basicStim/01F_SP_O.jpg,,0,60,60,5,,,,,,,,,,,None,None,None,None,SUP,1.695,None,None,,,,,,,,,,,,,,,2015_Oct_24_1430,K,facesParametric,9,59.6334952733,
./basicStim/09F_NE_C.jpg,,0,61,61,41,,,,,,,,,,,None,None,None,None,None,None,NTR,2.398,,,,,,,,,,,,,,,2015_Oct_24_1430,K,facesParametric,9,59.6334952733,
./basicStim/06F_AN_O.jpg,,0,62,62,21,,,,,,,,,,,None,None,None,None,DIS,1.759,None,None,,,,,,,,,,,,,,,2015_Oct_24_1430,K,facesParametric,9,59.6334952733,
./basicStim/24M_AN_O.jpg,,0,63,63,56,,,,,,,,,,,None,None,ANG,2.939,None,None,None,None,,,,,,,,,,,,,,,2015_Oct_24_1430,K,facesParametric,9,59.6334952733,
./basicStim/28M_DI_O.jpg,,0,64,64,64,,,,,,,,,,,None,None,None,None,SUP,3.673,None,None,,,,,,,,,,,,,,,2015_Oct_24_1430,K,facesParametric,9,59.6334952733,
./basicStim/07F_AN_O.jpg,,0,65,65,28,,,,,,,,,,,None,None,ANG,2.871,None,None,None,None,,,,,,,,,,,,,,,2015_Oct_24_1430,K,facesParametric,9,59.6334952733,
./basicStim/02F_SA_C.jpg,,0,66,66,11,,,,,,,,,,,None,None,None,None,SUP,2.936,None,None,,,,,,,,,,,,,,,2015_Oct_24_1430,K,facesParametric,9,59.6334952733,
./basicStim/07F_DI_O.jpg,,0,67,67,29,,,,,,,,,,,None,None,None,None,DIS,2.113,None,None,,,,,,,,,,,,,,,2015_Oct_24_1430,K,facesParametric,9,59.6334952733,
./basicStim/36M_AN_O.jpg,,0,68,68,77,,,,,,,,,,,None,None,None,None,SUP,2.318,None,None,,,,,,,,,,,,,,,2015_Oct_24_1430,K,facesParametric,9,59.6334952733,
./basicStim/21M_AN_O.jpg,,0,69,69,42,,,,,,,,,,,None,None,ANG,2.809,None,None,None,None,,,,,,,,,,,,,,,2015_Oct_24_1430,K,facesParametric,9,59.6334952733,
./basicStim/28M_FE_O.jpg,,0,70,70,65,,,,,,,,,,,None,None,None,None,SUP,1.845,None,None,,,,,,,,,,,,,,,2015_Oct_24_1430,K,facesParametric,9,59.6334952733,
./basicStim/01F_SA_C.jpg,,0,71,71,4,,,,,,,,,,,None,None,None,None,DIS,3.0,None,None,,,,,,,,,,,,,,,2015_Oct_24_1430,K,facesParametric,9,59.6334952733,
./basicStim/06F_FE_O.jpg,,0,72,72,23,,,,,,,,,,,None,None,None,None,SUP,1.364,None,None,,,,,,,,,,,,,,,2015_Oct_24_1430,K,facesParametric,9,59.6334952733,
./basicStim/07F_SA_C.jpg,,0,73,73,32,,,,,,,,,,,SAD,3.524,None,None,None,None,None,None,,,,,,,,,,,,,,,2015_Oct_24_1430,K,facesParametric,9,59.6334952733,
./basicStim/09F_SP_O.jpg,,0,74,74,40,,,,,,,,,,,None,None,None,None,SUP,2.753,None,None,,,,,,,,,,,,,,,2015_Oct_24_1430,K,facesParametric,9,59.6334952733,
./basicStim/03F_FE_O.jpg,,0,75,75,16,,,,,,,,,,,None,None,None,None,SUP,2.432,None,None,,,,,,,,,,,,,,,2015_Oct_24_1430,K,facesParametric,9,59.6334952733,
./basicStim/01F_FE_O.jpg,,0,76,76,2,,,,,,,,,,,None,None,None,None,SUP,1.796,None,None,,,,,,,,,,,,,,,2015_Oct_24_1430,K,facesParametric,9,59.6334952733,
./basicStim/24M_FE_O.jpg,,0,77,77,58,,,,,,,,,,,None,None,None,None,SUP,0.777,None,None,,,,,,,,,,,,,,,2015_Oct_24_1430,K,facesParametric,9,59.6334952733,
./basicStim/07F_SP_O.jpg,,0,78,78,33,,,,,,,,,,,None,None,None,None,SUP,0.757,None,None,,,,,,,,,,,,,,,2015_Oct_24_1430,K,facesParametric,9,59.6334952733,
./basicStim/02F_DI_O.jpg,,0,79,79,8,,,,,,,,,,,None,None,None,None,DIS,2.548,None,None,,,,,,,,,,,,,,,2015_Oct_24_1430,K,facesParametric,9,59.6334952733,
./basicStim/34M_SA_C.jpg,,0,80,80,74,,,,,,,,,,,None,None,None,None,DIS,2.262,None,None,,,,,,,,,,,,,,,2015_Oct_24_1430,K,facesParametric,9,59.6334952733,
./basicStim/23M_FE_O.jpg,,0,81,81,51,,,,,,,,,,,None,None,FEA,1.179,None,None,None,None,,,,,,,,,,,,,,,2015_Oct_24_1430,K,facesParametric,9,59.6334952733,
./basicStim/24M_NE_C.jpg,,0,82,82,62,,,,,,,,,,,None,None,None,None,None,None,NTR,1.239,,,,,,,,,,,,,,,2015_Oct_24_1430,K,facesParametric,9,59.6334952733,
./basicStim/06F_HA_O.jpg,,0,83,83,24,,,,,,,,,,,HAP,2.017,None,None,None,None,None,None,,,,,,,,,,,,,,,2015_Oct_24_1430,K,facesParametric,9,59.6334952733,
,,,,,,,,,,,,,,,,,,,,,,,,return,19.3556888103,,,,,,,,,,,,,2015_Oct_24_1430,K,facesParametric,9,59.6334952733,
,,,,,,,,,,,,,,return,2.54656600952,,,,,,,,,,,,,,,,,,,,,,,2015_Oct_24_1430,K,facesParametric,9,59.6334952733,
,,,,,,,,,,,,,,,,,,,,,,,,return,9.1847820282,,,,,,,,,,,,,2015_Oct_24_1430,K,facesParametric,9,59.6334952733,
,,,,,,,,,,,,,,,,,,,,,,,,,,return,2.1616590023,,,,,,,,,,,2015_Oct_24_1430,K,facesParametric,9,59.6334952733,
./stim/MorphM9_07_orig.jpg,0,,,,,0,0,0,0,,,,,,,,,,,,,,,,,,,22.939453125,12.1875,1,0,0,3.04420018196,,,,,2015_Oct_24_1430,K,facesParametric,9,59.6334952733,
./stim/MorphM10_05_orig.jpg,1,,,,,0,1,1,1,,,,,,,,,,,,,,,,,,,23.349609375,12.1875,0,0,1,1.92544579506,,,,,2015_Oct_24_1430,K,facesParametric,9,59.6334952733,
./stim/MorphM2_07_orig.jpg,2,,,,,0,2,2,2,,,,,,,,,,,,,,,,,,,23.26171875,12.216796875,0,0,1,1.94296193123,,,,,2015_Oct_24_1430,K,facesParametric,9,59.6334952733,
./stim/MorphF5_06_orig.jpg,3,,,,,0,3,3,3,,,,,,,,,,,,,,,,,,,23.26171875,12.216796875,0,0,1,1.30599117279,,,,,2015_Oct_24_1430,K,facesParametric,9,59.6334952733,
./stim/MorphM3_09_orig.jpg,4,,,,,0,4,4,4,,,,,,,,,,,,,,,,,,,23.26171875,12.216796875,0,0,1,2.84554195404,,,,,2015_Oct_24_1430,K,facesParametric,9,59.6334952733,
./stim/MorphF9_04_orig.jpg,5,,,,,0,5,5,5,,,,,,,,,,,,,,,,,,,23.408203125,12.36328125,1,0,0,1.49069905281,,,,,2015_Oct_24_1430,K,facesParametric,9,59.6334952733,
./stim/MorphM3_04_orig.jpg,6,,,,,0,6,6,6,,,,,,,,,,,,,,,,,,,23.408203125,12.1875,1,0,0,2.2776901722,,,,,2015_Oct_24_1430,K,facesParametric,9,59.6334952733,
./stim/MorphF10_00_orig.jpg,7,,,,,0,7,7,7,,,,,,,,,,,,,,,,,,,23.26171875,11.8359375,1,0,0,2.76373100281,,,,,2015_Oct_24_1430,K,facesParametric,9,59.6334952733,
./stim/MorphF6_01_orig.jpg,8,,,,,0,8,8,8,,,,,,,,,,,,,,,,,,,23.291015625,11.748046875,1,0,0,2.56390094757,,,,,2015_Oct_24_1430,K,facesParametric,9,59.6334952733,
./stim/MorphF1_01_orig.jpg,9,,,,,0,9,9,9,,,,,,,,,,,,,,,,,,,23.349609375,11.748046875,1,0,0,1.65686702728,,,,,2015_Oct_24_1430,K,facesParametric,9,59.6334952733,
./stim/MorphM3_07_orig.jpg,10,,,,,0,10,10,10,,,,,,,,,,,,,,,,,,,23.26171875,11.748046875,0,0,1,1.00421905518,,,,,2015_Oct_24_1430,K,facesParametric,9,59.6334952733,
./stim/MorphF7_08_orig.jpg,11,,,,,0,11,11,11,,,,,,,,,,,,,,,,,,,23.203125,11.513671875,1,0,0,2.39482903481,,,,,2015_Oct_24_1430,K,facesParametric,9,59.6334952733,
./stim/MorphM7_07_orig.jpg,12,,,,,0,12,12,12,,,,,,,,,,,,,,,,,,,23.232421875,11.6015625,0,0,1,2.662307024,,,,,2015_Oct_24_1430,K,facesParametric,9,59.6334952733,
./stim/MorphM9_04_orig.jpg,13,,,,,0,13,13,13,,,,,,,,,,,,,,,,,,,23.291015625,11.572265625,1,0,0,1.52242207527,,,,,2015_Oct_24_1430,K,facesParametric,9,59.6334952733,
./stim/MorphF7_02_orig.jpg,14,,,,,0,14,14,14,,,,,,,,,,,,,,,,,,,23.37890625,11.66015625,1,0,0,2.71363306046,,,,,2015_Oct_24_1430,K,facesParametric,9,59.6334952733,
./stim/MorphM4_02_orig.jpg,15,,,,,0,15,15,15,,,,,,,,,,,,,,,,,,,23.3203125,11.572265625,1,0,0,1.65611505508,,,,,2015_Oct_24_1430,K,facesParametric,9,59.6334952733,
./stim/MorphF2_08_orig.jpg,16,,,,,0,16,16,16,,,,,,,,,,,,,,,,,,,23.291015625,11.572265625,1,0,0,0.93573307991,,,,,2015_Oct_24_1430,K,facesParametric,9,59.6334952733,
./stim/MorphM10_04_orig.jpg,17,,,,,0,17,17,17,,,,,,,,,,,,,,,,,,,23.232421875,11.572265625,0,0,1,0.853832960129,,,,,2015_Oct_24_1430,K,facesParametric,9,59.6334952733,
./stim/MorphM6_05_orig.jpg,18,,,,,0,18,18,18,,,,,,,,,,,,,,,,,,,23.203125,11.54296875,0,0,1,4.3394651413,,,,,2015_Oct_24_1430,K,facesParametric,9,59.6334952733,
./stim/MorphM5_00_orig.jpg,19,,,,,0,19,19,19,,,,,,,,,,,,,,,,,,,23.203125,11.54296875,1,0,0,1.52326202393,,,,,2015_Oct_24_1430,K,facesParametric,9,59.6334952733,
./stim/MorphF1_03_orig.jpg,20,,,,,0,20,20,20,,,,,,,,,,,,,,,,,,,23.173828125,11.54296875,1,0,0,2.02684688568,,,,,2015_Oct_24_1430,K,facesParametric,9,59.6334952733,
./stim/MorphF5_05_orig.jpg,21,,,,,0,21,21,21,,,,,,,,,,,,,,,,,,,23.14453125,11.572265625,1,0,0,1.22276711464,,,,,2015_Oct_24_1430,K,facesParametric,9,59.6334952733,
./stim/MorphM10_02_orig.jpg,22,,,,,0,22,22,22,,,,,,,,,,,,,,,,,,,23.173828125,11.572265625,0,0,1,0.836205005646,,,,,2015_Oct_24_1430,K,facesParametric,9,59.6334952733,
./stim/MorphM8_08_orig.jpg,23,,,,,0,23,23,23,,,,,,,,,,,,,,,,,,,23.232421875,11.630859375,0,0,1,2.39318299294,,,,,2015_Oct_24_1430,K,facesParametric,9,59.6334952733,
./stim/MorphF3_05_orig.jpg,24,,,,,0,24,24,24,,,,,,,,,,,,,,,,,,,23.232421875,11.630859375,1,0,0,1.73995184898,,,,,2015_Oct_24_1430,K,facesParametric,9,59.6334952733,
./stim/MorphM8_07_orig.jpg,25,,,,,0,25,25,25,,,,,,,,,,,,,,,,,,,23.232421875,11.630859375,0,0,1,1.8065328598,,,,,2015_Oct_24_1430,K,facesParametric,9,59.6334952733,
./stim/MorphF4_01_orig.jpg,26,,,,,0,26,26,26,,,,,,,,,,,,,,,,,,,23.203125,11.6015625,1,0,0,1.40696597099,,,,,2015_Oct_24_1430,K,facesParametric,9,59.6334952733,
./stim/MorphM10_00_orig.jpg,27,,,,,0,27,27,27,,,,,,,,,,,,,,,,,,,23.203125,11.6015625,0,0,1,1.05421996117,,,,,2015_Oct_24_1430,K,facesParametric,9,59.6334952733,
./stim/MorphM8_09_orig.jpg,28,,,,,0,28,28,28,,,,,,,,,,,,,,,,,,,23.203125,11.6015625,0,0,1,1.64145517349,,,,,2015_Oct_24_1430,K,facesParametric,9,59.6334952733,
./stim/MorphM2_01_orig.jpg,29,,,,,0,29,29,29,,,,,,,,,,,,,,,,,,,23.203125,11.6015625,1,0,0,1.11982107162,,,,,2015_Oct_24_1430,K,facesParametric,9,59.6334952733,
./stim/MorphM6_03_orig.jpg,30,,,,,0,30,30,30,,,,,,,,,,,,,,,,,,,23.203125,11.630859375,1,0,0,2.59585809708,,,,,2015_Oct_24_1430,K,facesParametric,9,59.6334952733,
./stim/MorphM8_03_orig.jpg,31,,,,,0,31,31,31,,,,,,,,,,,,,,,,,,,23.232421875,11.630859375,1,0,0,2.22733020782,,,,,2015_Oct_24_1430,K,facesParametric,9,59.6334952733,
./stim/MorphF2_01_orig.jpg,32,,,,,0,32,32,32,,,,,,,,,,,,,,,,,,,23.26171875,11.630859375,1,0,0,1.18895411491,,,,,2015_Oct_24_1430,K,facesParametric,9,59.6334952733,
./stim/MorphM9_01_orig.jpg,33,,,,,0,33,33,33,,,,,,,,,,,,,,,,,,,23.291015625,11.66015625,1,0,0,1.18854784966,,,,,2015_Oct_24_1430,K,facesParametric,9,59.6334952733,
./stim/MorphF4_09_orig.jpg,34,,,,,0,34,34,34,,,,,,,,,,,,,,,,,,,23.26171875,11.630859375,0,0,1,1.63993406296,,,,,2015_Oct_24_1430,K,facesParametric,9,59.6334952733,
./stim/MorphM3_05_orig.jpg,35,,,,,0,35,35,35,,,,,,,,,,,,,,,,,,,23.3203125,11.6015625,0,0,1,1.45549988747,,,,,2015_Oct_24_1430,K,facesParametric,9,59.6334952733,
./stim/MorphM8_02_orig.jpg,36,,,,,0,36,36,36,,,,,,,,,,,,,,,,,,,23.26171875,11.54296875,0,0,1,3.08311796188,,,,,2015_Oct_24_1430,K,facesParametric,9,59.6334952733,
./stim/MorphF8_09_orig.jpg,37,,,,,0,37,37,37,,,,,,,,,,,,,,,,,,,23.26171875,11.54296875,1,0,0,1.28849196434,,,,,2015_Oct_24_1430,K,facesParametric,9,59.6334952733,
./stim/MorphM7_08_orig.jpg,38,,,,,0,38,38,38,,,,,,,,,,,,,,,,,,,23.232421875,11.513671875,0,0,1,1.47159600258,,,,,2015_Oct_24_1430,K,facesParametric,9,59.6334952733,
./stim/MorphM8_10_orig.jpg,39,,,,,0,39,39,39,,,,,,,,,,,,,,,,,,,23.232421875,11.513671875,0,0,1,0.870350837708,,,,,2015_Oct_24_1430,K,facesParametric,9,59.6334952733,
./stim/MorphF7_06_orig.jpg,40,,,,,0,40,40,40,,,,,,,,,,,,,,,,,,,23.232421875,11.513671875,1,0,0,1.28905797005,,,,,2015_Oct_24_1430,K,facesParametric,9,59.6334952733,
./stim/MorphF9_06_orig.jpg,41,,,,,0,41,41,41,,,,,,,,,,,,,,,,,,,23.14453125,11.484375,0,0,1,1.3227930069,,,,,2015_Oct_24_1430,K,facesParametric,9,59.6334952733,
./stim/MorphF6_06_orig.jpg,42,,,,,0,42,42,42,,,,,,,,,,,,,,,,,,,23.232421875,11.484375,0,0,1,2.45963692665,,,,,2015_Oct_24_1430,K,facesParametric,9,59.6334952733,
./stim/MorphM7_10_orig.jpg,43,,,,,0,43,43,43,,,,,,,,,,,,,,,,,,,23.26171875,11.513671875,0,0,1,1.5745549202,,,,,2015_Oct_24_1430,K,facesParametric,9,59.6334952733,
./stim/MorphF3_01_orig.jpg,44,,,,,0,44,44,44,,,,,,,,,,,,,,,,,,,23.26171875,11.513671875,1,0,0,1.11920380592,,,,,2015_Oct_24_1430,K,facesParametric,9,59.6334952733,
./stim/MorphM7_06_orig.jpg,45,,,,,0,45,45,45,,,,,,,,,,,,,,,,,,,23.26171875,11.513671875,0,0,1,3.85342001915,,,,,2015_Oct_24_1430,K,facesParametric,9,59.6334952733,
./stim/MorphM9_03_orig.jpg,46,,,,,0,46,46,46,,,,,,,,,,,,,,,,,,,23.26171875,11.513671875,0,0,1,1.07136893272,,,,,2015_Oct_24_1430,K,facesParametric,9,59.6334952733,
./stim/MorphF7_10_orig.jpg,47,,,,,0,47,47,47,,,,,,,,,,,,,,,,,,,23.26171875,11.513671875,0,0,1,0.820030927658,,,,,2015_Oct_24_1430,K,facesParametric,9,59.6334952733,
./stim/MorphF4_03_orig.jpg,48,,,,,0,48,48,48,,,,,,,,,,,,,,,,,,,23.26171875,11.513671875,1,0,0,1.40493893623,,,,,2015_Oct_24_1430,K,facesParametric,9,59.6334952733,
./stim/MorphF7_04_orig.jpg,49,,,,,0,49,49,49,,,,,,,,,,,,,,,,,,,23.291015625,11.513671875,1,0,0,0.684984207153,,,,,2015_Oct_24_1430,K,facesParametric,9,59.6334952733,
./stim/MorphM10_10_orig.jpg,50,,,,,0,50,50,50,,,,,,,,,,,,,,,,,,,23.291015625,11.513671875,0,0,1,1.13824009895,,,,,2015_Oct_24_1430,K,facesParametric,9,59.6334952733,
./stim/MorphM3_01_orig.jpg,51,,,,,0,51,51,51,,,,,,,,,,,,,,,,,,,23.291015625,11.513671875,1,0,0,1.50705289841,,,,,2015_Oct_24_1430,K,facesParametric,9,59.6334952733,
./stim/MorphM2_04_orig.jpg,52,,,,,0,52,52,52,,,,,,,,,,,,,,,,,,,23.26171875,11.54296875,0,0,1,0.903878927231,,,,,2015_Oct_24_1430,K,facesParametric,9,59.6334952733,
./stim/MorphF1_04_orig.jpg,53,,,,,0,53,53,53,,,,,,,,,,,,,,,,,,,23.203125,11.572265625,1,0,0,2.39395689964,,,,,2015_Oct_24_1430,K,facesParametric,9,59.6334952733,
./stim/MorphM4_01_orig.jpg,54,,,,,0,54,54,54,,,,,,,,,,,,,,,,,,,23.203125,11.572265625,1,0,0,2.10851216316,,,,,2015_Oct_24_1430,K,facesParametric,9,59.6334952733,
./stim/MorphF7_01_orig.jpg,55,,,,,0,55,55,55,,,,,,,,,,,,,,,,,,,23.203125,11.572265625,1,0,0,0.86884188652,,,,,2015_Oct_24_1430,K,facesParametric,9,59.6334952733,
./stim/MorphF2_09_orig.jpg,56,,,,,0,56,56,56,,,,,,,,,,,,,,,,,,,23.232421875,11.6015625,0,0,1,2.1260240078,,,,,2015_Oct_24_1430,K,facesParametric,9,59.6334952733,
./stim/MorphM1_02_orig.jpg,57,,,,,0,57,57,57,,,,,,,,,,,,,,,,,,,23.232421875,11.6015625,1,0,0,2.49324989319,,,,,2015_Oct_24_1430,K,facesParametric,9,59.6334952733,
./stim/MorphM6_01_orig.jpg,58,,,,,0,58,58,58,,,,,,,,,,,,,,,,,,,23.26171875,11.6015625,0,0,1,5.5125579834,,,,,2015_Oct_24_1430,K,facesParametric,9,59.6334952733,
./stim/MorphF5_09_orig.jpg,59,,,,,0,59,59,59,,,,,,,,,,,,,,,,,,,23.26171875,11.6015625,0,0,1,2.07682585716,,,,,2015_Oct_24_1430,K,facesParametric,9,59.6334952733,
./stim/MorphF3_02_orig.jpg,60,,,,,0,60,60,60,,,,,,,,,,,,,,,,,,,23.26171875,11.6015625,1,0,0,1.60783219337,,,,,2015_Oct_24_1430,K,facesParametric,9,59.6334952733,
./stim/MorphF5_07_orig.jpg,61,,,,,0,61,61,61,,,,,,,,,,,,,,,,,,,23.26171875,11.6015625,1,0,0,1.52367520332,,,,,2015_Oct_24_1430,K,facesParametric,9,59.6334952733,
./stim/MorphM9_05_orig.jpg,62,,,,,0,62,62,62,,,,,,,,,,,,,,,,,,,23.203125,11.572265625,1,0,0,7.75816082954,,,,,2015_Oct_24_1430,K,facesParametric,9,59.6334952733,
./stim/MorphF8_03_orig.jpg,63,,,,,0,63,63,63,,,,,,,,,,,,,,,,,,,23.203125,11.572265625,0,0,1,1.22163486481,,,,,2015_Oct_24_1430,K,facesParametric,9,59.6334952733,
./stim/MorphM7_03_orig.jpg,64,,,,,0,64,64,64,,,,,,,,,,,,,,,,,,,23.203125,11.572265625,0,0,1,2.56265592575,,,,,2015_Oct_24_1430,K,facesParametric,9,59.6334952733,
./stim/MorphF2_00_orig.jpg,65,,,,,0,65,65,65,,,,,,,,,,,,,,,,,,,23.14453125,11.6015625,1,0,0,3.09960389137,,,,,2015_Oct_24_1430,K,facesParametric,9,59.6334952733,
./stim/MorphM1_00_orig.jpg,66,,,,,0,66,66,66,,,,,,,,,,,,,,,,,,,23.14453125,11.6015625,1,0,0,2.12606287003,,,,,2015_Oct_24_1430,K,facesParametric,9,59.6334952733,
./stim/MorphF3_00_orig.jpg,67,,,,,0,67,67,67,,,,,,,,,,,,,,,,,,,23.14453125,11.6015625,1,0,0,0.701014995575,,,,,2015_Oct_24_1430,K,facesParametric,9,59.6334952733,
./stim/MorphM4_03_orig.jpg,68,,,,,0,68,68,68,,,,,,,,,,,,,,,,,,,23.14453125,11.6015625,1,0,0,1.60607481003,,,,,2015_Oct_24_1430,K,facesParametric,9,59.6334952733,
./stim/MorphF4_07_orig.jpg,69,,,,,0,69,69,69,,,,,,,,,,,,,,,,,,,23.14453125,11.6015625,0,0,1,1.25610399246,,,,,2015_Oct_24_1430,K,facesParametric,9,59.6334952733,
./stim/MorphM5_09_orig.jpg,70,,,,,0,70,70,70,,,,,,,,,,,,,,,,,,,23.14453125,11.6015625,0,0,1,2.78015017509,,,,,2015_Oct_24_1430,K,facesParametric,9,59.6334952733,
./stim/MorphF3_07_orig.jpg,71,,,,,0,71,71,71,,,,,,,,,,,,,,,,,,,23.173828125,11.630859375,0,0,1,2.14292216301,,,,,2015_Oct_24_1430,K,facesParametric,9,59.6334952733,
./stim/MorphF1_10_orig.jpg,72,,,,,0,72,72,72,,,,,,,,,,,,,,,,,,,23.173828125,11.630859375,0,0,1,1.54008388519,,,,,2015_Oct_24_1430,K,facesParametric,9,59.6334952733,
./stim/MorphM3_08_orig.jpg,73,,,,,0,73,73,73,,,,,,,,,,,,,,,,,,,23.173828125,11.630859375,0,0,1,1.35649085045,,,,,2015_Oct_24_1430,K,facesParametric,9,59.6334952733,
./stim/MorphM2_03_orig.jpg,74,,,,,0,74,74,74,,,,,,,,,,,,,,,,,,,23.173828125,11.630859375,1,0,0,1.03755807877,,,,,2015_Oct_24_1430,K,facesParametric,9,59.6334952733,
./stim/MorphF3_10_orig.jpg,75,,,,,0,75,75,75,,,,,,,,,,,,,,,,,,,23.203125,11.6015625,0,0,1,1.13721990585,,,,,2015_Oct_24_1430,K,facesParametric,9,59.6334952733,
./stim/MorphF5_02_orig.jpg,76,,,,,0,76,76,76,,,,,,,,,,,,,,,,,,,23.232421875,11.572265625,1,0,0,2.04297494888,,,,,2015_Oct_24_1430,K,facesParametric,9,59.6334952733,
./stim/MorphF3_06_orig.jpg,77,,,,,0,77,77,77,,,,,,,,,,,,,,,,,,,23.232421875,11.572265625,0,0,1,0.918705940247,,,,,2015_Oct_24_1430,K,facesParametric,9,59.6334952733,
./stim/MorphM2_00_orig.jpg,78,,,,,0,78,78,78,,,,,,,,,,,,,,,,,,,23.232421875,11.572265625,1,0,0,1.59082198143,,,,,2015_Oct_24_1430,K,facesParametric,9,59.6334952733,
./stim/MorphM1_06_orig.jpg,79,,,,,0,79,79,79,,,,,,,,,,,,,,,,,,,23.232421875,11.572265625,0,0,1,1.70813703537,,,,,2015_Oct_24_1430,K,facesParametric,9,59.6334952733,
./stim/MorphM8_06_orig.jpg,80,,,,,0,80,80,80,,,,,,,,,,,,,,,,,,,23.232421875,11.572265625,0,0,1,0.869235038757,,,,,2015_Oct_24_1430,K,facesParametric,9,59.6334952733,
./stim/MorphF10_04_orig.jpg,81,,,,,0,81,81,81,,,,,,,,,,,,,,,,,,,23.232421875,11.572265625,0,0,1,2.32811999321,,,,,2015_Oct_24_1430,K,facesParametric,9,59.6334952733,
./stim/MorphM2_10_orig.jpg,82,,,,,0,82,82,82,,,,,,,,,,,,,,,,,,,23.232421875,11.572265625,0,0,1,0.819921970367,,,,,2015_Oct_24_1430,K,facesParametric,9,59.6334952733,
./stim/MorphF9_00_orig.jpg,83,,,,,0,83,83,83,,,,,,,,,,,,,,,,,,,23.232421875,11.572265625,1,0,0,2.06037902832,,,,,2015_Oct_24_1430,K,facesParametric,9,59.6334952733,
./stim/MorphM5_07_orig.jpg,84,,,,,0,84,84,84,,,,,,,,,,,,,,,,,,,23.203125,11.54296875,0,0,1,1.82447290421,,,,,2015_Oct_24_1430,K,facesParametric,9,59.6334952733,
./stim/MorphF3_03_orig.jpg,85,,,,,0,85,85,85,,,,,,,,,,,,,,,,,,,23.203125,11.54296875,1,0,0,1.95970392227,,,,,2015_Oct_24_1430,K,facesParametric,9,59.6334952733,
./stim/MorphF4_02_orig.jpg,86,,,,,0,86,86,86,,,,,,,,,,,,,,,,,,,23.291015625,11.630859375,1,0,0,1.84222507477,,,,,2015_Oct_24_1430,K,facesParametric,9,59.6334952733,
./stim/MorphF6_00_orig.jpg,87,,,,,0,87,87,87,,,,,,,,,,,,,,,,,,,23.291015625,11.630859375,1,0,0,1.15495181084,,,,,2015_Oct_24_1430,K,facesParametric,9,59.6334952733,
./stim/MorphF4_04_orig.jpg,88,,,,,0,88,88,88,,,,,,,,,,,,,,,,,,,23.3203125,11.630859375,1,0,0,1.15579509735,,,,,2015_Oct_24_1430,K,facesParametric,9,59.6334952733,
./stim/MorphM7_02_orig.jpg,89,,,,,0,89,89,89,,,,,,,,,,,,,,,,,,,23.349609375,11.630859375,0,0,1,1.33686494827,,,,,2015_Oct_24_1430,K,facesParametric,9,59.6334952733,
./stim/MorphM3_03_orig.jpg,90,,,,,0,90,90,90,,,,,,,,,,,,,,,,,,,23.408203125,11.630859375,0,0,1,2.22831201553,,,,,2015_Oct_24_1430,K,facesParametric,9,59.6334952733,
./stim/MorphF9_03_orig.jpg,91,,,,,0,91,91,91,,,,,,,,,,,,,,,,,,,23.408203125,11.572265625,0,0,1,1.37235283852,,,,,2015_Oct_24_1430,K,facesParametric,9,59.6334952733,
./stim/MorphM7_05_orig.jpg,92,,,,,0,92,92,92,,,,,,,,,,,,,,,,,,,23.408203125,11.572265625,0,0,1,2.34411501884,,,,,2015_Oct_24_1430,K,facesParametric,9,59.6334952733,
./stim/MorphM1_07_orig.jpg,93,,,,,0,93,93,93,,,,,,,,,,,,,,,,,,,23.408203125,11.572265625,0,0,1,2.54625606537,,,,,2015_Oct_24_1430,K,facesParametric,9,59.6334952733,
./stim/MorphM4_00_orig.jpg,94,,,,,0,94,94,94,,,,,,,,,,,,,,,,,,,23.408203125,11.572265625,0,0,1,0.970384836197,,,,,2015_Oct_24_1430,K,facesParametric,9,59.6334952733,
./stim/MorphM9_08_orig.jpg,95,,,,,0,95,95,95,,,,,,,,,,,,,,,,,,,23.408203125,11.572265625,0,0,1,1.28944277763,,,,,2015_Oct_24_1430,K,facesParametric,9,59.6334952733,
./stim/MorphF6_02_orig.jpg,96,,,,,0,96,96,96,,,,,,,,,,,,,,,,,,,23.408203125,11.572265625,1,0,0,1.08622503281,,,,,2015_Oct_24_1430,K,facesParametric,9,59.6334952733,
./stim/MorphF7_09_orig.jpg,97,,,,,0,97,97,97,,,,,,,,,,,,,,,,,,,23.408203125,11.572265625,0,0,1,0.903599023819,,,,,2015_Oct_24_1430,K,facesParametric,9,59.6334952733,
./stim/MorphM2_08_orig.jpg,98,,,,,0,98,98,98,,,,,,,,,,,,,,,,,,,23.408203125,11.572265625,0,0,1,0.752642869949,,,,,2015_Oct_24_1430,K,facesParametric,9,59.6334952733,
./stim/MorphM6_09_orig.jpg,99,,,,,0,99,99,99,,,,,,,,,,,,,,,,,,,23.408203125,11.572265625,0,0,1,0.733837842941,,,,,2015_Oct_24_1430,K,facesParametric,9,59.6334952733,
./stim/MorphF2_10_orig.jpg,100,,,,,0,100,100,100,,,,,,,,,,,,,,,,,,,23.408203125,11.572265625,0,0,1,1.40657877922,,,,,2015_Oct_24_1430,K,facesParametric,9,59.6334952733,
./stim/MorphF10_07_orig.jpg,101,,,,,0,101,101,101,,,,,,,,,,,,,,,,,,,23.408203125,11.572265625,0,0,1,1.03899216652,,,,,2015_Oct_24_1430,K,facesParametric,9,59.6334952733,
./stim/MorphM5_04_orig.jpg,102,,,,,0,102,102,102,,,,,,,,,,,,,,,,,,,23.408203125,11.572265625,0,0,1,1.65662908554,,,,,2015_Oct_24_1430,K,facesParametric,9,59.6334952733,
./stim/MorphF8_05_orig.jpg,103,,,,,0,103,103,103,,,,,,,,,,,,,,,,,,,23.408203125,11.572265625,1,0,0,1.00272703171,,,,,2015_Oct_24_1430,K,facesParametric,9,59.6334952733,
./stim/MorphF2_03_orig.jpg,104,,,,,0,104,104,104,,,,,,,,,,,,,,,,,,,23.408203125,11.572265625,1,0,0,4.00409412384,,,,,2015_Oct_24_1430,K,facesParametric,9,59.6334952733,
./stim/MorphM3_00_orig.jpg,105,,,,,0,105,105,105,,,,,,,,,,,,,,,,,,,23.408203125,11.572265625,1,0,0,2.86466288567,,,,,2015_Oct_24_1430,K,facesParametric,9,59.6334952733,
./stim/MorphM5_08_orig.jpg,106,,,,,0,106,106,106,,,,,,,,,,,,,,,,,,,23.408203125,11.572265625,0,0,1,1.47278690338,,,,,2015_Oct_24_1430,K,facesParametric,9,59.6334952733,
./stim/MorphM10_01_orig.jpg,107,,,,,0,107,107,107,,,,,,,,,,,,,,,,,,,23.408203125,11.6015625,1,0,0,5.42742800713,,,,,2015_Oct_24_1430,K,facesParametric,9,59.6334952733,
./stim/MorphF2_05_orig.jpg,108,,,,,0,108,108,108,,,,,,,,,,,,,,,,,,,23.408203125,11.6015625,0,0,1,2.98215007782,,,,,2015_Oct_24_1430,K,facesParametric,9,59.6334952733,
./stim/MorphF7_03_orig.jpg,109,,,,,0,109,109,109,,,,,,,,,,,,,,,,,,,23.408203125,11.6015625,0,0,1,1.35598492622,,,,,2015_Oct_24_1430,K,facesParametric,9,59.6334952733,
./stim/MorphM4_06_orig.jpg,110,,,,,0,110,110,110,,,,,,,,,,,,,,,,,,,23.408203125,11.6015625,0,0,1,0.970638990402,,,,,2015_Oct_24_1430,K,facesParametric,9,59.6334952733,
./stim/MorphM9_06_orig.jpg,111,,,,,0,111,111,111,,,,,,,,,,,,,,,,,,,23.408203125,11.6015625,0,0,1,1.33952689171,,,,,2015_Oct_24_1430,K,facesParametric,9,59.6334952733,
./stim/MorphF9_10_orig.jpg,112,,,,,0,112,112,112,,,,,,,,,,,,,,,,,,,23.408203125,11.6015625,0,0,1,0.903266906738,,,,,2015_Oct_24_1430,K,facesParametric,9,59.6334952733,
./stim/MorphF10_08_orig.jpg,113,,,,,0,113,113,113,,,,,,,,,,,,,,,,,,,23.37890625,11.572265625,0,0,1,0.717407941818,,,,,2015_Oct_24_1430,K,facesParametric,9,59.6334952733,
./stim/MorphF5_01_orig.jpg,114,,,,,0,114,114,114,,,,,,,,,,,,,,,,,,,23.408203125,11.572265625,1,0,0,1.82552695274,,,,,2015_Oct_24_1430,K,facesParametric,9,59.6334952733,
./stim/MorphF8_06_orig.jpg,115,,,,,0,115,115,115,,,,,,,,,,,,,,,,,,,23.408203125,11.6015625,0,0,1,1.3037519455,,,,,2015_Oct_24_1430,K,facesParametric,9,59.6334952733,
./stim/MorphF2_06_orig.jpg,116,,,,,0,116,116,116,,,,,,,,,,,,,,,,,,,23.408203125,11.6015625,0,0,1,0.802948951721,,,,,2015_Oct_24_1430,K,facesParametric,9,59.6334952733,
./stim/MorphF10_01_orig.jpg,117,,,,,0,117,117,117,,,,,,,,,,,,,,,,,,,23.408203125,11.6015625,0,0,1,2.94724798203,,,,,2015_Oct_24_1430,K,facesParametric,9,59.6334952733,
./stim/MorphM7_04_orig.jpg,118,,,,,0,118,118,118,,,,,,,,,,,,,,,,,,,23.408203125,11.6015625,0,0,1,1.22278904915,,,,,2015_Oct_24_1430,K,facesParametric,9,59.6334952733,
./stim/MorphM2_05_orig.jpg,119,,,,,0,119,119,119,,,,,,,,,,,,,,,,,,,23.37890625,11.630859375,0,0,1,1.13770699501,,,,,2015_Oct_24_1430,K,facesParametric,9,59.6334952733,
./stim/MorphF9_05_orig.jpg,120,,,,,0,120,120,120,,,,,,,,,,,,,,,,,,,23.37890625,11.630859375,0,0,1,3.21685600281,,,,,2015_Oct_24_1430,K,facesParametric,9,59.6334952733,
./stim/MorphM6_08_orig.jpg,121,,,,,0,121,121,121,,,,,,,,,,,,,,,,,,,23.349609375,11.66015625,0,0,1,0.819491147995,,,,,2015_Oct_24_1430,K,facesParametric,9,59.6334952733,
./stim/MorphF4_00_orig.jpg,122,,,,,0,122,122,122,,,,,,,,,,,,,,,,,,,23.349609375,11.66015625,1,0,0,1.22136592865,,,,,2015_Oct_24_1430,K,facesParametric,9,59.6334952733,
./stim/MorphF1_09_orig.jpg,123,,,,,0,123,123,123,,,,,,,,,,,,,,,,,,,23.349609375,11.66015625,0,0,1,1.59095478058,,,,,2015_Oct_24_1430,K,facesParametric,9,59.6334952733,
./stim/MorphF6_09_orig.jpg,124,,,,,0,124,124,124,,,,,,,,,,,,,,,,,,,23.37890625,11.630859375,0,0,1,4.7408349514,,,,,2015_Oct_24_1430,K,facesParametric,9,59.6334952733,
./stim/MorphF9_07_orig.jpg,125,,,,,0,125,125,125,,,,,,,,,,,,,,,,,,,23.37890625,11.630859375,0,0,1,0.870020866394,,,,,2015_Oct_24_1430,K,facesParametric,9,59.6334952733,
./stim/MorphM6_10_orig.jpg,126,,,,,0,126,126,126,,,,,,,,,,,,,,,,,,,23.37890625,11.630859375,0,0,1,0.803435087204,,,,,2015_Oct_24_1430,K,facesParametric,9,59.6334952733,
./stim/MorphM9_10_orig.jpg,127,,,,,0,127,127,127,,,,,,,,,,,,,,,,,,,23.37890625,11.630859375,0,0,1,0.803323030472,,,,,2015_Oct_24_1430,K,facesParametric,9,59.6334952733,
./stim/MorphM6_02_orig.jpg,128,,,,,0,128,128,128,,,,,,,,,,,,,,,,,,,23.37890625,11.630859375,0,0,1,1.22224783897,,,,,2015_Oct_24_1430,K,facesParametric,9,59.6334952733,
./stim/MorphM5_05_orig.jpg,129,,,,,0,129,129,129,,,,,,,,,,,,,,,,,,,23.37890625,11.630859375,0,0,1,1.10533595085,,,,,2015_Oct_24_1430,K,facesParametric,9,59.6334952733,
./stim/MorphF8_04_orig.jpg,130,,,,,0,130,130,130,,,,,,,,,,,,,,,,,,,23.37890625,11.630859375,1,0,0,1.99037098885,,,,,2015_Oct_24_1430,K,facesParametric,9,59.6334952733,
./stim/MorphF10_09_orig.jpg,131,,,,,0,131,131,131,,,,,,,,,,,,,,,,,,,23.37890625,11.630859375,0,0,1,1.15545415878,,,,,2015_Oct_24_1430,K,facesParametric,9,59.6334952733,
./stim/MorphM5_03_orig.jpg,132,,,,,0,132,132,132,,,,,,,,,,,,,,,,,,,23.349609375,11.630859375,0,0,1,1.89302802086,,,,,2015_Oct_24_1430,K,facesParametric,9,59.6334952733,
./stim/MorphM9_00_orig.jpg,133,,,,,0,133,133,133,,,,,,,,,,,,,,,,,,,23.349609375,11.630859375,1,0,0,1.75857591629,,,,,2015_Oct_24_1430,K,facesParametric,9,59.6334952733,
./stim/MorphF5_04_orig.jpg,134,,,,,0,134,134,134,,,,,,,,,,,,,,,,,,,23.349609375,11.630859375,1,0,0,1.99271678925,,,,,2015_Oct_24_1430,K,facesParametric,9,59.6334952733,
./stim/MorphF8_10_orig.jpg,135,,,,,0,135,135,135,,,,,,,,,,,,,,,,,,,23.3203125,11.6015625,0,0,1,2.6288869381,,,,,2015_Oct_24_1430,K,facesParametric,9,59.6334952733,
./stim/MorphF7_07_orig.jpg,136,,,,,0,136,136,136,,,,,,,,,,,,,,,,,,,23.291015625,11.572265625,0,0,1,5.8309879303,,,,,2015_Oct_24_1430,K,facesParametric,9,59.6334952733,
./stim/MorphM5_10_orig.jpg,137,,,,,0,137,137,137,,,,,,,,,,,,,,,,,,,23.291015625,11.572265625,0,0,1,0.819808006287,,,,,2015_Oct_24_1430,K,facesParametric,9,59.6334952733,
./stim/MorphM9_09_orig.jpg,138,,,,,0,138,138,138,,,,,,,,,,,,,,,,,,,23.232421875,11.630859375,1,0,0,1.40547394753,,,,,2015_Oct_24_1430,K,facesParametric,9,59.6334952733,
./stim/MorphF5_03_orig.jpg,139,,,,,0,139,139,139,,,,,,,,,,,,,,,,,,,23.232421875,11.630859375,1,0,0,1.30434608459,,,,,2015_Oct_24_1430,K,facesParametric,9,59.6334952733,
./stim/MorphF1_06_orig.jpg,140,,,,,0,140,140,140,,,,,,,,,,,,,,,,,,,23.232421875,11.66015625,0,0,1,2.22696185112,,,,,2015_Oct_24_1430,K,facesParametric,9,59.6334952733,
./stim/MorphM6_00_orig.jpg,141,,,,,0,141,141,141,,,,,,,,,,,,,,,,,,,23.232421875,11.66015625,1,0,0,1.53859210014,,,,,2015_Oct_24_1430,K,facesParametric,9,59.6334952733,
./stim/MorphF9_08_orig.jpg,142,,,,,0,142,142,142,,,,,,,,,,,,,,,,,,,23.232421875,11.689453125,0,0,1,1.20576500893,,,,,2015_Oct_24_1430,K,facesParametric,9,59.6334952733,
./stim/MorphM7_00_orig.jpg,143,,,,,0,143,143,143,,,,,,,,,,,,,,,,,,,23.291015625,11.630859375,0,0,1,6.88702702522,,,,,2015_Oct_24_1430,K,facesParametric,9,59.6334952733,
./stim/MorphM1_05_orig.jpg,144,,,,,0,144,144,144,,,,,,,,,,,,,,,,,,,23.203125,11.6015625,1,0,0,6.21620416641,,,,,2015_Oct_24_1430,K,facesParametric,9,59.6334952733,
./stim/MorphM8_01_orig.jpg,145,,,,,0,145,145,145,,,,,,,,,,,,,,,,,,,23.26171875,11.630859375,0,0,1,4.05425000191,,,,,2015_Oct_24_1430,K,facesParametric,9,59.6334952733,
./stim/MorphF6_07_orig.jpg,146,,,,,0,146,146,146,,,,,,,,,,,,,,,,,,,23.291015625,11.630859375,0,0,1,2.14468312263,,,,,2015_Oct_24_1430,K,facesParametric,9,59.6334952733,
./stim/MorphF7_05_orig.jpg,147,,,,,0,147,147,147,,,,,,,,,,,,,,,,,,,23.3203125,11.6015625,0,0,1,1.89139795303,,,,,2015_Oct_24_1430,K,facesParametric,9,59.6334952733,
./stim/MorphM1_01_orig.jpg,148,,,,,0,148,148,148,,,,,,,,,,,,,,,,,,,23.3203125,11.6015625,1,0,0,3.43482804298,,,,,2015_Oct_24_1430,K,facesParametric,9,59.6334952733,
./stim/MorphF10_06_orig.jpg,149,,,,,0,149,149,149,,,,,,,,,,,,,,,,,,,23.3203125,11.6015625,0,0,1,1.12183594704,,,,,2015_Oct_24_1430,K,facesParametric,9,59.6334952733,
./stim/MorphM7_09_orig.jpg,150,,,,,0,150,150,150,,,,,,,,,,,,,,,,,,,23.3203125,11.6015625,0,0,1,1.78965592384,,,,,2015_Oct_24_1430,K,facesParametric,9,59.6334952733,
./stim/MorphM1_03_orig.jpg,151,,,,,0,151,151,151,,,,,,,,,,,,,,,,,,,23.3203125,11.6015625,1,0,0,2.66383385658,,,,,2015_Oct_24_1430,K,facesParametric,9,59.6334952733,
./stim/MorphF4_08_orig.jpg,152,,,,,0,152,152,152,,,,,,,,,,,,,,,,,,,23.3203125,11.6015625,0,0,1,1.17166495323,,,,,2015_Oct_24_1430,K,facesParametric,9,59.6334952733,
./stim/MorphM1_08_orig.jpg,153,,,,,0,153,153,153,,,,,,,,,,,,,,,,,,,23.3203125,11.6015625,0,0,1,1.02048587799,,,,,2015_Oct_24_1430,K,facesParametric,9,59.6334952733,
./stim/MorphM4_10_orig.jpg,154,,,,,0,154,154,154,,,,,,,,,,,,,,,,,,,23.3203125,11.6015625,0,0,1,1.12149119377,,,,,2015_Oct_24_1430,K,facesParametric,9,59.6334952733,
./stim/MorphF8_08_orig.jpg,155,,,,,0,155,155,155,,,,,,,,,,,,,,,,,,,23.3203125,11.6015625,0,0,1,2.34470391273,,,,,2015_Oct_24_1430,K,facesParametric,9,59.6334952733,
./stim/MorphM4_05_orig.jpg,156,,,,,0,156,156,156,,,,,,,,,,,,,,,,,,,23.3203125,11.6015625,0,0,1,1.22208595276,,,,,2015_Oct_24_1430,K,facesParametric,9,59.6334952733,
./stim/MorphF6_08_orig.jpg,157,,,,,0,157,157,157,,,,,,,,,,,,,,,,,,,23.3203125,11.6015625,0,0,1,0.853631019592,,,,,2015_Oct_24_1430,K,facesParametric,9,59.6334952733,
./stim/MorphM1_10_orig.jpg,158,,,,,0,158,158,158,,,,,,,,,,,,,,,,,,,23.3203125,11.6015625,0,0,1,0.819626808167,,,,,2015_Oct_24_1430,K,facesParametric,9,59.6334952733,
./stim/MorphM4_04_orig.jpg,159,,,,,0,159,159,159,,,,,,,,,,,,,,,,,,,23.3203125,11.6015625,0,0,1,1.22177910805,,,,,2015_Oct_24_1430,K,facesParametric,9,59.6334952733,
./stim/MorphM8_04_orig.jpg,160,,,,,0,160,160,160,,,,,,,,,,,,,,,,,,,23.3203125,11.6015625,0,0,1,0.87034201622,,,,,2015_Oct_24_1430,K,facesParametric,9,59.6334952733,
./stim/MorphF4_05_orig.jpg,161,,,,,0,161,161,161,,,,,,,,,,,,,,,,,,,23.3203125,11.6015625,0,0,1,0.668831825256,,,,,2015_Oct_24_1430,K,facesParametric,9,59.6334952733,
./stim/MorphF9_02_orig.jpg,162,,,,,0,162,162,162,,,,,,,,,,,,,,,,,,,23.3203125,11.6015625,1,0,0,2.93037080765,,,,,2015_Oct_24_1430,K,facesParametric,9,59.6334952733,
./stim/MorphF6_10_orig.jpg,163,,,,,0,163,163,163,,,,,,,,,,,,,,,,,,,23.3203125,11.6015625,0,0,1,1.02119898796,,,,,2015_Oct_24_1430,K,facesParametric,9,59.6334952733,
./stim/MorphF1_02_orig.jpg,164,,,,,0,164,164,164,,,,,,,,,,,,,,,,,,,23.3203125,11.6015625,1,0,0,2.37731480598,,,,,2015_Oct_24_1430,K,facesParametric,9,59.6334952733,
./stim/MorphF10_03_orig.jpg,165,,,,,0,165,165,165,,,,,,,,,,,,,,,,,,,23.3203125,11.6015625,0,0,1,1.25647616386,,,,,2015_Oct_24_1430,K,facesParametric,9,59.6334952733,
./stim/MorphF1_08_orig.jpg,166,,,,,0,166,166,166,,,,,,,,,,,,,,,,,,,23.3203125,11.6015625,0,0,1,2.93093299866,,,,,2015_Oct_24_1430,K,facesParametric,9,59.6334952733,
./stim/MorphM3_10_orig.jpg,167,,,,,0,167,167,167,,,,,,,,,,,,,,,,,,,23.3203125,11.6015625,0,0,1,1.3732919693,,,,,2015_Oct_24_1430,K,facesParametric,9,59.6334952733,
./stim/MorphM10_07_orig.jpg,168,,,,,0,168,168,168,,,,,,,,,,,,,,,,,,,23.3203125,11.6015625,0,0,1,1.15364480019,,,,,2015_Oct_24_1430,K,facesParametric,9,59.6334952733,
./stim/MorphF6_04_orig.jpg,169,,,,,0,169,169,169,,,,,,,,,,,,,,,,,,,23.3203125,11.6015625,0,0,1,0.567749977112,,,,,2015_Oct_24_1430,K,facesParametric,9,59.6334952733,
./stim/MorphM8_00_orig.jpg,170,,,,,0,170,170,170,,,,,,,,,,,,,,,,,,,23.3203125,11.6015625,0,0,1,1.40671801567,,,,,2015_Oct_24_1430,K,facesParametric,9,59.6334952733,
./stim/MorphF8_02_orig.jpg,171,,,,,0,171,171,171,,,,,,,,,,,,,,,,,,,23.3203125,11.6015625,0,0,1,1.12147712708,,,,,2015_Oct_24_1430,K,facesParametric,9,59.6334952733,
./stim/MorphM6_06_orig.jpg,172,,,,,0,172,172,172,,,,,,,,,,,,,,,,,,,23.3203125,11.6015625,0,0,1,1.57222986221,,,,,2015_Oct_24_1430,K,facesParametric,9,59.6334952733,
./stim/MorphM3_02_orig.jpg,173,,,,,0,173,173,173,,,,,,,,,,,,,,,,,,,23.3203125,11.6015625,0,0,1,1.10317397118,,,,,2015_Oct_24_1430,K,facesParametric,9,59.6334952733,
./stim/MorphF2_07_orig.jpg,174,,,,,0,174,174,174,,,,,,,,,,,,,,,,,,,23.3203125,11.6015625,0,0,1,1.42281913757,,,,,2015_Oct_24_1430,K,facesParametric,9,59.6334952733,
./stim/MorphF6_05_orig.jpg,175,,,,,0,175,175,175,,,,,,,,,,,,,,,,,,,23.3203125,11.6015625,0,0,1,0.97114109993,,,,,2015_Oct_24_1430,K,facesParametric,9,59.6334952733,
./stim/MorphM4_09_orig.jpg,176,,,,,0,176,176,176,,,,,,,,,,,,,,,,,,,23.3203125,11.6015625,0,0,1,1.59081101418,,,,,2015_Oct_24_1430,K,facesParametric,9,59.6334952733,
./stim/MorphF1_07_orig.jpg,177,,,,,0,177,177,177,,,,,,,,,,,,,,,,,,,23.3203125,11.6015625,0,0,1,2.31177210808,,,,,2015_Oct_24_1430,K,facesParametric,9,59.6334952733,
./stim/MorphM4_07_orig.jpg,178,,,,,0,178,178,178,,,,,,,,,,,,,,,,,,,23.3203125,11.6015625,0,0,1,0.936252117157,,,,,2015_Oct_24_1430,K,facesParametric,9,59.6334952733,
./stim/MorphF3_09_orig.jpg,179,,,,,0,179,179,179,,,,,,,,,,,,,,,,,,,23.3203125,11.6015625,0,0,1,2.57976293564,,,,,2015_Oct_24_1430,K,facesParametric,9,59.6334952733,
./stim/MorphM7_01_orig.jpg,180,,,,,0,180,180,180,,,,,,,,,,,,,,,,,,,23.3203125,11.572265625,1,0,0,9.06567716599,,,,,2015_Oct_24_1430,K,facesParametric,9,59.6334952733,
./stim/MorphF10_10_orig.jpg,181,,,,,0,181,181,181,,,,,,,,,,,,,,,,,,,23.291015625,11.513671875,0,0,1,4.1554749012,,,,,2015_Oct_24_1430,K,facesParametric,9,59.6334952733,
./stim/MorphF8_07_orig.jpg,182,,,,,0,182,182,182,,,,,,,,,,,,,,,,,,,23.173828125,11.3671875,0,0,1,4.50725889206,,,,,2015_Oct_24_1430,K,facesParametric,9,59.6334952733,
./stim/MorphM9_02_orig.jpg,183,,,,,0,183,183,183,,,,,,,,,,,,,,,,,,,22.96875,11.3671875,0,0,1,8.3948700428,,,,,2015_Oct_24_1430,K,facesParametric,9,59.6334952733,
./stim/MorphF8_01_orig.jpg,184,,,,,0,184,184,184,,,,,,,,,,,,,,,,,,,23.203125,11.279296875,0,0,1,4.79115509987,,,,,2015_Oct_24_1430,K,facesParametric,9,59.6334952733,
./stim/MorphM2_09_orig.jpg,185,,,,,0,185,185,185,,,,,,,,,,,,,,,,,,,23.203125,11.279296875,0,0,1,2.29517507553,,,,,2015_Oct_24_1430,K,facesParametric,9,59.6334952733,
./stim/MorphM1_04_orig.jpg,186,,,,,0,186,186,186,,,,,,,,,,,,,,,,,,,23.232421875,11.455078125,0,0,1,4.9594950676,,,,,2015_Oct_24_1430,K,facesParametric,9,59.6334952733,
./stim/MorphF10_05_orig.jpg,187,,,,,0,187,187,187,,,,,,,,,,,,,,,,,,,23.232421875,11.455078125,0,0,1,0.887382030487,,,,,2015_Oct_24_1430,K,facesParametric,9,59.6334952733,
./stim/MorphF5_10_orig.jpg,188,,,,,0,188,188,188,,,,,,,,,,,,,,,,,,,23.291015625,11.42578125,0,0,1,5.91478395462,,,,,2015_Oct_24_1430,K,facesParametric,9,59.6334952733,
./stim/MorphF7_00_orig.jpg,189,,,,,0,189,189,189,,,,,,,,,,,,,,,,,,,23.291015625,11.42578125,0,0,1,0.821371078491,,,,,2015_Oct_24_1430,K,facesParametric,9,59.6334952733,
./stim/MorphF3_04_orig.jpg,190,,,,,0,190,190,190,,,,,,,,,,,,,,,,,,,23.26171875,11.30859375,1,0,0,3.78298187256,,,,,2015_Oct_24_1430,K,facesParametric,9,59.6334952733,
./stim/MorphM10_03_orig.jpg,191,,,,,0,191,191,191,,,,,,,,,,,,,,,,,,,23.232421875,11.337890625,0,0,1,0.66903090477,,,,,2015_Oct_24_1430,K,facesParametric,9,59.6334952733,
./stim/MorphF5_08_orig.jpg,192,,,,,0,192,192,192,,,,,,,,,,,,,,,,,,,23.291015625,11.3671875,0,0,1,2.11025595665,,,,,2015_Oct_24_1430,K,facesParametric,9,59.6334952733,
./stim/MorphM5_06_orig.jpg,193,,,,,0,193,193,193,,,,,,,,,,,,,,,,,,,23.232421875,11.3671875,0,0,1,0.920340061188,,,,,2015_Oct_24_1430,K,facesParametric,9,59.6334952733,
./stim/MorphF1_05_orig.jpg,194,,,,,0,194,194,194,,,,,,,,,,,,,,,,,,,23.232421875,11.30859375,0,0,1,2.9988257885,,,,,2015_Oct_24_1430,K,facesParametric,9,59.6334952733,
./stim/MorphF3_08_orig.jpg,195,,,,,0,195,195,195,,,,,,,,,,,,,,,,,,,23.232421875,11.30859375,0,0,1,1.9089179039,,,,,2015_Oct_24_1430,K,facesParametric,9,59.6334952733,
./stim/MorphM2_02_orig.jpg,196,,,,,0,196,196,196,,,,,,,,,,,,,,,,,,,23.26171875,11.337890625,1,0,0,1.45632314682,,,,,2015_Oct_24_1430,K,facesParametric,9,59.6334952733,
./stim/MorphM10_09_orig.jpg,197,,,,,0,197,197,197,,,,,,,,,,,,,,,,,,,23.232421875,11.30859375,0,0,1,0.836642980576,,,,,2015_Oct_24_1430,K,facesParametric,9,59.6334952733,
./stim/MorphM6_07_orig.jpg,198,,,,,0,198,198,198,,,,,,,,,,,,,,,,,,,23.232421875,11.30859375,0,0,1,2.02655887604,,,,,2015_Oct_24_1430,K,facesParametric,9,59.6334952733,
./stim/MorphM5_01_orig.jpg,199,,,,,0,199,199,199,,,,,,,,,,,,,,,,,,,23.203125,11.30859375,0,0,1,0.970779180527,,,,,2015_Oct_24_1430,K,facesParametric,9,59.6334952733,
./stim/MorphM10_08_orig.jpg,200,,,,,0,200,200,200,,,,,,,,,,,,,,,,,,,23.14453125,11.279296875,0,0,1,1.85909795761,,,,,2015_Oct_24_1430,K,facesParametric,9,59.6334952733,
./stim/MorphF5_00_orig.jpg,201,,,,,0,201,201,201,,,,,,,,,,,,,,,,,,,23.0859375,11.279296875,1,0,0,3.68547201157,,,,,2015_Oct_24_1430,K,facesParametric,9,59.6334952733,
./stim/MorphM8_05_orig.jpg,202,,,,,0,202,202,202,,,,,,,,,,,,,,,,,,,23.0859375,11.279296875,0,0,1,0.836833000183,,,,,2015_Oct_24_1430,K,facesParametric,9,59.6334952733,
./stim/MorphF4_06_orig.jpg,203,,,,,0,203,203,203,,,,,,,,,,,,,,,,,,,23.0859375,11.279296875,0,0,1,1.42184901237,,,,,2015_Oct_24_1430,K,facesParametric,9,59.6334952733,
./stim/MorphF1_00_orig.jpg,204,,,,,0,204,204,204,,,,,,,,,,,,,,,,,,,23.0859375,11.279296875,1,0,0,1.85761594772,,,,,2015_Oct_24_1430,K,facesParametric,9,59.6334952733,
./stim/MorphM5_02_orig.jpg,205,,,,,0,205,205,205,,,,,,,,,,,,,,,,,,,22.998046875,11.25,0,0,1,1.42240715027,,,,,2015_Oct_24_1430,K,facesParametric,9,59.6334952733,
./stim/MorphM3_06_orig.jpg,206,,,,,0,206,206,206,,,,,,,,,,,,,,,,,,,22.939453125,11.19140625,0,0,1,7.15510892868,,,,,2015_Oct_24_1430,K,facesParametric,9,59.6334952733,
./stim/MorphM1_09_orig.jpg,207,,,,,0,207,207,207,,,,,,,,,,,,,,,,,,,22.96875,11.25,0,0,1,0.78621506691,,,,,2015_Oct_24_1430,K,facesParametric,9,59.6334952733,
./stim/MorphF4_10_orig.jpg,208,,,,,0,208,208,208,,,,,,,,,,,,,,,,,,,22.763671875,11.42578125,0,0,1,3.30078792572,,,,,2015_Oct_24_1430,K,facesParametric,9,59.6334952733,
./stim/MorphF6_03_orig.jpg,209,,,,,0,209,209,209,,,,,,,,,,,,,,,,,,,22.55859375,11.54296875,1,0,0,5.74691510201,,,,,2015_Oct_24_1430,K,facesParametric,9,59.6334952733,
./stim/MorphM4_08_orig.jpg,210,,,,,0,210,210,210,,,,,,,,,,,,,,,,,,,20.771484375,11.162109375,0,0,1,3.97097802162,,,,,2015_Oct_24_1430,K,facesParametric,9,59.6334952733,
./stim/MorphF8_00_orig.jpg,211,,,,,0,211,211,211,,,,,,,,,,,,,,,,,,,20.595703125,11.25,1,0,0,2.21110701561,,,,,2015_Oct_24_1430,K,facesParametric,9,59.6334952733,
./stim/MorphM10_06_orig.jpg,212,,,,,0,212,212,212,,,,,,,,,,,,,,,,,,,20.185546875,11.19140625,0,0,1,2.96469593048,,,,,2015_Oct_24_1430,K,facesParametric,9,59.6334952733,
./stim/MorphM2_06_orig.jpg,213,,,,,0,213,213,213,,,,,,,,,,,,,,,,,,,19.130859375,11.30859375,1,0,0,3.13303422928,,,,,2015_Oct_24_1430,K,facesParametric,9,59.6334952733,
./stim/MorphM6_04_orig.jpg,214,,,,,0,214,214,214,,,,,,,,,,,,,,,,,,,18.720703125,11.30859375,1,0,0,3.38182401657,,,,,2015_Oct_24_1430,K,facesParametric,9,59.6334952733,
./stim/MorphF2_02_orig.jpg,215,,,,,0,215,215,215,,,,,,,,,,,,,,,,,,,18.69140625,11.279296875,0,0,1,2.56299114227,,,,,2015_Oct_24_1430,K,facesParametric,9,59.6334952733,
./stim/MorphF10_02_orig.jpg,216,,,,,0,216,216,216,,,,,,,,,,,,,,,,,,,18.662109375,11.279296875,0,0,1,2.88149619102,,,,,2015_Oct_24_1430,K,facesParametric,9,59.6334952733,
./stim/MorphF9_09_orig.jpg,217,,,,,0,217,217,217,,,,,,,,,,,,,,,,,,,18.6328125,11.25,0,0,1,1.42130303383,,,,,2015_Oct_24_1430,K,facesParametric,9,59.6334952733,
./stim/MorphF2_04_orig.jpg,218,,,,,0,218,218,218,,,,,,,,,,,,,,,,,,,18.6328125,11.25,0,0,1,0.853460788727,,,,,2015_Oct_24_1430,K,facesParametric,9,59.6334952733,
./stim/MorphF9_01_orig.jpg,219,,,,,0,219,219,219,,,,,,,,,,,,,,,,,,,18.369140625,11.396484375,1,0,0,1.5901350975,,,,,2015_Oct_24_1430,K,facesParametric,9,59.6334952733,
,,,,,,,,,,,,,,,,,,,,,,,,,,,,,,,,,,return,439.740907907,,,2015_Oct_24_1430,K,facesParametric,9,59.6334952733,
./stim/MorphM4_05_orig.jpg,0,,,,,,,,,0,0,0,0,,,,,,,,,,,,,,,-22.20703125,-1.875,0,0,1,3.3574821949,,,,,2015_Oct_24_1430,K,facesParametric,9,59.6334952733,
./stim/MorphM7_09_orig.jpg,1,,,,,,,,,0,1,1,1,,,,,,,,,,,,,,,-22.20703125,-1.611328125,0,0,1,1.32190918922,,,,,2015_Oct_24_1430,K,facesParametric,9,59.6334952733,
./stim/MorphM5_07_orig.jpg,2,,,,,,,,,0,2,2,2,,,,,,,,,,,,,,,-22.177734375,-1.669921875,0,0,1,6.87072086334,,,,,2015_Oct_24_1430,K,facesParametric,9,59.6334952733,
./stim/MorphF7_07_orig.jpg,3,,,,,,,,,0,3,3,3,,,,,,,,,,,,,,,-22.96875,-3.955078125,1,0,0,1.94073700905,,,,,2015_Oct_24_1430,K,facesParametric,9,59.6334952733,
./stim/MorphM8_02_orig.jpg,4,,,,,,,,,0,4,4,4,,,,,,,,,,,,,,,-23.4375,-4.27734375,0,0,1,2.17753887177,,,,,2015_Oct_24_1430,K,facesParametric,9,59.6334952733,
./stim/MorphM3_00_orig.jpg,5,,,,,,,,,0,5,5,5,,,,,,,,,,,,,,,-23.4375,-2.40234375,1,0,0,4.85776495934,,,,,2015_Oct_24_1430,K,facesParametric,9,59.6334952733,
./stim/MorphM1_08_orig.jpg,6,,,,,,,,,0,6,6,6,,,,,,,,,,,,,,,-23.4375,-2.255859375,0,0,1,1.30542016029,,,,,2015_Oct_24_1430,K,facesParametric,9,59.6334952733,
./stim/MorphF5_08_orig.jpg,7,,,,,,,,,0,7,7,7,,,,,,,,,,,,,,,-23.4375,-1.875,0,0,1,1.45723509789,,,,,2015_Oct_24_1430,K,facesParametric,9,59.6334952733,
./stim/MorphF8_02_orig.jpg,8,,,,,,,,,0,8,8,8,,,,,,,,,,,,,,,-23.4375,-1.787109375,1,0,0,1.4733080864,,,,,2015_Oct_24_1430,K,facesParametric,9,59.6334952733,
./stim/MorphF3_04_orig.jpg,9,,,,,,,,,0,9,9,9,,,,,,,,,,,,,,,-23.408203125,-1.845703125,1,0,0,6.31577301025,,,,,2015_Oct_24_1430,K,facesParametric,9,59.6334952733,
./stim/MorphM8_06_orig.jpg,10,,,,,,,,,0,10,10,10,,,,,,,,,,,,,,,-23.4375,-1.552734375,0,0,1,0.954036951065,,,,,2015_Oct_24_1430,K,facesParametric,9,59.6334952733,
./stim/MorphM1_02_orig.jpg,11,,,,,,,,,0,11,11,11,,,,,,,,,,,,,,,-23.4375,-1.611328125,1,0,0,2.76590490341,,,,,2015_Oct_24_1430,K,facesParametric,9,59.6334952733,
./stim/MorphF9_03_orig.jpg,12,,,,,,,,,0,12,12,12,,,,,,,,,,,,,,,-14.12109375,-3.837890625,1,0,0,14.0394849777,,,,,2015_Oct_24_1430,K,facesParametric,9,59.6334952733,
./stim/MorphF3_01_orig.jpg,13,,,,,,,,,0,13,13,13,,,,,,,,,,,,,,,-14.0625,-3.896484375,1,0,0,2.02653288841,,,,,2015_Oct_24_1430,K,facesParametric,9,59.6334952733,
./stim/MorphF4_10_orig.jpg,14,,,,,,,,,0,14,14,14,,,,,,,,,,,,,,,-14.0625,-3.486328125,0,0,1,1.15254306793,,,,,2015_Oct_24_1430,K,facesParametric,9,59.6334952733,
./stim/MorphF6_07_orig.jpg,15,,,,,,,,,0,15,15,15,,,,,,,,,,,,,,,-14.0625,-3.6328125,0,0,1,1.00206518173,,,,,2015_Oct_24_1430,K,facesParametric,9,59.6334952733,
./stim/MorphF7_05_orig.jpg,16,,,,,,,,,0,16,16,16,,,,,,,,,,,,,,,-14.0625,-3.69140625,1,0,0,3.75292491913,,,,,2015_Oct_24_1430,K,facesParametric,9,59.6334952733,
./stim/MorphF6_00_orig.jpg,17,,,,,,,,,0,17,17,17,,,,,,,,,,,,,,,-14.091796875,-3.662109375,1,0,0,1.50593805313,,,,,2015_Oct_24_1430,K,facesParametric,9,59.6334952733,
./stim/MorphF1_02_orig.jpg,18,,,,,,,,,0,18,18,18,,,,,,,,,,,,,,,-14.091796875,-3.57421875,1,0,0,0.952688932419,,,,,2015_Oct_24_1430,K,facesParametric,9,59.6334952733,
./stim/MorphF4_04_orig.jpg,19,,,,,,,,,0,19,19,19,,,,,,,,,,,,,,,-14.091796875,-3.57421875,1,0,0,1.05326604843,,,,,2015_Oct_24_1430,K,facesParametric,9,59.6334952733,
./stim/MorphM5_01_orig.jpg,20,,,,,,,,,0,20,20,20,,,,,,,,,,,,,,,-14.150390625,-3.57421875,0,0,1,2.14391613007,,,,,2015_Oct_24_1430,K,facesParametric,9,59.6334952733,
./stim/MorphM7_03_orig.jpg,21,,,,,,,,,0,21,21,21,,,,,,,,,,,,,,,-14.12109375,-3.57421875,0,0,1,1.95953083038,,,,,2015_Oct_24_1430,K,facesParametric,9,59.6334952733,
./stim/MorphM10_01_orig.jpg,22,,,,,,,,,0,22,22,22,,,,,,,,,,,,,,,-14.091796875,-3.45703125,1,0,0,1.54059004784,,,,,2015_Oct_24_1430,K,facesParametric,9,59.6334952733,
./stim/MorphM4_07_orig.jpg,23,,,,,,,,,0,23,23,23,,,,,,,,,,,,,,,-14.0625,-3.45703125,0,0,1,1.25629711151,,,,,2015_Oct_24_1430,K,facesParametric,9,59.6334952733,
./stim/MorphM7_10_orig.jpg,24,,,,,,,,,0,24,24,24,,,,,,,,,,,,,,,-14.033203125,-3.486328125,0,0,1,1.00186681747,,,,,2015_Oct_24_1430,K,facesParametric,9,59.6334952733,
./stim/MorphM4_03_orig.jpg,25,,,,,,,,,0,25,25,25,,,,,,,,,,,,,,,-14.00390625,-3.515625,1,0,0,1.43971991539,,,,,2015_Oct_24_1430,K,facesParametric,9,59.6334952733,
./stim/MorphM10_10_orig.jpg,26,,,,,,,,,0,26,26,26,,,,,,,,,,,,,,,-14.0625,-3.427734375,0,0,1,1.27179813385,,,,,2015_Oct_24_1430,K,facesParametric,9,59.6334952733,
./stim/MorphM7_08_orig.jpg,27,,,,,,,,,0,27,27,27,,,,,,,,,,,,,,,-14.1796875,-3.33984375,0,0,1,1.33901715279,,,,,2015_Oct_24_1430,K,facesParametric,9,59.6334952733,
./stim/MorphF8_00_orig.jpg,28,,,,,,,,,0,28,28,28,,,,,,,,,,,,,,,-14.1796875,-3.33984375,1,0,0,1.18928408623,,,,,2015_Oct_24_1430,K,facesParametric,9,59.6334952733,
./stim/MorphF2_10_orig.jpg,29,,,,,,,,,0,29,29,29,,,,,,,,,,,,,,,-14.1796875,-3.3984375,0,0,1,1.06897592545,,,,,2015_Oct_24_1430,K,facesParametric,9,59.6334952733,
./stim/MorphM1_09_orig.jpg,30,,,,,,,,,0,30,30,30,,,,,,,,,,,,,,,-14.267578125,-3.28125,0,0,1,1.50491213799,,,,,2015_Oct_24_1430,K,facesParametric,9,59.6334952733,
./stim/MorphF7_02_orig.jpg,31,,,,,,,,,0,31,31,31,,,,,,,,,,,,,,,-14.267578125,-3.33984375,1,0,0,1.23714900017,,,,,2015_Oct_24_1430,K,facesParametric,9,59.6334952733,
./stim/MorphM5_09_orig.jpg,32,,,,,,,,,0,32,32,32,,,,,,,,,,,,,,,-14.23828125,-3.1640625,0,0,1,1.1049849987,,,,,2015_Oct_24_1430,K,facesParametric,9,59.6334952733,
./stim/MorphM9_05_orig.jpg,33,,,,,,,,,0,33,33,33,,,,,,,,,,,,,,,-14.267578125,-3.22265625,0,0,1,3.24942398071,,,,,2015_Oct_24_1430,K,facesParametric,9,59.6334952733,
./stim/MorphF5_03_orig.jpg,34,,,,,,,,,0,34,34,34,,,,,,,,,,,,,,,-14.267578125,-3.076171875,1,0,0,2.17760396004,,,,,2015_Oct_24_1430,K,facesParametric,9,59.6334952733,
./stim/MorphF10_07_orig.jpg,35,,,,,,,,,0,35,35,35,,,,,,,,,,,,,,,-14.1796875,-2.87109375,0,0,1,3.73639702797,,,,,2015_Oct_24_1430,K,facesParametric,9,59.6334952733,
./stim/MorphF1_04_orig.jpg,36,,,,,,,,,0,36,36,36,,,,,,,,,,,,,,,-14.12109375,-2.8125,1,0,0,1.10445380211,,,,,2015_Oct_24_1430,K,facesParametric,9,59.6334952733,
./stim/MorphM8_09_orig.jpg,37,,,,,,,,,0,37,37,37,,,,,,,,,,,,,,,-14.0625,-2.431640625,0,0,1,1.90922284126,,,,,2015_Oct_24_1430,K,facesParametric,9,59.6334952733,
./stim/MorphF3_03_orig.jpg,38,,,,,,,,,0,38,38,38,,,,,,,,,,,,,,,-14.12109375,-2.34375,1,0,0,1.22040510178,,,,,2015_Oct_24_1430,K,facesParametric,9,59.6334952733,
./stim/MorphM6_06_orig.jpg,39,,,,,,,,,0,39,39,39,,,,,,,,,,,,,,,-14.091796875,-2.314453125,1,0,0,1.77620983124,,,,,2015_Oct_24_1430,K,facesParametric,9,59.6334952733,
./stim/MorphM9_07_orig.jpg,40,,,,,,,,,0,40,40,40,,,,,,,,,,,,,,,-14.150390625,-2.40234375,0,0,1,1.82298994064,,,,,2015_Oct_24_1430,K,facesParametric,9,59.6334952733,
./stim/MorphF1_01_orig.jpg,41,,,,,,,,,0,41,41,41,,,,,,,,,,,,,,,-14.091796875,-2.431640625,1,0,0,1.25550198555,,,,,2015_Oct_24_1430,K,facesParametric,9,59.6334952733,
./stim/MorphM2_04_orig.jpg,42,,,,,,,,,0,42,42,42,,,,,,,,,,,,,,,-14.033203125,-2.51953125,1,0,0,2.19468092918,,,,,2015_Oct_24_1430,K,facesParametric,9,59.6334952733,
./stim/MorphF6_05_orig.jpg,43,,,,,,,,,0,43,43,43,,,,,,,,,,,,,,,-14.00390625,-2.490234375,0,0,1,1.45676183701,,,,,2015_Oct_24_1430,K,facesParametric,9,59.6334952733,
./stim/MorphF4_07_orig.jpg,44,,,,,,,,,0,44,44,44,,,,,,,,,,,,,,,-14.033203125,-2.548828125,0,0,1,2.07470011711,,,,,2015_Oct_24_1430,K,facesParametric,9,59.6334952733,
./stim/MorphF7_03_orig.jpg,45,,,,,,,,,0,45,45,45,,,,,,,,,,,,,,,-14.0625,-2.51953125,0,0,1,0.903901815414,,,,,2015_Oct_24_1430,K,facesParametric,9,59.6334952733,
./stim/MorphF8_01_orig.jpg,46,,,,,,,,,0,46,46,46,,,,,,,,,,,,,,,-14.091796875,-2.490234375,1,0,0,1.10367298126,,,,,2015_Oct_24_1430,K,facesParametric,9,59.6334952733,
./stim/MorphF4_00_orig.jpg,47,,,,,,,,,0,47,47,47,,,,,,,,,,,,,,,-14.12109375,-2.63671875,1,0,0,0.971052885056,,,,,2015_Oct_24_1430,K,facesParametric,9,59.6334952733,
./stim/MorphM7_01_orig.jpg,48,,,,,,,,,0,48,48,48,,,,,,,,,,,,,,,-14.150390625,-2.666015625,0,0,1,1.75829482079,,,,,2015_Oct_24_1430,K,facesParametric,9,59.6334952733,
./stim/MorphF6_08_orig.jpg,49,,,,,,,,,0,49,49,49,,,,,,,,,,,,,,,-14.091796875,-2.8125,0,0,1,1.50671291351,,,,,2015_Oct_24_1430,K,facesParametric,9,59.6334952733,
./stim/MorphM2_06_orig.jpg,50,,,,,,,,,0,50,50,50,,,,,,,,,,,,,,,-14.12109375,-2.783203125,0,0,1,1.59117293358,,,,,2015_Oct_24_1430,K,facesParametric,9,59.6334952733,
./stim/MorphM9_00_orig.jpg,51,,,,,,,,,0,51,51,51,,,,,,,,,,,,,,,-14.0625,-2.8125,1,0,0,1.64135408401,,,,,2015_Oct_24_1430,K,facesParametric,9,59.6334952733,
./stim/MorphF8_05_orig.jpg,52,,,,,,,,,0,52,52,52,,,,,,,,,,,,,,,-14.091796875,-2.841796875,1,0,0,2.7307498455,,,,,2015_Oct_24_1430,K,facesParametric,9,59.6334952733,
./stim/MorphF9_06_orig.jpg,53,,,,,,,,,0,53,53,53,,,,,,,,,,,,,,,-14.23828125,-2.724609375,0,0,1,2.57965302467,,,,,2015_Oct_24_1430,K,facesParametric,9,59.6334952733,
./stim/MorphM10_03_orig.jpg,54,,,,,,,,,0,54,54,54,,,,,,,,,,,,,,,-14.296875,-2.63671875,0,0,1,1.13835215569,,,,,2015_Oct_24_1430,K,facesParametric,9,59.6334952733,
./stim/MorphF5_05_orig.jpg,55,,,,,,,,,0,55,55,55,,,,,,,,,,,,,,,-14.00390625,-1.9921875,1,0,0,6.90372395515,,,,,2015_Oct_24_1430,K,facesParametric,9,59.6334952733,
./stim/MorphF9_01_orig.jpg,56,,,,,,,,,0,56,56,56,,,,,,,,,,,,,,,-13.828125,-1.58203125,1,0,0,6.18335604668,,,,,2015_Oct_24_1430,K,facesParametric,9,59.6334952733,
./stim/MorphF4_08_orig.jpg,57,,,,,,,,,0,57,57,57,,,,,,,,,,,,,,,-13.857421875,-1.58203125,0,0,1,1.20502901077,,,,,2015_Oct_24_1430,K,facesParametric,9,59.6334952733,
./stim/MorphM7_02_orig.jpg,58,,,,,,,,,0,58,58,58,,,,,,,,,,,,,,,-13.828125,-1.552734375,0,0,1,1.13844013214,,,,,2015_Oct_24_1430,K,facesParametric,9,59.6334952733,
./stim/MorphF6_06_orig.jpg,59,,,,,,,,,0,59,59,59,,,,,,,,,,,,,,,-13.828125,-1.552734375,0,0,1,1.30612301826,,,,,2015_Oct_24_1430,K,facesParametric,9,59.6334952733,
./stim/MorphM3_03_orig.jpg,60,,,,,,,,,0,60,60,60,,,,,,,,,,,,,,,-13.798828125,-1.58203125,0,0,1,3.46605205536,,,,,2015_Oct_24_1430,K,facesParametric,9,59.6334952733,
./stim/MorphM1_06_orig.jpg,61,,,,,,,,,0,61,61,61,,,,,,,,,,,,,,,-13.798828125,-1.58203125,0,0,1,1.22222495079,,,,,2015_Oct_24_1430,K,facesParametric,9,59.6334952733,
./stim/MorphM2_01_orig.jpg,62,,,,,,,,,0,62,62,62,,,,,,,,,,,,,,,-13.798828125,-1.58203125,0,0,1,1.42360305786,,,,,2015_Oct_24_1430,K,facesParametric,9,59.6334952733,
./stim/MorphF10_09_orig.jpg,63,,,,,,,,,0,63,63,63,,,,,,,,,,,,,,,-13.798828125,-1.58203125,0,0,1,0.954329967499,,,,,2015_Oct_24_1430,K,facesParametric,9,59.6334952733,
./stim/MorphM5_06_orig.jpg,64,,,,,,,,,0,64,64,64,,,,,,,,,,,,,,,-13.798828125,-1.58203125,0,0,1,1.32130098343,,,,,2015_Oct_24_1430,K,facesParametric,9,59.6334952733,
./stim/MorphF10_08_orig.jpg,65,,,,,,,,,0,65,65,65,,,,,,,,,,,,,,,-13.798828125,-1.58203125,0,0,1,1.08805799484,,,,,2015_Oct_24_1430,K,facesParametric,9,59.6334952733,
./stim/MorphM10_09_orig.jpg,66,,,,,,,,,0,66,66,66,,,,,,,,,,,,,,,-13.798828125,-1.58203125,0,0,1,0.703917980194,,,,,2015_Oct_24_1430,K,facesParametric,9,59.6334952733,
./stim/MorphF9_07_orig.jpg,67,,,,,,,,,0,67,67,67,,,,,,,,,,,,,,,-13.798828125,-1.58203125,0,0,1,2.22674703598,,,,,2015_Oct_24_1430,K,facesParametric,9,59.6334952733,
./stim/MorphM6_07_orig.jpg,68,,,,,,,,,0,68,68,68,,,,,,,,,,,,,,,-13.798828125,-1.58203125,0,0,1,0.73548913002,,,,,2015_Oct_24_1430,K,facesParametric,9,59.6334952733,
./stim/MorphM9_08_orig.jpg,69,,,,,,,,,0,69,69,69,,,,,,,,,,,,,,,-13.798828125,-1.58203125,0,0,1,0.869580984116,,,,,2015_Oct_24_1430,K,facesParametric,9,59.6334952733,
./stim/MorphM8_10_orig.jpg,70,,,,,,,,,0,70,70,70,,,,,,,,,,,,,,,-13.798828125,-1.58203125,0,0,1,0.667400121689,,,,,2015_Oct_24_1430,K,facesParametric,9,59.6334952733,
./stim/MorphM4_04_orig.jpg,71,,,,,,,,,0,71,71,71,,,,,,,,,,,,,,,-13.798828125,-1.58203125,0,0,1,2.14395904541,,,,,2015_Oct_24_1430,K,facesParametric,9,59.6334952733,
./stim/MorphM8_07_orig.jpg,72,,,,,,,,,0,72,72,72,,,,,,,,,,,,,,,-13.798828125,-1.58203125,0,0,1,0.616905927658,,,,,2015_Oct_24_1430,K,facesParametric,9,59.6334952733,
./stim/MorphM2_08_orig.jpg,73,,,,,,,,,0,73,73,73,,,,,,,,,,,,,,,-13.798828125,-1.58203125,0,0,1,0.600990056992,,,,,2015_Oct_24_1430,K,facesParametric,9,59.6334952733,
./stim/MorphM10_00_orig.jpg,74,,,,,,,,,0,74,74,74,,,,,,,,,,,,,,,-13.798828125,-1.552734375,1,0,0,1.18720912933,,,,,2015_Oct_24_1430,K,facesParametric,9,59.6334952733,
./stim/MorphM6_03_orig.jpg,75,,,,,,,,,0,75,75,75,,,,,,,,,,,,,,,-13.798828125,-1.5234375,1,0,0,1.50724291801,,,,,2015_Oct_24_1430,K,facesParametric,9,59.6334952733,
./stim/MorphM7_04_orig.jpg,76,,,,,,,,,0,76,76,76,,,,,,,,,,,,,,,-13.798828125,-1.5234375,0,0,1,0.61883187294,,,,,2015_Oct_24_1430,K,facesParametric,9,59.6334952733,
./stim/MorphM4_10_orig.jpg,77,,,,,,,,,0,77,77,77,,,,,,,,,,,,,,,-13.798828125,-1.5234375,0,0,1,0.635545015335,,,,,2015_Oct_24_1430,K,facesParametric,9,59.6334952733,
./stim/MorphM5_08_orig.jpg,78,,,,,,,,,0,78,78,78,,,,,,,,,,,,,,,-13.798828125,-1.5234375,0,0,1,0.66841506958,,,,,2015_Oct_24_1430,K,facesParametric,9,59.6334952733,
./stim/MorphF10_04_orig.jpg,79,,,,,,,,,0,79,79,79,,,,,,,,,,,,,,,-13.798828125,-1.5234375,0,0,1,1.15574002266,,,,,2015_Oct_24_1430,K,facesParametric,9,59.6334952733,
./stim/MorphF5_10_orig.jpg,80,,,,,,,,,0,80,80,80,,,,,,,,,,,,,,,-13.798828125,-1.5234375,0,0,1,2.83071804047,,,,,2015_Oct_24_1430,K,facesParametric,9,59.6334952733,
./stim/MorphM10_06_orig.jpg,81,,,,,,,,,0,81,81,81,,,,,,,,,,,,,,,-13.798828125,-1.5234375,0,0,1,1.77527284622,,,,,2015_Oct_24_1430,K,facesParametric,9,59.6334952733,
./stim/MorphM9_09_orig.jpg,82,,,,,,,,,0,82,82,82,,,,,,,,,,,,,,,-13.798828125,-1.5234375,0,0,1,1.62412118912,,,,,2015_Oct_24_1430,K,facesParametric,9,59.6334952733,
./stim/MorphF2_05_orig.jpg,83,,,,,,,,,0,83,83,83,,,,,,,,,,,,,,,-13.798828125,-1.5234375,0,0,1,1.05291104317,,,,,2015_Oct_24_1430,K,facesParametric,9,59.6334952733,
./stim/MorphF7_00_orig.jpg,84,,,,,,,,,0,84,84,84,,,,,,,,,,,,,,,-13.857421875,-1.5234375,1,0,0,1.13779807091,,,,,2015_Oct_24_1430,K,facesParametric,9,59.6334952733,
./stim/MorphF4_06_orig.jpg,85,,,,,,,,,0,85,85,85,,,,,,,,,,,,,,,-13.828125,-1.5234375,1,0,0,1.53953289986,,,,,2015_Oct_24_1430,K,facesParametric,9,59.6334952733,
./stim/MorphM2_05_orig.jpg,86,,,,,,,,,0,86,86,86,,,,,,,,,,,,,,,-13.740234375,-1.552734375,1,0,0,2.4966211319,,,,,2015_Oct_24_1430,K,facesParametric,9,59.6334952733,
./stim/MorphF9_10_orig.jpg,87,,,,,,,,,0,87,87,87,,,,,,,,,,,,,,,-13.7109375,-1.58203125,0,0,1,1.17016887665,,,,,2015_Oct_24_1430,K,facesParametric,9,59.6334952733,
./stim/MorphF2_00_orig.jpg,88,,,,,,,,,0,88,88,88,,,,,,,,,,,,,,,-13.740234375,-1.552734375,1,0,0,2.31042289734,,,,,2015_Oct_24_1430,K,facesParametric,9,59.6334952733,
./stim/MorphF3_02_orig.jpg,89,,,,,,,,,0,89,89,89,,,,,,,,,,,,,,,-13.76953125,-1.494140625,1,0,0,1.32291293144,,,,,2015_Oct_24_1430,K,facesParametric,9,59.6334952733,
./stim/MorphF2_02_orig.jpg,90,,,,,,,,,0,90,90,90,,,,,,,,,,,,,,,-13.76953125,-1.552734375,1,0,0,0.837113857269,,,,,2015_Oct_24_1430,K,facesParametric,9,59.6334952733,
./stim/MorphM2_02_orig.jpg,91,,,,,,,,,0,91,91,91,,,,,,,,,,,,,,,-13.740234375,-1.58203125,1,0,0,1.02035498619,,,,,2015_Oct_24_1430,K,facesParametric,9,59.6334952733,
./stim/MorphF7_08_orig.jpg,92,,,,,,,,,0,92,92,92,,,,,,,,,,,,,,,-13.681640625,-1.58203125,0,0,1,1.42351794243,,,,,2015_Oct_24_1430,K,facesParametric,9,59.6334952733,
./stim/MorphF5_04_orig.jpg,93,,,,,,,,,0,93,93,93,,,,,,,,,,,,,,,-13.623046875,-1.640625,1,0,0,1.92572593689,,,,,2015_Oct_24_1430,K,facesParametric,9,59.6334952733,
./stim/MorphM6_05_orig.jpg,94,,,,,,,,,0,94,94,94,,,,,,,,,,,,,,,-13.53515625,-1.69921875,1,0,0,2.12748503685,,,,,2015_Oct_24_1430,K,facesParametric,9,59.6334952733,
./stim/MorphM1_04_orig.jpg,95,,,,,,,,,0,95,95,95,,,,,,,,,,,,,,,-13.4765625,-1.669921875,1,0,0,2.81407213211,,,,,2015_Oct_24_1430,K,facesParametric,9,59.6334952733,
./stim/MorphM7_05_orig.jpg,96,,,,,,,,,0,96,96,96,,,,,,,,,,,,,,,-13.447265625,-1.640625,0,0,1,0.954152822495,,,,,2015_Oct_24_1430,K,facesParametric,9,59.6334952733,
./stim/MorphM10_04_orig.jpg,97,,,,,,,,,0,97,97,97,,,,,,,,,,,,,,,-13.4765625,-1.69921875,0,0,1,0.935737133026,,,,,2015_Oct_24_1430,K,facesParametric,9,59.6334952733,
./stim/MorphF5_01_orig.jpg,98,,,,,,,,,0,98,98,98,,,,,,,,,,,,,,,-13.447265625,-1.787109375,1,0,0,1.40561008453,,,,,2015_Oct_24_1430,K,facesParametric,9,59.6334952733,
./stim/MorphM5_10_orig.jpg,99,,,,,,,,,0,99,99,99,,,,,,,,,,,,,,,-13.388671875,-1.728515625,0,0,1,1.28903913498,,,,,2015_Oct_24_1430,K,facesParametric,9,59.6334952733,
./stim/MorphM4_01_orig.jpg,100,,,,,,,,,0,100,100,100,,,,,,,,,,,,,,,-13.359375,-1.875,1,0,0,1.77522587776,,,,,2015_Oct_24_1430,K,facesParametric,9,59.6334952733,
./stim/MorphF4_05_orig.jpg,101,,,,,,,,,0,101,101,101,,,,,,,,,,,,,,,-13.388671875,-1.875,1,0,0,1.373306036,,,,,2015_Oct_24_1430,K,facesParametric,9,59.6334952733,
./stim/MorphM2_03_orig.jpg,102,,,,,,,,,0,102,102,102,,,,,,,,,,,,,,,-13.41796875,-1.845703125,1,0,0,1.1029150486,,,,,2015_Oct_24_1430,K,facesParametric,9,59.6334952733,
./stim/MorphM10_05_orig.jpg,103,,,,,,,,,0,103,103,103,,,,,,,,,,,,,,,-13.447265625,-1.787109375,0,0,1,1.02154803276,,,,,2015_Oct_24_1430,K,facesParametric,9,59.6334952733,
./stim/MorphM1_05_orig.jpg,104,,,,,,,,,0,104,104,104,,,,,,,,,,,,,,,-13.4765625,-1.728515625,1,0,0,1.30566000938,,,,,2015_Oct_24_1430,K,facesParametric,9,59.6334952733,
./stim/MorphF3_07_orig.jpg,105,,,,,,,,,0,105,105,105,,,,,,,,,,,,,,,-13.4765625,-1.69921875,0,0,1,1.22125506401,,,,,2015_Oct_24_1430,K,facesParametric,9,59.6334952733,
./stim/MorphM6_01_orig.jpg,106,,,,,,,,,0,106,106,106,,,,,,,,,,,,,,,-13.4765625,-1.69921875,1,0,0,0.903985977173,,,,,2015_Oct_24_1430,K,facesParametric,9,59.6334952733,
./stim/MorphF8_06_orig.jpg,107,,,,,,,,,0,107,107,107,,,,,,,,,,,,,,,-13.4765625,-1.728515625,1,0,0,0.968570947647,,,,,2015_Oct_24_1430,K,facesParametric,9,59.6334952733,
./stim/MorphM6_08_orig.jpg,108,,,,,,,,,0,108,108,108,,,,,,,,,,,,,,,-13.505859375,-1.787109375,0,0,1,3.18177103996,,,,,2015_Oct_24_1430,K,facesParametric,9,59.6334952733,
./stim/MorphF10_00_orig.jpg,109,,,,,,,,,0,109,109,109,,,,,,,,,,,,,,,-13.505859375,-1.787109375,1,0,0,1.60762000084,,,,,2015_Oct_24_1430,K,facesParametric,9,59.6334952733,
./stim/MorphM2_10_orig.jpg,110,,,,,,,,,0,110,110,110,,,,,,,,,,,,,,,-13.53515625,-1.7578125,0,0,1,1.13812208176,,,,,2015_Oct_24_1430,K,facesParametric,9,59.6334952733,
./stim/MorphM3_09_orig.jpg,111,,,,,,,,,0,111,111,111,,,,,,,,,,,,,,,-13.564453125,-1.787109375,0,0,1,0.903570890427,,,,,2015_Oct_24_1430,K,facesParametric,9,59.6334952733,
./stim/MorphF8_09_orig.jpg,112,,,,,,,,,0,112,112,112,,,,,,,,,,,,,,,-13.564453125,-1.787109375,0,0,1,0.685962915421,,,,,2015_Oct_24_1430,K,facesParametric,9,59.6334952733,
./stim/MorphM1_07_orig.jpg,113,,,,,,,,,0,113,113,113,,,,,,,,,,,,,,,-13.623046875,-1.7578125,0,0,1,0.820441007614,,,,,2015_Oct_24_1430,K,facesParametric,9,59.6334952733,
./stim/MorphF1_10_orig.jpg,114,,,,,,,,,0,114,114,114,,,,,,,,,,,,,,,-13.623046875,-1.7578125,0,0,1,0.802393913269,,,,,2015_Oct_24_1430,K,facesParametric,9,59.6334952733,
./stim/MorphM3_08_orig.jpg,115,,,,,,,,,0,115,115,115,,,,,,,,,,,,,,,-13.623046875,-1.7578125,0,0,1,1.30665898323,,,,,2015_Oct_24_1430,K,facesParametric,9,59.6334952733,
./stim/MorphF6_10_orig.jpg,116,,,,,,,,,0,116,116,116,,,,,,,,,,,,,,,-13.623046875,-1.7578125,0,0,1,1.89174389839,,,,,2015_Oct_24_1430,K,facesParametric,9,59.6334952733,
./stim/MorphM4_09_orig.jpg,117,,,,,,,,,0,117,117,117,,,,,,,,,,,,,,,-13.53515625,-1.728515625,0,0,1,7.70685195923,,,,,2015_Oct_24_1430,K,facesParametric,9,59.6334952733,
./stim/MorphM8_01_orig.jpg,118,,,,,,,,,0,118,118,118,,,,,,,,,,,,,,,-13.974609375,-1.58203125,1,0,0,15.4848220348,,,,,2015_Oct_24_1430,K,facesParametric,9,59.6334952733,
./stim/MorphM10_08_orig.jpg,119,,,,,,,,,0,119,119,119,,,,,,,,,,,,,,,-13.9453125,-1.58203125,0,0,1,1.27108097076,,,,,2015_Oct_24_1430,K,facesParametric,9,59.6334952733,
./stim/MorphF8_10_orig.jpg,120,,,,,,,,,0,120,120,120,,,,,,,,,,,,,,,-14.00390625,-0.908203125,0,0,1,8.378262043,,,,,2015_Oct_24_1430,K,facesParametric,9,59.6334952733,
./stim/MorphM6_04_orig.jpg,121,,,,,,,,,0,121,121,121,,,,,,,,,,,,,,,-14.033203125,-0.8203125,1,0,0,12.1328759193,,,,,2015_Oct_24_1430,K,facesParametric,9,59.6334952733,
./stim/MorphM5_04_orig.jpg,122,,,,,,,,,0,122,122,122,,,,,,,,,,,,,,,-14.0625,-0.791015625,0,0,1,1.45588088036,,,,,2015_Oct_24_1430,K,facesParametric,9,59.6334952733,
./stim/MorphF7_06_orig.jpg,123,,,,,,,,,0,123,123,123,,,,,,,,,,,,,,,-14.0625,-0.791015625,1,0,0,1.37320303917,,,,,2015_Oct_24_1430,K,facesParametric,9,59.6334952733,
./stim/MorphM4_08_orig.jpg,124,,,,,,,,,0,124,124,124,,,,,,,,,,,,,,,-14.033203125,-0.380859375,0,0,1,6.58416008949,,,,,2015_Oct_24_1430,K,facesParametric,9,59.6334952733,
./stim/MorphF10_02_orig.jpg,125,,,,,,,,,0,125,125,125,,,,,,,,,,,,,,,-14.033203125,-0.3515625,0,0,1,0.803044080734,,,,,2015_Oct_24_1430,K,facesParametric,9,59.6334952733,
./stim/MorphF1_00_orig.jpg,126,,,,,,,,,0,126,126,126,,,,,,,,,,,,,,,-14.150390625,-0.029296875,1,0,0,2.84790682793,,,,,2015_Oct_24_1430,K,facesParametric,9,59.6334952733,
./stim/MorphM4_02_orig.jpg,127,,,,,,,,,0,127,127,127,,,,,,,,,,,,,,,-14.70703125,1.259765625,1,0,0,6.71792006493,,,,,2015_Oct_24_1430,K,facesParametric,9,59.6334952733,
./stim/MorphM5_05_orig.jpg,128,,,,,,,,,0,128,128,128,,,,,,,,,,,,,,,-14.736328125,1.640625,0,0,1,0.868494987488,,,,,2015_Oct_24_1430,K,facesParametric,9,59.6334952733,
./stim/MorphF8_04_orig.jpg,129,,,,,,,,,0,129,129,129,,,,,,,,,,,,,,,-15.029296875,2.05078125,1,0,0,10.0529170036,,,,,2015_Oct_24_1430,K,facesParametric,9,59.6334952733,
./stim/MorphM9_02_orig.jpg,130,,,,,,,,,0,130,130,130,,,,,,,,,,,,,,,-14.736328125,2.197265625,0,0,1,0.886739015579,,,,,2015_Oct_24_1430,K,facesParametric,9,59.6334952733,
./stim/MorphF9_08_orig.jpg,131,,,,,,,,,0,131,131,131,,,,,,,,,,,,,,,-14.70703125,2.314453125,1,0,0,1.79158306122,,,,,2015_Oct_24_1430,K,facesParametric,9,59.6334952733,
./stim/MorphM8_03_orig.jpg,132,,,,,,,,,0,132,132,132,,,,,,,,,,,,,,,-14.677734375,2.87109375,0,0,1,3.06456518173,,,,,2015_Oct_24_1430,K,facesParametric,9,59.6334952733,
./stim/MorphF2_09_orig.jpg,133,,,,,,,,,0,133,133,133,,,,,,,,,,,,,,,-14.6484375,2.900390625,0,0,1,1.01854491234,,,,,2015_Oct_24_1430,K,facesParametric,9,59.6334952733,
./stim/MorphF1_06_orig.jpg,134,,,,,,,,,0,134,134,134,,,,,,,,,,,,,,,-14.82421875,2.98828125,1,0,0,6.88752198219,,,,,2015_Oct_24_1430,K,facesParametric,9,59.6334952733,
./stim/MorphF2_06_orig.jpg,135,,,,,,,,,0,135,135,135,,,,,,,,,,,,,,,-14.794921875,3.017578125,0,0,1,1.65708684921,,,,,2015_Oct_24_1430,K,facesParametric,9,59.6334952733,
./stim/MorphM9_03_orig.jpg,136,,,,,,,,,0,136,136,136,,,,,,,,,,,,,,,-14.8828125,3.22265625,0,0,1,1.62457799911,,,,,2015_Oct_24_1430,K,facesParametric,9,59.6334952733,
./stim/MorphM6_09_orig.jpg,137,,,,,,,,,0,137,137,137,,,,,,,,,,,,,,,-14.94140625,3.3984375,0,0,1,4.79034304619,,,,,2015_Oct_24_1430,K,facesParametric,9,59.6334952733,
./stim/MorphF6_02_orig.jpg,138,,,,,,,,,0,138,138,138,,,,,,,,,,,,,,,-14.970703125,3.69140625,1,0,0,4.94292497635,,,,,2015_Oct_24_1430,K,facesParametric,9,59.6334952733,
./stim/MorphF10_10_orig.jpg,139,,,,,,,,,0,139,139,139,,,,,,,,,,,,,,,-14.912109375,3.310546875,0,0,1,5.07721996307,,,,,2015_Oct_24_1430,K,facesParametric,9,59.6334952733,
./stim/MorphM5_00_orig.jpg,140,,,,,,,,,0,140,140,140,,,,,,,,,,,,,,,-14.94140625,3.251953125,0,0,1,0.868833065033,,,,,2015_Oct_24_1430,K,facesParametric,9,59.6334952733,
./stim/MorphM9_01_orig.jpg,141,,,,,,,,,0,141,141,141,,,,,,,,,,,,,,,-14.94140625,3.251953125,0,0,1,1.47386288643,,,,,2015_Oct_24_1430,K,facesParametric,9,59.6334952733,
./stim/MorphF2_03_orig.jpg,142,,,,,,,,,0,142,142,142,,,,,,,,,,,,,,,-14.94140625,3.251953125,0,0,1,1.02103900909,,,,,2015_Oct_24_1430,K,facesParametric,9,59.6334952733,
./stim/MorphF10_06_orig.jpg,143,,,,,,,,,0,143,143,143,,,,,,,,,,,,,,,-14.94140625,3.251953125,0,0,1,0.834837198257,,,,,2015_Oct_24_1430,K,facesParametric,9,59.6334952733,
./stim/MorphM4_06_orig.jpg,144,,,,,,,,,0,144,144,144,,,,,,,,,,,,,,,-14.94140625,3.251953125,0,0,1,2.93165802956,,,,,2015_Oct_24_1430,K,facesParametric,9,59.6334952733,
./stim/MorphF1_08_orig.jpg,145,,,,,,,,,0,145,145,145,,,,,,,,,,,,,,,-14.970703125,3.251953125,0,0,1,2.36168193817,,,,,2015_Oct_24_1430,K,facesParametric,9,59.6334952733,
./stim/MorphF6_03_orig.jpg,146,,,,,,,,,0,146,146,146,,,,,,,,,,,,,,,-15.0,3.22265625,0,0,1,1.07168006897,,,,,2015_Oct_24_1430,K,facesParametric,9,59.6334952733,
./stim/MorphM3_01_orig.jpg,147,,,,,,,,,0,147,147,147,,,,,,,,,,,,,,,-14.912109375,3.251953125,0,0,1,11.177729845,,,,,2015_Oct_24_1430,K,facesParametric,9,59.6334952733,
./stim/MorphM9_04_orig.jpg,148,,,,,,,,,0,148,148,148,,,,,,,,,,,,,,,-15.029296875,3.310546875,1,0,0,7.7245759964,,,,,2015_Oct_24_1430,K,facesParametric,9,59.6334952733,
./stim/MorphF9_00_orig.jpg,149,,,,,,,,,0,149,149,149,,,,,,,,,,,,,,,-15.0,3.33984375,1,0,0,6.83470606804,,,,,2015_Oct_24_1430,K,facesParametric,9,59.6334952733,
./stim/MorphF3_06_orig.jpg,150,,,,,,,,,0,150,150,150,,,,,,,,,,,,,,,-14.8828125,3.251953125,0,0,1,1.87594413757,,,,,2015_Oct_24_1430,K,facesParametric,9,59.6334952733,
./stim/MorphF9_04_orig.jpg,151,,,,,,,,,0,151,151,151,,,,,,,,,,,,,,,-14.94140625,3.515625,0,0,1,4.25578188896,,,,,2015_Oct_24_1430,K,facesParametric,9,59.6334952733,
./stim/MorphF7_09_orig.jpg,152,,,,,,,,,0,152,152,152,,,,,,,,,,,,,,,-14.94140625,3.57421875,0,0,1,1.08643698692,,,,,2015_Oct_24_1430,K,facesParametric,9,59.6334952733,
./stim/MorphF2_07_orig.jpg,153,,,,,,,,,0,153,153,153,,,,,,,,,,,,,,,-14.94140625,3.6328125,0,0,1,0.886729001999,,,,,2015_Oct_24_1430,K,facesParametric,9,59.6334952733,
./stim/MorphF1_03_orig.jpg,154,,,,,,,,,0,154,154,154,,,,,,,,,,,,,,,-14.970703125,3.662109375,0,0,1,1.37297701836,,,,,2015_Oct_24_1430,K,facesParametric,9,59.6334952733,
./stim/MorphF4_09_orig.jpg,155,,,,,,,,,0,155,155,155,,,,,,,,,,,,,,,-14.6484375,3.720703125,0,0,1,15.3003020287,,,,,2015_Oct_24_1430,K,facesParametric,9,59.6334952733,
./stim/MorphM8_00_orig.jpg,156,,,,,,,,,0,156,156,156,,,,,,,,,,,,,,,-14.58984375,3.92578125,0,0,1,22.8415198326,,,,,2015_Oct_24_1430,K,facesParametric,9,59.6334952733,
./stim/MorphF1_09_orig.jpg,157,,,,,,,,,0,157,157,157,,,,,,,,,,,,,,,-14.677734375,3.92578125,0,0,1,10.3564600945,,,,,2015_Oct_24_1430,K,facesParametric,9,59.6334952733,
./stim/MorphF8_08_orig.jpg,158,,,,,,,,,0,158,158,158,,,,,,,,,,,,,,,-14.853515625,3.896484375,0,0,1,33.1657869816,,,,,2015_Oct_24_1430,K,facesParametric,9,59.6334952733,
./stim/MorphF3_00_orig.jpg,159,,,,,,,,,0,159,159,159,,,,,,,,,,,,,,,-14.8828125,3.896484375,1,0,0,2.86510300636,,,,,2015_Oct_24_1430,K,facesParametric,9,59.6334952733,
./stim/MorphM10_07_orig.jpg,160,,,,,,,,,0,160,160,160,,,,,,,,,,,,,,,-14.8828125,3.896484375,0,0,1,1.69028711319,,,,,2015_Oct_24_1430,K,facesParametric,9,59.6334952733,
./stim/MorphM3_07_orig.jpg,161,,,,,,,,,0,161,161,161,,,,,,,,,,,,,,,-14.8828125,3.896484375,0,0,1,1.0213060379,,,,,2015_Oct_24_1430,K,facesParametric,9,59.6334952733,
./stim/MorphF3_10_orig.jpg,162,,,,,,,,,0,162,162,162,,,,,,,,,,,,,,,-14.8828125,3.896484375,0,0,1,0.769708871841,,,,,2015_Oct_24_1430,K,facesParametric,9,59.6334952733,
./stim/MorphM5_02_orig.jpg,163,,,,,,,,,0,163,163,163,,,,,,,,,,,,,,,-14.8828125,3.896484375,0,0,1,0.771032094955,,,,,2015_Oct_24_1430,K,facesParametric,9,59.6334952733,
./stim/MorphF3_08_orig.jpg,164,,,,,,,,,0,164,164,164,,,,,,,,,,,,,,,-14.8828125,3.896484375,0,0,1,1.55457806587,,,,,2015_Oct_24_1430,K,facesParametric,9,59.6334952733,
./stim/MorphM8_04_orig.jpg,165,,,,,,,,,0,165,165,165,,,,,,,,,,,,,,,-14.8828125,3.896484375,0,0,1,0.920886993408,,,,,2015_Oct_24_1430,K,facesParametric,9,59.6334952733,
./stim/MorphF2_08_orig.jpg,166,,,,,,,,,0,166,166,166,,,,,,,,,,,,,,,-14.94140625,3.984375,0,0,1,1.02057218552,,,,,2015_Oct_24_1430,K,facesParametric,9,59.6334952733,
./stim/MorphM8_05_orig.jpg,167,,,,,,,,,0,167,167,167,,,,,,,,,,,,,,,-14.970703125,4.013671875,0,0,1,1.55717897415,,,,,2015_Oct_24_1430,K,facesParametric,9,59.6334952733,
./stim/MorphM9_10_orig.jpg,168,,,,,,,,,0,168,168,168,,,,,,,,,,,,,,,-14.970703125,4.013671875,0,0,1,0.686160087585,,,,,2015_Oct_24_1430,K,facesParametric,9,59.6334952733,
./stim/MorphF10_03_orig.jpg,169,,,,,,,,,0,169,169,169,,,,,,,,,,,,,,,-14.970703125,4.013671875,0,0,1,0.836503982544,,,,,2015_Oct_24_1430,K,facesParametric,9,59.6334952733,
./stim/MorphF8_03_orig.jpg,170,,,,,,,,,0,170,170,170,,,,,,,,,,,,,,,-14.970703125,4.013671875,0,0,1,1.50729894638,,,,,2015_Oct_24_1430,K,facesParametric,9,59.6334952733,
./stim/MorphF9_09_orig.jpg,171,,,,,,,,,0,171,171,171,,,,,,,,,,,,,,,-15.0,4.04296875,0,0,1,1.18882107735,,,,,2015_Oct_24_1430,K,facesParametric,9,59.6334952733,
./stim/MorphM6_10_orig.jpg,172,,,,,,,,,0,172,172,172,,,,,,,,,,,,,,,-14.912109375,4.013671875,0,0,1,2.61321401596,,,,,2015_Oct_24_1430,K,facesParametric,9,59.6334952733,
./stim/MorphF5_09_orig.jpg,173,,,,,,,,,0,173,173,173,,,,,,,,,,,,,,,-14.94140625,4.16015625,1,0,0,4.48902821541,,,,,2015_Oct_24_1430,K,facesParametric,9,59.6334952733,
./stim/MorphM7_00_orig.jpg,174,,,,,,,,,0,174,174,174,,,,,,,,,,,,,,,-14.82421875,4.130859375,1,0,0,1.4734377861,,,,,2015_Oct_24_1430,K,facesParametric,9,59.6334952733,
./stim/MorphF4_03_orig.jpg,175,,,,,,,,,0,175,175,175,,,,,,,,,,,,,,,-14.794921875,4.130859375,1,0,0,0.803034067154,,,,,2015_Oct_24_1430,K,facesParametric,9,59.6334952733,
./stim/MorphF10_01_orig.jpg,176,,,,,,,,,0,176,176,176,,,,,,,,,,,,,,,-14.794921875,4.130859375,0,0,1,1.08827400208,,,,,2015_Oct_24_1430,K,facesParametric,9,59.6334952733,
./stim/MorphM2_09_orig.jpg,177,,,,,,,,,0,177,177,177,,,,,,,,,,,,,,,-14.82421875,4.16015625,0,0,1,1.4710650444,,,,,2015_Oct_24_1430,K,facesParametric,9,59.6334952733,
./stim/MorphF2_01_orig.jpg,178,,,,,,,,,0,178,178,178,,,,,,,,,,,,,,,-14.8828125,4.16015625,1,0,0,1.39004516602,,,,,2015_Oct_24_1430,K,facesParametric,9,59.6334952733,
./stim/MorphF10_05_orig.jpg,179,,,,,,,,,0,179,179,179,,,,,,,,,,,,,,,-15.029296875,4.16015625,0,0,1,3.24997210503,,,,,2015_Oct_24_1430,K,facesParametric,9,59.6334952733,
./stim/MorphM7_07_orig.jpg,180,,,,,,,,,0,180,180,180,,,,,,,,,,,,,,,-15.087890625,4.130859375,0,0,1,0.854617118835,,,,,2015_Oct_24_1430,K,facesParametric,9,59.6334952733,
./stim/MorphM9_06_orig.jpg,181,,,,,,,,,0,181,181,181,,,,,,,,,,,,,,,-15.05859375,4.072265625,0,0,1,1.30480718613,,,,,2015_Oct_24_1430,K,facesParametric,9,59.6334952733,
./stim/MorphM3_10_orig.jpg,182,,,,,,,,,0,182,182,182,,,,,,,,,,,,,,,-15.1171875,4.04296875,0,0,1,1.03654789925,,,,,2015_Oct_24_1430,K,facesParametric,9,59.6334952733,
./stim/MorphM2_07_orig.jpg,183,,,,,,,,,0,183,183,183,,,,,,,,,,,,,,,-15.1171875,4.04296875,0,0,1,0.803172111511,,,,,2015_Oct_24_1430,K,facesParametric,9,59.6334952733,
./stim/MorphM1_01_orig.jpg,184,,,,,,,,,0,184,184,184,,,,,,,,,,,,,,,-15.17578125,4.04296875,1,0,0,6.06614804268,,,,,2015_Oct_24_1430,K,facesParametric,9,59.6334952733,
./stim/MorphF7_04_orig.jpg,185,,,,,,,,,0,185,185,185,,,,,,,,,,,,,,,-15.146484375,4.130859375,1,0,0,10.6912238598,,,,,2015_Oct_24_1430,K,facesParametric,9,59.6334952733,
./stim/MorphF1_07_orig.jpg,186,,,,,,,,,0,186,186,186,,,,,,,,,,,,,,,-15.17578125,4.1015625,1,0,0,1.23870301247,,,,,2015_Oct_24_1430,K,facesParametric,9,59.6334952733,
./stim/MorphF5_06_orig.jpg,187,,,,,,,,,0,187,187,187,,,,,,,,,,,,,,,-15.205078125,4.130859375,1,0,0,2.36221790314,,,,,2015_Oct_24_1430,K,facesParametric,9,59.6334952733,
./stim/MorphM6_00_orig.jpg,188,,,,,,,,,0,188,188,188,,,,,,,,,,,,,,,-15.205078125,4.130859375,1,0,0,1.45680093765,,,,,2015_Oct_24_1430,K,facesParametric,9,59.6334952733,
./stim/MorphF8_07_orig.jpg,189,,,,,,,,,0,189,189,189,,,,,,,,,,,,,,,-15.205078125,4.130859375,0,0,1,1.18692684174,,,,,2015_Oct_24_1430,K,facesParametric,9,59.6334952733,
./stim/MorphF6_01_orig.jpg,190,,,,,,,,,0,190,190,190,,,,,,,,,,,,,,,-15.205078125,4.130859375,1,0,0,0.886664152145,,,,,2015_Oct_24_1430,K,facesParametric,9,59.6334952733,
./stim/MorphF5_00_orig.jpg,191,,,,,,,,,0,191,191,191,,,,,,,,,,,,,,,-15.205078125,4.130859375,1,0,0,1.23857188225,,,,,2015_Oct_24_1430,K,facesParametric,9,59.6334952733,
./stim/MorphF3_09_orig.jpg,192,,,,,,,,,0,192,192,192,,,,,,,,,,,,,,,-15.205078125,4.130859375,0,0,1,1.03796195984,,,,,2015_Oct_24_1430,K,facesParametric,9,59.6334952733,
./stim/MorphM3_05_orig.jpg,193,,,,,,,,,0,193,193,193,,,,,,,,,,,,,,,-15.205078125,4.130859375,0,0,1,2.0606970787,,,,,2015_Oct_24_1430,K,facesParametric,9,59.6334952733,
./stim/MorphF5_07_orig.jpg,194,,,,,,,,,0,194,194,194,,,,,,,,,,,,,,,-15.205078125,4.130859375,1,0,0,0.93635892868,,,,,2015_Oct_24_1430,K,facesParametric,9,59.6334952733,
./stim/MorphF7_10_orig.jpg,195,,,,,,,,,0,195,195,195,,,,,,,,,,,,,,,-15.234375,4.16015625,0,0,1,1.05464100838,,,,,2015_Oct_24_1430,K,facesParametric,9,59.6334952733,
./stim/MorphF9_05_orig.jpg,196,,,,,,,,,0,196,196,196,,,,,,,,,,,,,,,-15.234375,4.16015625,1,0,0,2.98208999634,,,,,2015_Oct_24_1430,K,facesParametric,9,59.6334952733,
./stim/MorphF7_01_orig.jpg,197,,,,,,,,,0,197,197,197,,,,,,,,,,,,,,,-15.205078125,4.189453125,1,0,0,3.41779613495,,,,,2015_Oct_24_1430,K,facesParametric,9,59.6334952733,
./stim/MorphF4_01_orig.jpg,198,,,,,,,,,0,198,198,198,,,,,,,,,,,,,,,-15.205078125,4.189453125,1,0,0,1.03629803658,,,,,2015_Oct_24_1430,K,facesParametric,9,59.6334952733,
./stim/MorphM2_00_orig.jpg,199,,,,,,,,,0,199,199,199,,,,,,,,,,,,,,,-15.234375,4.21875,1,0,0,2.24521708488,,,,,2015_Oct_24_1430,K,facesParametric,9,59.6334952733,
./stim/MorphM10_02_orig.jpg,200,,,,,,,,,0,200,200,200,,,,,,,,,,,,,,,-15.234375,4.21875,1,0,0,1.0540831089,,,,,2015_Oct_24_1430,K,facesParametric,9,59.6334952733,
./stim/MorphM3_02_orig.jpg,201,,,,,,,,,0,201,201,201,,,,,,,,,,,,,,,-15.234375,4.21875,1,0,0,1.02107691765,,,,,2015_Oct_24_1430,K,facesParametric,9,59.6334952733,
./stim/MorphF1_05_orig.jpg,202,,,,,,,,,0,202,202,202,,,,,,,,,,,,,,,-15.234375,4.21875,0,0,1,2.96522903442,,,,,2015_Oct_24_1430,K,facesParametric,9,59.6334952733,
./stim/MorphM1_03_orig.jpg,203,,,,,,,,,0,203,203,203,,,,,,,,,,,,,,,-15.234375,4.21875,1,0,0,1.57412600517,,,,,2015_Oct_24_1430,K,facesParametric,9,59.6334952733,
./stim/MorphF3_05_orig.jpg,204,,,,,,,,,0,204,204,204,,,,,,,,,,,,,,,-15.234375,4.21875,0,0,1,1.69116306305,,,,,2015_Oct_24_1430,K,facesParametric,9,59.6334952733,
./stim/MorphF4_02_orig.jpg,205,,,,,,,,,0,205,205,205,,,,,,,,,,,,,,,-15.263671875,4.189453125,1,0,0,0.920573949814,,,,,2015_Oct_24_1430,K,facesParametric,9,59.6334952733,
./stim/MorphM3_04_orig.jpg,206,,,,,,,,,0,206,206,206,,,,,,,,,,,,,,,-15.263671875,4.189453125,0,0,1,1.49028205872,,,,,2015_Oct_24_1430,K,facesParametric,9,59.6334952733,
./stim/MorphM7_06_orig.jpg,207,,,,,,,,,0,207,207,207,,,,,,,,,,,,,,,-15.205078125,4.16015625,0,0,1,1.40668511391,,,,,2015_Oct_24_1430,K,facesParametric,9,59.6334952733,
./stim/MorphM3_06_orig.jpg,208,,,,,,,,,0,208,208,208,,,,,,,,,,,,,,,-15.205078125,4.16015625,0,0,1,0.987365961075,,,,,2015_Oct_24_1430,K,facesParametric,9,59.6334952733,
./stim/MorphF2_04_orig.jpg,209,,,,,,,,,0,209,209,209,,,,,,,,,,,,,,,-15.205078125,4.16015625,0,0,1,1.45606088638,,,,,2015_Oct_24_1430,K,facesParametric,9,59.6334952733,
./stim/MorphF9_02_orig.jpg,210,,,,,,,,,0,210,210,210,,,,,,,,,,,,,,,-15.234375,4.130859375,1,0,0,1.6243929863,,,,,2015_Oct_24_1430,K,facesParametric,9,59.6334952733,
./stim/MorphM1_10_orig.jpg,211,,,,,,,,,0,211,211,211,,,,,,,,,,,,,,,-15.205078125,4.1015625,0,0,1,1.13717603683,,,,,2015_Oct_24_1430,K,facesParametric,9,59.6334952733,
./stim/MorphM8_08_orig.jpg,212,,,,,,,,,0,212,212,212,,,,,,,,,,,,,,,-15.205078125,4.1015625,0,0,1,0.903542995453,,,,,2015_Oct_24_1430,K,facesParametric,9,59.6334952733,
./stim/MorphF6_09_orig.jpg,213,,,,,,,,,0,213,213,213,,,,,,,,,,,,,,,-15.205078125,4.1015625,0,0,1,0.903459072113,,,,,2015_Oct_24_1430,K,facesParametric,9,59.6334952733,
./stim/MorphM1_00_orig.jpg,214,,,,,,,,,0,214,214,214,,,,,,,,,,,,,,,-15.205078125,4.1015625,1,0,0,1.08848190308,,,,,2015_Oct_24_1430,K,facesParametric,9,59.6334952733,
./stim/MorphM6_02_orig.jpg,215,,,,,,,,,0,215,215,215,,,,,,,,,,,,,,,-15.234375,4.130859375,1,0,0,1.27288293839,,,,,2015_Oct_24_1430,K,facesParametric,9,59.6334952733,
./stim/MorphM4_00_orig.jpg,216,,,,,,,,,0,216,216,216,,,,,,,,,,,,,,,-15.234375,4.130859375,1,0,0,1.97581911087,,,,,2015_Oct_24_1430,K,facesParametric,9,59.6334952733,
./stim/MorphF6_04_orig.jpg,217,,,,,,,,,0,217,217,217,,,,,,,,,,,,,,,-15.263671875,4.130859375,1,0,0,1.45695114136,,,,,2015_Oct_24_1430,K,facesParametric,9,59.6334952733,
./stim/MorphM5_03_orig.jpg,218,,,,,,,,,0,218,218,218,,,,,,,,,,,,,,,-15.29296875,4.130859375,0,0,1,1.2203309536,,,,,2015_Oct_24_1430,K,facesParametric,9,59.6334952733,
./stim/MorphF5_02_orig.jpg,219,,,,,,,,,0,219,219,219,,,,,,,,,,,,,,,-15.380859375,4.1015625,1,0,0,1.22168183327,,,,,2015_Oct_24_1430,K,facesParametric,9,59.6334952733,
,,,,,,,,,,,,,,,,,,,,,,,,,,,,,,,,,,,,return,1.51997709274,2015_Oct_24_1430,K,facesParametric,9,59.6334952733,
